time,seconds_elapsed,z,y,x
1783696016591323000,0.060322998046875,0.02890811457633972,0.5715314752101898,-0.35440723908953364
1783696016601287000,0.070286865234375,0.058814592540264124,0.5433274172499776,-0.2945154457718134
1783696016611251000,0.0802509765625,0.16862112117111683,0.49871407628059383,-0.20263276943154632
1783696016621215000,0.090215087890625,0.30016894148886203,0.4216773060902953,-0.12479776153564452
1783696016631178000,0.100177978515625,0.47666415703594683,0.3164417386367917,-0.009216668091341853
1783696016641142000,0.11014208984375,0.7211930443674326,0.20148148050457237,0.1303407095503062
1783696016651105800,0.120105712890625,1.037271502649784,0.08395078736245631,0.2366658988714218
1783696016661069800,0.13006982421875,1.248384442591667,-0.07012129171341658,0.33942893873155117
1783696016671033900,0.140033935546875,1.2857254544705152,-0.12352584190368651,0.30496172872334715
1783696016680996900,0.149996826171875,1.1357874064594506,-0.11484160018861293,0.2061208307430148
1783696016690961000,0.1599609375,0.7916045511990785,-0.0734536510065198,0.14286401797160506
1783696016700925000,0.169925048828125,0.3620341537714004,0.09753975225389003,0.07001059788055718
1783696016710889000,0.179888916015625,-0.007124737313389778,0.23017975172251462,0.009169467948749661
1783696016720852700,0.189852783203125,-0.23147300640344617,0.31256168233305215,-0.048286768785119054
1783696016730816000,0.19981591796875,-0.3387123148947954,0.41437808899283407,-0.07494049203079194
1783696016740779800,0.20977978515625,-0.31387539528012276,0.48158115517199035,-0.021955665089935062
1783696016750743800,0.219743896484375,-0.26210896768569947,0.46240912945121526,0.04429751648586243
1783696016760707800,0.229707763671875,-0.10512801542580127,0.42264673564434047,0.06415737834032624
1783696016770671900,0.239671875,0.10174071107506752,0.3050444385707378,0.03480835159607231
1783696016780635000,0.249634765625,0.31082419101595876,0.16430121214538812,0.04390285461246967
1783696016790599000,0.259598876953125,0.43480362190604205,0.0006961655706167221,0.05633771756533533
1783696016800563000,0.26956298828125,0.47734220242798325,-0.19749474895596503,0.0892021320194006
1783696016810526700,0.279526611328125,0.4942553433060646,-0.376250018389523,0.10433065450303255
1783696016820490000,0.289489990234375,0.512384289714694,-0.4573611984118819,0.09818846195358782
1783696016830453800,0.299453857421875,0.5736451063632965,-0.502488626383245,0.1589590839324519
1783696016840417800,0.309417724609375,0.5558879158765078,-0.4916670803785324,0.2337151227744296
1783696016850381800,0.3193818359375,0.4603817152768373,-0.3012193273246288,0.3250872923092916
1783696016860345900,0.329345947265625,0.10044014987051486,-0.6571265226483345,0.38960765874311326
1783696016870308900,0.339308837890625,0.04914660048484802,-0.7986407334461808,0.10241610785229131
1783696016880273000,0.34927294921875,0.34297464851438997,-0.6751730514705181,-0.29387986954832446
1783696016890237000,0.35923681640625,0.5653092396944761,-0.7755395515829324,-0.35830895923580974
1783696016900201000,0.369200927734375,0.7119891626924276,-0.9555947976991533,-0.28885621443372217
1783696016910164700,0.379164794921875,0.7982312758624553,-1.0263394820079206,-0.30250975072765723
1783696016920127700,0.389127685546875,0.7298895610421896,-0.976988883383572,-0.21767728515984489
1783696016930091800,0.399091796875,0.5344949992358684,-0.8586685011684894,-0.0646360104364343
1783696016940055800,0.409055908203125,0.3367944985747337,-0.7367179457575083,0.014256708085164427
1783696016950019800,0.419019775390625,0.2312584868699312,-0.617622779777646,0.019873123194836077
1783696016959983900,0.42898388671875,0.19698796847760677,-0.5144873994737863,0.0650653782970272
1783696016969947000,0.43894677734375,0.1745125172972679,-0.4659963402882218,0.15010487421164287
1783696016979911000,0.448910888671875,0.12428805844783783,-0.410707876047492,0.20224729551160706
1783696016989875000,0.458875,0.07282324414849281,-0.34917788706868885,0.19583839658368377
1783696016999838700,0.468838623046875,0.03378536522388458,-0.24713731626421212,0.16310403825007377
1783696017009802000,0.478802001953125,-0.0006043956339359284,-0.17830051140338182,0.13898436352666466
1783696017019765800,0.488765869140625,0.03379939374923706,-0.13148323064893483,0.12907459860462694
1783696017029729800,0.498729736328125,0.08896013995707035,-0.17006664380431175,0.10216437984723598
1783696017039693800,0.50869384765625,0.19025252274274826,-0.20012217485010622,0.0461632372925058
1783696017049657900,0.518657958984375,0.20891046146154402,-0.25528613592833277,-0.05716466990876942
1783696017059620900,0.528620849609375,0.0652425797611475,-0.30340222432166336,-0.24838470424311235
1783696017069585000,0.5385849609375,-0.2584253107368946,-0.33699031340777874,-0.49191327369194476
1783696017079549000,0.548548828125,-0.44443771169185636,-0.3573775601372123,-0.45187451062910255
1783696017089512700,0.5585126953125,-0.6003805530756712,-0.46894203835129733,-0.09761011407636105
1783696017099476700,0.568476806640625,-0.5930149927437305,-0.7263757077023386,0.5042386118557304
1783696017109439700,0.578439697265625,-0.24507190816700458,-0.822230867870152,0.9387686775173991
1783696017119403800,0.58840380859375,0.05526888275742531,-0.7111413136914372,0.9691631581939756
1783696017129367800,0.598367919921875,0.10342354959547519,-0.5934209431961178,0.8984833558149635
1783696017139331800,0.608331787109375,-0.1352338153541088,-0.5378215133100748,0.755540500453487
1783696017149295900,0.6182958984375,-0.4470803351551294,-0.41920623980164523,0.46199389971382915
1783696017159259000,0.6282587890625,-0.7693886277377605,-0.3130886288166046,0.19007647205609826
1783696017169223000,0.638222900390625,-1.0748849017292261,-0.2464581018283963,0.06714779232796281
1783696017179187000,0.64818701171875,-1.1482423988848924,-0.08529284962117671,0.007710903170891106
1783696017189150700,0.658150634765625,-1.0458470232933759,0.08247165472060441,-0.009717712948657573
1783696017199113700,0.66811376953125,-0.7723205895364285,0.1846469578206539,-0.10428721722010523
1783696017209078000,0.678078125,-0.4033721263319254,0.37554566951245066,-0.07162318417634815
1783696017219042000,0.6880419921875,-0.10823182666003703,0.46585693181753157,-0.026803689642995593
1783696017229006000,0.698006103515625,0.00180208098590374,0.5134390594646334,0.04191113280598074
1783696017238970000,0.70797021484375,-0.13890402829945087,0.48874242510348553,0.04082479887399822
1783696017248933000,0.71793310546875,-0.3944856400430202,0.5509159726828337,-0.02199278222993016
1783696017258897200,0.727897216796875,-0.650773354229331,0.5468070760592818,-0.02962269258648157
1783696017268861000,0.73786083984375,-0.761824914485216,0.5102104528069495,-0.05302055584136396
1783696017278825000,0.747824951171875,-0.6956167045623064,0.5449328066200018,-0.03216298818644136
1783696017288789000,0.7577890625,-0.5018476981312037,0.6347010480895638,-0.003384418273903429
1783696017298752000,0.767751953125,-0.26033494375050065,0.5599912595421076,0.10723894316516816
1783696017308716000,0.777716064453125,0.02931903346478939,0.4665092582464218,0.2895909219164401
1783696017318680000,0.78768017578125,0.3270189544916153,0.3262701819509268,0.5008408226436004
1783696017328644000,0.79764404296875,0.6411439406186342,0.17957184651345012,0.7069756453793495
1783696017338608000,0.807608154296875,0.821191880211234,-0.024482699349522588,0.8691873378995806
1783696017348571100,0.817571044921875,0.8878618624269962,-0.08144757236987352,0.9692109428584575
1783696017358535200,0.82753515625,0.7755921585530042,-0.23938772505074737,1.076399397945404
1783696017368499000,0.8374990234375,0.4753969135791063,-0.37155718439817426,1.1242165033921598
1783696017378463000,0.847462890625,0.11496025813221931,-0.3338233738094568,1.078939730077982
1783696017388426000,0.857426025390625,-0.22420272313952444,-0.21128975781351328,0.908284180469811
1783696017398390000,0.86739013671875,-0.4452741625159979,-0.04076104945540428,0.7358965463720262
1783696017408354000,0.87735400390625,-0.5296358687669038,0.17719430372714995,0.5809989397248253
1783696017418318000,0.887318115234375,-0.5077022693783044,0.4324988520950079,0.39990485208015886
1783696017428282400,0.897282470703125,-0.5381406622618436,0.6876794818222522,0.29745193761512634
1783696017438245000,0.9072451171875,-0.641851212105155,0.932928207860887,0.23083123790118842
1783696017448209200,0.917209228515625,-0.7626034976422786,1.097132389372587,0.19967110661435872
1783696017458173000,0.9271728515625,-0.8228630282938479,1.1257669477045535,0.220264470375143
1783696017468137000,0.937136962890625,-0.7949275581419467,1.0285831692814826,0.3254819541826844
1783696017478101200,0.947101318359375,-0.6381850908130406,0.8496247784912586,0.4206795272246003
1783696017488064000,0.95706396484375,-0.37671675911843777,0.6732385762766003,0.46192372055444864
1783696017498028000,0.967028076171875,-0.07394961782991885,0.5043690333023667,0.5414577509205788
1783696017507992000,0.976991943359375,0.24390754056274888,0.3863090555891394,0.6485181226484477
1783696017517956400,0.986956298828125,0.40641806989908213,0.23945962124317882,0.7257236004691571
1783696017527919000,0.996919189453125,0.39489772797524925,0.11833645656704903,0.7703421290703117
1783696017537883100,1.006883056640625,0.3941337578654289,0.08513619775474071,0.6916559842377901
1783696017547847000,1.016846923828125,0.3808370539188385,-0.021807050399482247,0.6740790456887334
1783696017557811200,1.026811279296875,0.35985154903531075,-0.11666472396254539,0.6796088419608771
1783696017567775200,1.036775146484375,0.26139585098028184,-0.14728782576322555,0.6519490469451993
1783696017577738000,1.046738037109375,0.11622691706717013,-0.13177315350621938,0.6133639532893895
1783696017587702000,1.056701904296875,0.024830489873886107,-0.08425532326698303,0.5600470448499545
1783696017597666000,1.066666015625,-0.04810790508687496,-0.026788053682446477,0.49053570172842587
1783696017607630300,1.07663037109375,-0.15064298141002655,0.01426847158819437,0.34982666983362287
1783696017617594400,1.086594482421875,-0.21049159317314622,0.04598053766936064,0.15000581601765006
1783696017627557000,1.09655712890625,-0.1763900016069412,0.034334231278300285,-0.0463120894449763
1783696017637521200,1.106521240234375,-0.13232581895291803,0.018986147759854792,-0.2014083604694344
1783696017647485200,1.116485107421875,-0.14956979922056196,0.03969575831145048,-0.30477356747379525
1783696017657449200,1.12644921875,-0.21376374671161175,0.11846066746860742,-0.3820573164287954
1783696017667412000,1.136411865234375,-0.2797872477173805,0.19042466443926095,-0.39398229363076387
1783696017677376000,1.1463759765625,-0.30398528490662574,0.2930789832279086,-0.3479009990006685
1783696017687340300,1.15634033203125,-0.30946167049109935,0.3707619423672557,-0.30622193965120237
1783696017697304300,1.16630419921875,-0.29631577319204805,0.3537684297293424,-0.2914839691214263
1783696017707268400,1.176268310546875,-0.2572498372167349,0.36573739220350976,-0.2605110857686959
1783696017717231000,1.186231201171875,-0.19769757805168628,0.36973493740707636,-0.2820461690926924
1783696017727195100,1.196195068359375,-0.06686112087368964,0.33675270525962114,-0.317018880937621
1783696017737159200,1.2061591796875,0.03536298980414867,0.32718203609883784,-0.3218492967687547
1783696017747123200,1.216123291015625,0.07154021860063076,0.35905104630738494,-0.2924122081485577
1783696017757087200,1.226087158203125,-0.03447860818505287,0.35216654749065635,-0.22618704709084703
1783696017767050000,1.236050048828125,-0.20514906310141084,0.3106730921074748,-0.16135072830934077
1783696017777014300,1.24601416015625,-0.2758423094838858,0.11866671143472193,0.005544007460586726
1783696017786978300,1.255978271484375,-0.23589725258648395,-0.19626345359534025,0.25399503667186946
1783696017796942300,1.2659423828125,-0.07014788745939732,-0.359742827963829,0.2877708303498104
1783696017806906000,1.275906005859375,0.015384031614661215,-0.4382961401969194,0.2618007785193622
1783696017816869400,1.285869384765625,0.01424889010488987,-0.561853546282649,0.2509648751957342
1783696017826833200,1.295833251953125,0.0282335763156414,-0.6436801810979843,0.20448482703901827
1783696017836797200,1.305797119140625,0.0218026664853096,-0.6914519860982894,0.009183642604574561
1783696017846761200,1.31576123046875,0.0704582685828209,-0.5217810636132956,-0.34063301729168743
1783696017856724200,1.32572412109375,0.13954349524676798,-0.3430284245282411,-0.6278853767253458
1783696017866688300,1.335688232421875,0.07221066520810127,-0.22097382422089576,-0.8122518371041864
1783696017876652300,1.34565234375,-0.06599544395506382,0.013606500548124312,-0.9015865825273096
1783696017886616300,1.3556162109375,-0.20791326711773872,0.2707341726899147,-0.9953743618365377
1783696017896580000,1.365580078125,-0.36200726576447484,0.4845259764522314,-0.978011942820996
1783696017906543400,1.37554345703125,-0.493855530333519,0.6527271186456084,-0.8575114400878548
1783696017916507100,1.385507080078125,-0.5314952328979968,0.7828510436400771,-0.7965517983429133
1783696017926471200,1.39547119140625,-0.4892658644556999,0.8061421951174735,-0.7589924675382673
1783696017936435200,1.405435302734375,-0.42423605066239833,0.7556596698537469,-0.7228718642998486
1783696017946398200,1.415398193359375,-0.37809272364675994,0.7204296587795018,-0.6864302124135195
1783696017956362200,1.4253623046875,-0.35240649372637267,0.7481327814802528,-0.7110405567307024
1783696017966326300,1.435326171875,-0.37549569289088247,0.736224024760723,-0.6640807987656444
1783696017976290300,1.445290283203125,-0.35175592086315155,0.7315376205101609,-0.6677225162688643
1783696017986254300,1.45525439453125,-0.2625964589416981,0.7246043141156434,-0.6839294816389679
1783696017996217300,1.46521728515625,-0.22645020980536937,0.6474433330237865,-0.6569369183603674
1783696018006181000,1.47518115234375,-0.1618587874293327,0.5546577895596623,-0.678493501130119
1783696018016145200,1.485145263671875,-0.13039631219506262,0.43675592501759525,-0.6803673321779817
1783696018026109200,1.495109130859375,-0.1035147350102663,0.31337270645499227,-0.6377507910490036
1783696018036073200,1.5050732421875,-0.04133446542918682,0.20064415289759635,-0.5788165176518261
1783696018046036200,1.5150361328125,0.0343424145847559,0.06800093855857849,-0.48019262342303987
1783696018056000300,1.525000244140625,0.13123042493164538,-0.09695815297365189,-0.3805057030726224
1783696018065964300,1.53496435546875,0.29454350282251834,-0.20231296289265155,-0.3485214689865708
1783696018075928300,1.54492822265625,0.49528468635380263,-0.273736277115345,-0.3252870161324739
1783696018085891300,1.554891357421875,0.5319488218843936,-0.3102764940053224,-0.2761777519833296
1783696018095855400,1.56485546875,0.450033339741826,-0.25340251413881776,-0.239601075540483
1783696018105819100,1.574819091796875,0.3601356266736984,-0.13361585876345633,-0.21370317563079297
1783696018115783200,1.584783203125,0.32936405631303783,0.010970306825637816,-0.18490699699632823
1783696018125747200,1.594747314453125,0.320555311435461,0.1574523691639304,-0.1238430180940777
1783696018135710200,1.604710205078125,0.1421878722757101,0.2726137028262019,-0.08664104935973882
1783696018145674200,1.61467431640625,0.004373392778635025,0.447058707845211,-0.14260390573069454
1783696018155638300,1.62463818359375,0.017974632629752157,0.5606184515297412,-0.16898294022083282
1783696018165602300,1.634602294921875,0.09446867424547671,0.6242974352359771,-0.10415507874041795
1783696018175565300,1.6445654296875,0.23243396039009093,0.6262821793124079,-0.0761128602784127
1783696018185529300,1.654529296875,0.37111762393712994,0.5486728699311614,-0.0573589138392359
1783696018195493000,1.6644931640625,0.4402022660791874,0.4763979073151946,-0.02862469452507794
1783696018205457200,1.67445703125,0.37808746294975276,0.39110914934724567,0.010662775246426462
1783696018215421400,1.68442138671875,0.23743980585336683,0.29663755249232054,0.03349003553912044
1783696018225384200,1.69438427734375,0.12244213832020759,0.22227584673017262,0.04002886272333562
1783696018235348500,1.704348388671875,0.1003296752333641,0.07350801154226064,0.041688831824809314
1783696018245312500,1.7143125,0.13060790911912917,-0.1038657404050231,0.05919285126812756
1783696018255276500,1.724276611328125,0.10588555579483508,-0.26631752529144287,0.03732121119983494
1783696018265239300,1.7342392578125,0.10706921262145042,-0.37395723127722735,-0.01834931116104126
1783696018275203600,1.74420361328125,0.14104922363460062,-0.4880319387465715,-0.010739493744447827
1783696018285167400,1.75416748046875,0.13952011437118053,-0.5177569226637483,-0.0007381050162017345
1783696018295131400,1.76413134765625,0.18410042985379696,-0.4909025257468223,-0.033186668678373096
1783696018305095400,1.774095458984375,0.2711135273963213,-0.4610521618843078,-0.08681019538156688
1783696018315058400,1.784058349609375,0.31684593552351,-0.4971253457844257,-0.11747202175743877
1783696018325022500,1.7940224609375,0.39654900231361384,-0.5505699357241391,-0.2304847260184586
1783696018334986500,1.803986572265625,0.4868804306238889,-0.5730488940358162,-0.33259931190721687
1783696018344950500,1.813950439453125,0.45405251225531096,-0.5360422286778688,-0.340028804320842
1783696018354914300,1.823914306640625,0.35226387038528917,-0.43115123687833545,-0.31500476463623345
1783696018364877600,1.833877685546875,0.25904139680862426,-0.29882103401124477,-0.22543547980487344
1783696018374841300,1.84384130859375,0.14925766453146933,-0.18759528623223304,-0.051012394356727594
1783696018384805400,1.853805419921875,0.10726736554205417,-0.1276551967933774,0.13716850974373518
1783696018394769400,1.863769287109375,0.11084463950693607,-0.07957154936492443,0.2204056689441204
1783696018404732400,1.873732421875,0.12615268327593804,-0.04521832112520933,0.27537841829918325
1783696018414696400,1.883696533203125,0.17607962048351763,-0.10090367572903633,0.30323329749554395
1783696018424660500,1.893660400390625,0.15447686048448084,-0.23513825091272592,0.22490341875478623
1783696018434624500,1.90362451171875,0.08429214814603328,-0.33243718014806506,0.06954349182546138
1783696018444588500,1.913588623046875,-0.033521161329746245,-0.3910606340304017,-0.0894370367538184
1783696018454551600,1.923551513671875,-0.15556231763362885,-0.41398762837052344,-0.2814553270600736
1783696018464515300,1.933515380859375,-0.2772550988912582,-0.44539457402527327,-0.42253370372392235
1783696018474479400,1.943479248046875,-0.4090302982240915,-0.43495004463940856,-0.4989298379231244
1783696018484443400,1.953443359375,-0.4898725981771946,-0.38709874466210603,-0.5285814643431455
1783696018494406400,1.963406494140625,-0.5913941135436296,-0.3338774420842528,-0.5334092498257756
1783696018504370400,1.973370361328125,-0.7188543722867965,-0.23244272821843623,-0.5378134030688554
1783696018514334500,1.98333447265625,-0.853686036580801,-0.1493026727169752,-0.5070408097948879
1783696018524298500,1.993298583984375,-1.039805989563465,-0.09716945763677358,-0.4984522104740143
1783696018534262500,2.003262451171875,-1.2040426120400427,-0.12837065158635377,-0.5097258110951632
1783696018544225500,2.0132255859375,-1.297628073710203,-0.27043431296050546,-0.48093971546329556
1783696018554189600,2.023189453125,-1.2773498403131962,-0.449563384142518,-0.45729383226409553
1783696018564153300,2.0331533203125,-1.1559072344243526,-0.5545712803199887,-0.5785841702006757
1783696018574117400,2.043117431640625,-1.0689210248887537,-0.4808744682073593,-0.8309540533561259
1783696018584080400,2.053080322265625,-1.0961579913824797,-0.2707052388563752,-1.1945699964262544
1783696018594044400,2.06304443359375,-1.31805536018908,-0.07320406015962362,-1.5405641388922928
1783696018604008400,2.073008544921875,-1.6662983044952153,0.08280600124150514,-1.7123334949612616
1783696018613972500,2.082972412109375,-1.9101970772296188,0.19697510899603365,-1.62097944560498
1783696018623936500,2.0929365234375,-1.9523533804357052,0.33375615379214285,-1.3325262224815786
1783696018633899500,2.1028994140625,-1.713714720186591,0.4996206697314977,-1.0659706506505608
1783696018643863600,2.112863525390625,-1.2267232304036617,0.6052841072082519,-0.8327307807050645
1783696018653827300,2.122827392578125,-0.7467869198292494,0.6085089144736529,-0.6340948988899588
1783696018663791400,2.132791259765625,-0.43693069706261156,0.564376927280426,-0.565412846199423
1783696018673754400,2.14275439453125,-0.32993221158981323,0.5338666382044553,-0.6202268247961997
1783696018683718400,2.152718505859375,-0.4185585895478725,0.5806435869485139,-0.7113195928677916
1783696018693682400,2.162682373046875,-0.576441459083557,0.6489671815901994,-0.7743928657658398
1783696018703646500,2.172646484375,-0.677428136920929,0.7653530886113643,-0.8075701820939779
1783696018713610500,2.182610595703125,-0.6478934148788452,0.8838847754895687,-0.7487881766490638
1783696018723573500,2.192573486328125,-0.5038081845492124,1.0113415271013975,-0.6158297588810324
1783696018733537500,2.20253759765625,-0.3213935158252716,1.1502993314146994,-0.480208259383589
1783696018743501300,2.212501220703125,-0.23249475066661834,1.2944611341118812,-0.3368890449903905
1783696018753465300,2.22246533203125,-0.1685083084464073,1.4345967500329018,-0.3196436034180224
1783696018763428400,2.232428466796875,-0.0002624503284692764,1.5241899271965027,-0.2927770776718855
1783696018773392400,2.242392333984375,0.20355331834256649,1.4512392572760582,-0.25104206861779094
1783696018783356400,2.2523564453125,0.30471126109361646,1.2828244723320006,-0.238205091137439
1783696018793320400,2.262320556640625,0.28819091892540455,1.094713637793064,-0.2837479680418968
1783696018803284500,2.272284423828125,0.217498841586709,0.923385011228919,-0.3100973380461335
1783696018813247500,2.28224755859375,0.13339257140159605,0.7586655736714601,-0.24441271360591052
1783696018823211500,2.29221142578125,0.13600304616093634,0.6219330441921949,-0.10674538749456405
1783696018833175300,2.30217529296875,0.16864684013426304,0.4607359355419874,0.014341829085350036
1783696018843139300,2.312139404296875,0.18475743245780468,0.33458909748494625,0.08635317232906818
1783696018853102300,2.322102294921875,0.1990162594348192,0.2683580912083387,0.052272185159474606
1783696018863066400,2.33206640625,-0.008061725902557373,0.15705167940855025,-0.008034399504214525
1783696018873030400,2.342030517578125,-0.3617529987424612,0.21262568259239195,-0.2364667230375111
1783696018882994400,2.351994384765625,-0.6874234612345695,0.3232762608319521,-0.5167947996333241
1783696018892958500,2.36195849609375,-0.9158557847678661,0.4183142593979835,-0.7481586465738713
1783696018902921500,2.37192138671875,-0.9527174886971711,0.5668985547125339,-0.9596531331792473
1783696018912885500,2.381885498046875,-0.8443605743527411,0.7089443881690501,-1.1230443908728658
1783696018922849500,2.391849609375,-0.6311059462070465,0.7810556846559047,-1.2489075896829367
1783696018932813300,2.401813232421875,-0.49257951904833314,0.7304150462210178,-1.2100126263603568
1783696018942776300,2.4117763671875,-0.5015975227624178,0.6471475649476051,-1.1053740018866955
1783696018952740400,2.421740234375,-0.6550719282060862,0.6363005922406911,-1.080795660142973
1783696018962704400,2.431704345703125,-0.7873276045322418,0.6459703378617763,-1.0976734374467283
1783696018972668400,2.44166845703125,-0.849431886267662,0.6097147831320763,-1.0976361741762608
1783696018982631400,2.45163134765625,-0.851406985732913,0.6004249767392873,-1.076979243659973
1783696018992595500,2.461595458984375,-0.7817892596274614,0.6214286018013954,-0.9510356000248342
1783696019002559500,2.4715595703125,-0.6523392883718013,0.5846224274516105,-0.8609485749296844
1783696019012523500,2.4815234375,-0.46417233973145483,0.5076899944186211,-0.8619790139559655
1783696019022487300,2.4914873046875,-0.29066870721578597,0.4607786056399345,-0.8185966760862619
1783696019032450600,2.501450439453125,-0.25849954501688477,0.40818975574672217,-0.722114762322232
1783696019042414300,2.511414306640625,-0.35603286752998825,0.41040801631808277,-0.6649047554343939
1783696019052378400,2.52137841796875,-0.43495676664113997,0.5342740499615669,-0.627827216797322
1783696019062342400,2.53134228515625,-0.3717909931540489,0.6282926423519849,-0.5815712231874466
1783696019072305400,2.541305419921875,-0.3068406743377447,0.6168886202841997,-0.4195969196196645
1783696019082269400,2.55126953125,-0.3406149336457252,0.634487989860773,-0.34249782478287816
1783696019092233500,2.5612333984375,-0.34989831029772755,0.7409381938010454,-0.3283591170541942
1783696019102197500,2.571197509765625,-0.4118535389512777,0.7809796968102455,-0.271292610290274
1783696019112161300,2.581161376953125,-0.4347171126663685,0.8091261793643235,-0.14607004747129976
1783696019122124500,2.59112451171875,-0.3954623761206865,0.8152186510205268,-0.06537935788333415
1783696019132088300,2.60108837890625,-0.3494511510521173,0.8110188612431287,0.015454904893785714
1783696019142052400,2.61105224609375,-0.4122364007890224,0.7634545615136623,0.012747034174576401
1783696019152016400,2.621016357421875,-0.4731406590849161,0.7693459576398134,-0.021473872922360897
1783696019161979400,2.6309794921875,-0.4680032961964607,0.785963914963603,-0.04141922110319137
1783696019171943400,2.640943359375,-0.4126888207316398,0.7718202387988566,-0.02351326979547739
1783696019181907500,2.650907470703125,-0.4518038565456867,0.7463315772771835,0.047918666125088924
1783696019191871500,2.66087158203125,-0.42289223483800886,0.8556915311843156,-0.11912314996533095
1783696019201835500,2.67083544921875,-0.5390262129247189,0.8573287769973278,-0.19380217804834246
1783696019211798300,2.68079833984375,-0.8550228381425142,0.9393775301307439,-0.09424867481924593
1783696019221762300,2.69076220703125,-1.0719430030584334,1.1562824974775314,-0.11446984426677226
1783696019231726000,2.70072607421875,-1.006702176862955,1.310567634782195,-0.31766317019052803
1783696019241690000,2.710690185546875,-0.6011871932834386,1.2386667661756277,-0.5074469794429838
1783696019251653000,2.720653076171875,-0.16152385638654232,1.0555880805850029,-0.3916333924170583
1783696019261617200,2.7306171875,0.12600304567217827,0.8057353678822516,-0.3264282220568508
1783696019271581200,2.740581298828125,0.22182255000472068,0.5888426754951477,-0.31741825551874936
1783696019281545200,2.750545166015625,0.1932832687407732,0.42473873948752877,-0.2326910038910806
1783696019291508200,2.76050830078125,0.05882920558750629,0.3308224384278059,-0.15813794027529657
1783696019301472300,2.77047216796875,-0.032440964877605435,0.24694997699856758,-0.1620976376865059
1783696019311436300,2.780436279296875,-0.018327099329233168,0.2180126363277435,-0.2697835939668119
1783696019321400000,2.790400146484375,0.027055180186033246,0.16674012973010538,-0.3952432534772902
1783696019331364000,2.800364013671875,-0.012512860092520712,0.12233166368305683,-0.5294133851226419
1783696019341327000,2.8103271484375,-0.14740063848793505,0.14928279897272587,-0.7224022009614854
1783696019351291100,2.820291015625,-0.35636896761655806,0.2588081725746393,-0.880340161685273
1783696019361255200,2.830255126953125,-0.5282464602351188,0.3748614866405725,-0.9802855868414044
1783696019371219200,2.84021923828125,-0.5316524692863226,0.47213645047843456,-1.0178234364666043
1783696019381182200,2.85018212890625,-0.4492506649315357,0.5286012650221585,-1.03783848888278
1783696019391146200,2.860146240234375,-0.36217326998114585,0.5769815573096275,-1.0769842851612716
1783696019401110300,2.8701103515625,-0.21962240961194038,0.6373585768610238,-1.2038096800670026
1783696019411074000,2.880073974609375,-0.18523381779789924,0.687044106528163,-1.3419861247442662
1783696019421038000,2.8900380859375,-0.26433073538839813,0.7703039890170097,-1.4476049924269319
1783696019431001000,2.9000009765625,-0.34589550439715383,0.8886784395068883,-1.5235019449323415
1783696019440965000,2.909965087890625,-0.3824135094553232,0.9591524901807308,-1.5354760219730437
1783696019450929200,2.91992919921875,-0.4204156155914068,0.9761357736855745,-1.4491434540405868
1783696019460893200,2.92989306640625,-0.43828678784668446,0.9784569101095199,-1.3521766793690622
1783696019470856200,2.939856201171875,-0.43571196892261504,1.0016688588708638,-1.2406900886967778
1783696019480820200,2.9498203125,-0.49443596056997774,0.9885983648955822,-1.1558024588756262
1783696019490784300,2.9597841796875,-0.5300000259041786,0.9634960723429917,-1.0899661510050296
1783696019500748000,2.969748046875,-0.5639075562030077,0.9392892673254013,-1.007465270189941
1783696019510712000,2.979712158203125,-0.5639730226546525,0.9222709125071763,-0.9567468903437256
1783696019520675000,2.989675048828125,-0.4832651627361774,0.8900824610859155,-1.0140076775707303
1783696019530639000,2.99963916015625,-0.4296306031823158,0.8834516447693109,-1.1398910423859954
1783696019540603100,3.00960302734375,-0.46185412591695785,0.8559113114148378,-1.3169181728526949
1783696019550567200,3.019567138671875,-0.6207564016282558,0.87123747536242,-1.476134190688282
1783696019560530200,3.0295302734375,-0.8196154246747493,0.9171247817903757,-1.5549619359485805
1783696019570494200,3.039494140625,-1.1182803913414479,0.9841554140120744,-1.5022887687727808
1783696019580458200,3.049458251953125,-1.361357326298952,1.0637392383366822,-1.4335532323293387
1783696019590422300,3.05942236328125,-1.422276197642088,1.0665537112355232,-1.3541251830883323
1783696019600386000,3.069385986328125,-1.3350994339704512,1.076744265860319,-1.2592414983011782
1783696019610349000,3.07934912109375,-1.1640987241864205,0.9319821591824292,-1.067485585258156
1783696019620313000,3.08931298828125,-1.1008809282511471,0.7831547027617692,-0.8821540061742067
1783696019630277000,3.099277099609375,-1.0242495239913463,0.7356605456590652,-0.7222981560651213
1783696019640241200,3.1092412109375,-1.0278630383133887,0.607840805953741,-0.6201316938586533
1783696019650204200,3.1192041015625,-1.1017220552504061,0.5761117887377739,-0.44574265681058167
1783696019660168200,3.129168212890625,-1.079888993626833,0.5616793587595224,-0.34561668745577334
1783696019670132200,3.13913232421875,-1.0249433514744042,0.4772188683092594,-0.28224567372016607
1783696019680096300,3.14909619140625,-0.960772784858942,0.33209201997220517,-0.2820749202631414
1783696019690059300,3.159059326171875,-0.8227075454711914,0.2354056696772575,-0.2926178685221821
1783696019700023300,3.169023193359375,-0.7472633051693439,0.16960428698956964,-0.3760391521178186
1783696019709987000,3.178987060546875,-0.6396721145004034,0.17041384980678556,-0.5151202905498444
1783696019719951000,3.188951171875,-0.5912561663776635,0.17550737355351448,-0.5594844059985131
1783696019729915100,3.1989150390625,-0.7190794132143259,0.17981646892428396,-0.559789014968276
1783696019739878100,3.208878173828125,-0.847270324319601,0.30375849041342734,-0.5461273501668125
1783696019749842200,3.21884228515625,-0.9176549431443214,0.3712240069210529,-0.5293771447654814
1783696019759806200,3.22880615234375,-0.856824919128418,0.45762218743562694,-0.5066859319426119
1783696019769770200,3.238770263671875,-0.653100920394063,0.5093646496325731,-0.48153358970321714
1783696019779733200,3.248733154296875,-0.3607534663110971,0.5064893864572048,-0.41358270083144305
1783696019789697300,3.258697265625,-0.041295886984467504,0.5135597632348538,-0.3449750285513699
1783696019799661000,3.2686611328125,0.08975450520515442,0.5116501302212476,-0.3000669424191117
1783696019809625000,3.278625,0.13993395586907864,0.5627063637197017,-0.220181650929898
1783696019819589000,3.288589111328125,0.10894260527789593,0.6229506968021392,-0.09316723625808954
1783696019829552000,3.29855224609375,0.04384849407672882,0.6793313401937484,0.026550956990942357
1783696019839516200,3.30851611328125,-0.08934417083859443,0.6873521495640278,0.12477291935533284
1783696019849480200,3.318480224609375,-0.19608137502670286,0.6611357582896947,0.2245067475873977
1783696019859444200,3.3284443359375,-0.2238029101669788,0.6087982528090476,0.31294191382229325
1783696019869407200,3.3384072265625,-0.2572702954828739,0.5295008442103862,0.3670112845968455
1783696019879371300,3.348371337890625,-0.3619862229764461,0.49205520291328425,0.429947779372707
1783696019889335000,3.3583349609375,-0.4848550622761249,0.45300738711655136,0.4840854661431163
1783696019899299000,3.368299072265625,-0.4847352352887392,0.4441168091744184,0.4589403573621064
1783696019909263000,3.37826318359375,-0.43070203180611133,0.37690263707935806,0.4961795163016766
1783696019919226000,3.38822607421875,-0.34148587126135826,0.260921803727746,0.48847171840332443
1783696019929190100,3.398190185546875,-0.19220073420107364,0.17786124320328234,0.40340507875345644
1783696019939154200,3.408154296875,-0.019895371559262274,0.1279845748782158,0.321607158575952
1783696019949118200,3.4181181640625,0.14339257189035415,0.05371931522786617,0.31394451499357817
1783696019959081200,3.428081298828125,0.27751111947894097,-0.08120178091526031,0.33704036309458313
1783696019969045200,3.438045166015625,0.3840349731773138,-0.18657471101284026,0.39067221923470496
1783696019979009000,3.448009033203125,0.4160802167356014,-0.22419220174551008,0.4105066543869674
1783696019988973000,3.45797314453125,0.2866553799211979,-0.263034850358963,0.5108997502453625
1783696019998936000,3.46793603515625,0.11536650084555149,-0.3083230218499899,0.48996305293962356
1783696020008900000,3.477900146484375,0.07685644518733024,-0.366932447206974,0.4571235902637243
1783696020018864000,3.487864013671875,0.08429507075548172,-0.524102200037241,0.4895049339085817
1783696020028828200,3.497828125,0.12514789014756678,-0.6228899065256118,0.4125847027700394
1783696020038792200,3.507792236328125,0.21275603097379206,-0.6336605991259217,0.32606428411528465
1783696020048755200,3.517755126953125,0.14322832123935222,-0.6565855476394296,0.3360588777765631
1783696020058719200,3.52771923828125,0.02732172216773033,-0.5602788443118334,0.3246021756734699
1783696020068683300,3.537683349609375,-0.15096446844935416,-0.48950727199614047,0.29046807007715103
1783696020078647000,3.54764697265625,-0.29203415035009384,-0.41227760958224535,0.29727694637440144
1783696020088610000,3.557610107421875,-0.3859907834202051,-0.3309171309739351,0.2703925196453929
1783696020098574000,3.567573974609375,-0.4113011657655239,-0.3076204265385866,0.20336429857648908
1783696020108538000,3.5775380859375,-0.36689620684981344,-0.3468129115030169,0.11525156922899187
1783696020118502100,3.587502197265625,-0.32466274675428863,-0.40229368344545363,0.00184117088727653
1783696020128466200,3.597466064453125,-0.3567407235383987,-0.4849459554299712,-0.0853507903534919
1783696020138429200,3.60742919921875,-0.5097855053931475,-0.6035460313692689,-0.07703070577569306
1783696020148393200,3.617393310546875,-0.6988467725247144,-0.7329951258420944,0.012636486472189425
1783696020158357200,3.627357177734375,-0.7579279070466757,-0.7799062223598361,0.085063863170892
1783696020168321000,3.637321044921875,-0.795893188303709,-0.8909583671376109,-0.002612958977371454
1783696020178284300,3.6472841796875,-0.7182301029086112,-0.8305144198298454,-0.12440773930475114
1783696020188248000,3.657248046875,-0.5949374852389097,-0.7555781290501355,-0.25087957153245805
1783696020198212000,3.667212158203125,-0.538531707406044,-0.7285381464332342,-0.4300380880046636
1783696020208176000,3.677176025390625,-0.4350146343082189,-0.5242436543345451,-0.5824316394090652
1783696020218138600,3.687138671875,-0.4741214868158102,-0.34683073942065235,-0.6683065997671336
1783696020228102700,3.6971025390625,-0.5260533341050148,-0.037945407512784,-0.6440506218455732
1783696020238066700,3.707066650390625,-0.5075906256973743,0.2750806774616241,-0.5876333727706223
1783696020248030700,3.71703076171875,-0.4309644821345806,0.48644028564095493,-0.4132501809414476
1783696020257994800,3.726994873046875,-0.20536241359114646,0.61890229819417,-0.15145100985728202
1783696020267957800,3.736957763671875,0.06364098978340625,0.6559586479127407,0.06809767693132161
1783696020277921800,3.746921875,0.29065175608098504,0.6490250492572784,0.267295941869542
1783696020287885600,3.756885498046875,0.541702154135704,0.6167728849500418,0.33518742870427665
1783696020297849600,3.766849609375,0.638370968773961,0.5797492684572935,0.33436106088273226
1783696020307812600,3.7768125,0.5118728330612182,0.56183308801651,0.2713346228010952
1783696020317776600,3.786776611328125,0.29416005646288396,0.6550567306369542,0.12285846403613686
1783696020327740700,3.79674072265625,0.05411036037206649,0.7601970210224389,-0.02862922456972301
1783696020337704700,3.80670458984375,-0.21684885324537753,0.8357149110823869,-0.07149564880654215
1783696020347668700,3.816668701171875,-0.33243630336523056,0.9509539861559867,-0.042481881898641584
1783696020357631700,3.8266318359375,-0.37186990360915656,0.9779372701495885,0.0748768156774342
1783696020367595800,3.836595703125,-0.24735271258056163,0.9377133963108062,0.22595877302661538
1783696020377559600,3.8465595703125,0.05623918909430504,0.8432967445135116,0.34077158551216125
1783696020387523600,3.856523681640625,0.38186230531334875,0.6453969218879938,0.4672863800987601
1783696020397486600,3.866486572265625,0.5917623623341322,0.4063338987469673,0.637482349371165
1783696020407450600,3.87645068359375,0.6142419051676988,0.1991302412033081,0.753474215573445
1783696020417414700,3.88641455078125,0.4554863444507122,0.025914193457365033,0.7724589020285755
1783696020427378700,3.896378662109375,0.29271745643913744,-0.10054594833254814,0.7272764559343456
1783696020437341700,3.906341796875,0.22099135987758636,-0.21588556117117402,0.7030543072171509
1783696020447305700,3.9163056640625,0.1988689599186182,-0.31188334468007084,0.6895504633259028
1783696020457269800,3.926269775390625,0.17983400458097457,-0.3313923472702503,0.6276052446097136
1783696020467233500,3.936233642578125,0.17258534862697122,-0.2458025605291128,0.5687592340178788
1783696020477197600,3.946197509765625,0.14881576598286628,-0.11429624126553535,0.5442122372604906
1783696020487160600,3.95616064453125,0.16244915453791617,0.060088265737891194,0.54099513837751
1783696020497124600,3.96612451171875,0.1147077446758747,0.19857377636432647,0.5580765484945849
1783696020507088600,3.976088623046875,0.09662848262786865,0.30291736341416836,0.5166076430307701
1783696020517052700,3.986052734375,0.07118599833548069,0.36249592606425285,0.4399874542847276
1783696020527015700,3.996015625,-0.003908113354444504,0.34585867951810356,0.40987843948602676
1783696020536979700,4.005979736328125,-0.029183424386382103,0.34358138223588464,0.3733215637221932
1783696020546943700,4.01594384765625,0.0925087723493576,0.35351474722921844,0.2943256588207558
1783696020556907800,4.02590771484375,0.22091712559759616,0.26258418398201466,0.3288989595519379
1783696020566871600,4.03587158203125,0.29008301628232,0.15428396826088428,0.4077645526045933
1783696020576834600,4.04583447265625,0.28081249911189077,0.12780395761430263,0.46401320364698767
1783696020586798600,4.055798583984375,0.2621323485612869,0.13714111028015613,0.48285256334729487
1783696020596762600,4.0657626953125,0.283548061555624,0.10038462029099464,0.49667066081948574
1783696020606726700,4.0757265625,0.31768355539143084,0.04469137464165687,0.5238181954640895
1783696020616689700,4.085689697265625,0.3804138600707054,-0.009693711018562316,0.5313675879303366
1783696020626653700,4.09565380859375,0.4651812245130539,-0.05848258410692215,0.598931815572083
1783696020636617700,4.10561767578125,0.5960246959537268,-0.1082721586704254,0.6324174671970307
1783696020646581800,4.115581787109375,0.6223936474412679,-0.20018238060474394,0.647908612447977
1783696020656545500,4.125545654296875,0.6028121641367673,-0.24009470427632332,0.6238298177242279
1783696020666508800,4.1355087890625,0.44690088693499563,-0.25819676267802716,0.5552542941480875
1783696020676472600,4.14547265625,0.2671832022100687,-0.3276426393479109,0.47069100091047583
1783696020686436600,4.1554365234375,0.08031856833994389,-0.35772447387874123,0.36964046405665574
1783696020696400600,4.165400634765625,-0.05240063384473324,-0.36275194665193555,0.28167225774638355
1783696020706363600,4.17536376953125,-0.17716390858888625,-0.402658425104618,0.23412227880321443
1783696020716327700,4.18532763671875,-0.2456459086626768,-0.4596078082948923,0.2316865030236542
1783696020726291700,4.195291748046875,-0.24338731608092784,-0.47167526270747184,0.20742336470894515
1783696020736255700,4.205255859375,-0.28461656756997106,-0.43341479789614673,0.16737711245939135
1783696020746218800,4.21521875,-0.2610129891425371,-0.35350510261803864,0.16856084235124288
1783696020756182800,4.225182861328125,-0.2179571067482233,-0.2911366169884801,0.2038140881706029
1783696020766146600,4.235146484375,-0.1761065084904432,-0.22979659762382507,0.2372228751670569
1783696020776110600,4.245110595703125,-0.1118190374970436,-0.17208850502073764,0.24215273278467356
1783696020786074600,4.25507470703125,-0.16191139439940452,-0.17597499106526374,0.20758958812132478
1783696020796037600,4.26503759765625,-0.23914368716180323,-0.16647534131407737,0.26173100121878085
1783696020806001700,4.275001708984375,-0.3091460286706686,-0.10078618682920933,0.3381657138627022
1783696020815965700,4.284965576171875,-0.39797815833389755,-0.09588730887174605,0.3741722622673958
1783696020825929700,4.2949296875,-0.37644378739595413,-0.037950668209791184,0.33629867788180706
1783696020835892700,4.304892822265625,-0.27284429671168325,0.05468143825829029,0.26957404286935926
1783696020845856800,4.314856689453125,-0.0937415290147066,0.033114918616414066,0.25292685945108534
1783696020855820500,4.324820556640625,0.015024550652503967,-0.06117255384325981,0.25577406557574867
1783696020865784600,4.33478466796875,0.0821913764744997,-0.13635083668529988,0.3065039897292852
1783696020875748600,4.34474853515625,0.09869769011735915,-0.26790216413438317,0.4321908821243792
1783696020885711600,4.354711669921875,0.08667641293406486,-0.47078562039136884,0.581642388727516
1783696020895675600,4.364675537109375,0.08458031743764877,-0.6408633701115847,0.5790107250496744
1783696020905639700,4.3746396484375,0.04007423623502254,-0.7050275069862604,0.41849136953055854
1783696020915603700,4.384603759765625,-0.05491466249227524,-0.725793231639266,0.2788171605762094
1783696020925566700,4.394566650390625,-0.1612140597850084,-0.7171370469748973,0.1796761836707592
1783696020935530800,4.40453076171875,-0.1907563806116581,-0.6849772371262312,0.1094474129948765
1783696020945494500,4.41449462890625,-0.18090543320477007,-0.6378542514234781,-0.053858577568084
1783696020955458600,4.42445849609375,-0.21834756737053393,-0.5686947904795407,-0.1959567987989634
1783696020965421600,4.434421630859375,-0.25899755766689775,-0.4820324060708284,-0.22074483777061105
1783696020975385600,4.444385498046875,-0.32141689670085904,-0.43378480025231836,-0.14561572783254087
1783696020985349600,4.454349609375,-0.3886906900286674,-0.39679391698539257,-0.09008950931318103
1783696020995313700,4.464313720703125,-0.41382630032896994,-0.381115870860219,-0.07101312598660588
1783696021005277700,4.474277587890625,-0.42078795603513713,-0.3517518292099237,-0.08298084635175763
1783696021015240700,4.48424072265625,-0.3798024501740932,-0.31156185764074323,-0.1287858813237399
1783696021025204700,4.494204833984375,-0.3251420547038317,-0.24951778165996072,-0.2003642399776727
1783696021035168800,4.504168701171875,-0.24472820929586886,-0.11066226867735385,-0.2902908138141036
1783696021045132500,4.514132568359375,-0.1794710164874792,0.07127601470649242,-0.40206367408186194
1783696021055095600,4.524095458984375,-0.18367431339621543,0.20874737985432146,-0.47163982606790955
1783696021065059600,4.5340595703125,-0.2773568057000637,0.393363358014822,-0.5945701862964778
1783696021075023600,4.544023681640625,-0.39269408045113086,0.6014198329955339,-0.6890721782896667
1783696021084987600,4.553987548828125,-0.45221945160925386,0.7864788787484168,-0.7325757313862442
1783696021094950700,4.56395068359375,-0.43487259548902507,0.968792425185442,-0.7423051713053137
1783696021104914700,4.573914794921875,-0.3763233758866787,1.0870254213780164,-0.7448386353056877
1783696021114878700,4.583878662109375,-0.32911621903181076,1.127692362809181,-0.7524609468776732
1783696021124842800,4.5938427734375,-0.21585575055480002,1.1727590005040167,-0.7974479434650391
1783696021134806500,4.603806640625,-0.0030897827088832855,1.121051609620452,-0.8410698622442782
1783696021144769800,4.613769775390625,0.20036416691243647,0.9780909994065761,-0.7678522850159555
1783696021154733600,4.623733642578125,0.4090940111100673,0.8204197267949581,-0.7196887042190879
1783696021164697600,4.633697509765625,0.5755266823261976,0.6566641658335923,-0.6653517685495317
1783696021174661600,4.64366162109375,0.6833242092221975,0.519025627425313,-0.6069801705364137
1783696021184624600,4.653624755859375,0.7867115184605121,0.36185879720449443,-0.5377507130961865
1783696021194588700,4.663588623046875,0.8742506857037544,0.18069208271503448,-0.4618997916895896
1783696021204552700,4.673552734375,0.9797937116712331,0.03421089715957641,-0.4245661593995988
1783696021214517000,4.68351708984375,1.1249953788101672,-0.07012041493058205,-0.40388460589870806
1783696021224480800,4.693480712890625,1.262332888445258,-0.17523966252803802,-0.39128319073989987
1783696021234443800,4.70344384765625,1.3066168513298033,-0.2157557973116636,-0.4006689317878335
1783696021244407800,4.71340771484375,1.2456295909255741,-0.1784036795169115,-0.41980033323727545
1783696021254371800,4.723371826171875,1.1405968525677919,-0.12835516175627706,-0.43294834942817684
1783696021264336000,4.7333359375,1.058163484030962,-0.08414484862983226,-0.4759459257639944
1783696021274299000,4.743298828125,0.9402887997567653,-0.06574117693305015,-0.543927136708796
1783696021284263000,4.753262939453125,0.8038549609631299,-0.08116670960187912,-0.6216233937211334
1783696021294227000,4.76322705078125,0.5782698435544967,-0.06282032105028629,-0.6494362604066729
1783696021304191000,4.77319091796875,0.3707786012411117,-0.07471066533029079,-0.6786541715845466
1783696021314154000,4.783154052734375,0.14891221209466457,-0.09376754023879766,-0.641947585151717
1783696021324118000,4.793117919921875,-0.1251034664839506,-0.11542436851263045,-0.5899122044228017
1783696021334081800,4.803081787109375,-0.29837738189697266,-0.12946458430290222,-0.5624341226495803
1783696021344045800,4.8130458984375,-0.3589274199277162,-0.18570844957232474,-0.5224003645554185
1783696021354009900,4.823009765625,-0.35878421206474304,-0.2551417590215802,-0.42423553920574486
1783696021363972900,4.832972900390625,-0.3439987308651209,-0.2948120906308293,-0.312956380739063
1783696021373937000,4.84293701171875,-0.2958791353404522,-0.34525691423267124,-0.28663046467565
1783696021383901000,4.85290087890625,-0.16843173607885836,-0.45366672780811784,-0.295124590646103
1783696021393865000,4.862864990234375,-0.05496493137478828,-0.6031415422216058,-0.3494772353414446
1783696021403828000,4.872827880859375,-0.0035229134291410442,-0.7026251220196486,-0.45297896473966537
1783696021413792000,4.8827919921875,-0.032898645517230034,-0.7881815910130738,-0.5747416694283485
1783696021423755800,4.892755859375,-0.11846154425144195,-0.7904562579467892,-0.6925545405127108
1783696021433719800,4.9027197265625,-0.2788163568586111,-0.8105065278068184,-0.7844926003020256
1783696021443682800,4.912682861328125,-0.3661281450867653,-0.8153761796697974,-0.8472951664999127
1783696021453646800,4.922646728515625,-0.33647885675430295,-0.742606127013266,-0.8914101294931024
1783696021463611000,4.93261083984375,-0.2682628141403198,-0.6741901779130101,-0.8251009434137493
1783696021473575000,4.942574951171875,-0.18514964664578437,-0.5883610294580459,-0.7419262549903244
1783696021483539000,4.9525390625,-0.10086685084998608,-0.48875996076017614,-0.6958856576967984
1783696021493502000,4.962501953125,-0.056068508702516555,-0.3936471433922648,-0.6071699940200894
1783696021503466000,4.972466064453125,-0.06068623163104057,-0.2644397487208247,-0.5078459156326949
1783696021513429800,4.9824296875,-0.1554723012626171,-0.15328648165613412,-0.3932453576583415
1783696021523393800,4.992393798828125,-0.2787988212019205,-0.058228317084908485,-0.38564839972332116
1783696021533356800,5.002356689453125,-0.37272681269943714,0.021751520819962022,-0.38968437724113464
1783696021543320800,5.01232080078125,-0.5057476281791925,0.04053425496220588,-0.39161527223847803
1783696021553284900,5.022284912109375,-0.6834235779434442,0.02302957793176174,-0.39671982883587475
1783696021563249000,5.032248779296875,-0.8418138124793767,-0.010250468118488789,-0.3916545082703233
1783696021573213000,5.042212890625,-0.840293471044302,-0.05458820701688528,-0.38025771966092287
1783696021583176000,5.052176025390625,-0.7641764460474252,-0.16839491119980812,-0.29649463689029215
1783696021593140000,5.062139892578125,-0.6151508367061614,-0.3523819438070059,-0.1548857335463166
1783696021603104000,5.07210400390625,-0.4161673104971647,-0.48067631528675553,-0.10572532373182475
1783696021613067800,5.08206787109375,-0.2985802109926939,-0.5344549594864249,-0.10114690990038215
1783696021623030800,5.09203076171875,-0.3805103061825037,-0.6008785657256841,-0.12993658572882413
1783696021632994800,5.101994873046875,-0.5573404527723789,-0.5741162310063839,-0.21027816961817442
1783696021642958800,5.111958740234375,-0.78408584613204,-0.47791211127042765,-0.25839615770764646
1783696021652923000,5.1219228515625,-1.0125076482713222,-0.40910745511353014,-0.23852613978534937
1783696021662886000,5.131885986328125,-1.1536363668829202,-0.25320728382766244,-0.2398942132681608
1783696021672850000,5.141849853515625,-1.1422411126434802,-0.14812310754358768,-0.18969708081707357
1783696021682814000,5.15181396484375,-0.9530196865141392,-0.0917418796300888,-0.058131651777401566
1783696021692778000,5.161778076171875,-0.6266799464583397,-0.10069617045819759,0.15050861444063485
1783696021702741000,5.171740966796875,-0.3000041063159704,-0.1717190871864557,0.3651173606090247
1783696021712705000,5.181705078125,-0.04098901299238205,-0.14730477689802646,0.4661893786422908
1783696021722668800,5.191668701171875,0.07103402264416217,-0.14977087475061415,0.4646562507908791
1783696021732632800,5.2016328125,-0.020064882907271386,-0.18036533497869967,0.34317309369593857
1783696021742596900,5.211596923828125,-0.2481213588654995,-0.15031038845479489,0.20485022628530858
1783696021752559900,5.221559814453125,-0.42889293655753136,-0.023914544072747228,0.10217698360048234
1783696021762524000,5.23152392578125,-0.514545851662755,0.1583785440981388,0.05796820484399795
1783696021772488000,5.241488037109375,-0.467532756075263,0.33318273781836033,0.005434300008416175
1783696021782452000,5.251451904296875,-0.3775280755013227,0.4687129057705402,-0.04363872378356755
1783696021792415000,5.2614150390625,-0.2448796004652977,0.5956178687185049,-0.05428359804712236
1783696021802379000,5.27137890625,-0.07471534150540829,0.7375473823189735,-0.05386361906938254
1783696021812342800,5.2813427734375,0.11580430774092673,0.7619231141626834,0.00392820629440248
1783696021822306800,5.291306884765625,0.3230710936486721,0.6932716027408838,0.08528276661857963
1783696021832270800,5.301270751953125,0.5384703326076269,0.6281506035327911,0.1765302137952298
1783696021842233900,5.31123388671875,0.7187111644238233,0.5131096813797951,0.31280623167864974
1783696021852198000,5.321197998046875,0.923884777444601,0.38792262826561924,0.41272732611112295
1783696021862162000,5.331161865234375,1.1248574316442013,0.24657997464239595,0.5050763778541237
1783696021872126000,5.3411259765625,1.3008289155781267,0.03749591017961502,0.6586497136276215
1783696021882089000,5.3510888671875,1.3613549882113933,-0.1206727905601263,0.8366087911821901
1783696021892053000,5.361052978515625,1.3548229560941456,-0.1818237170934677,0.96218681637533
1783696021902016800,5.371016845703125,1.1956640752732752,-0.24143910462260246,1.1509641519989817
1783696021911980800,5.380980712890625,0.9434685988366603,-0.3057598933637142,1.4270068794257937
1783696021921943800,5.39094384765625,0.6685714612483978,-0.178389650991559,1.3675205251038074
1783696021931907800,5.400907958984375,0.41244098345041275,-0.09307809666991233,1.2904361163794993
1783696021941871900,5.410871826171875,0.2522410691440105,0.03548047870397567,1.0425377526149153
1783696021951836000,5.4208359375,0.12448562684655189,0.19207272390723226,0.75795713314116
1783696021961799000,5.430798828125,-0.013306056296825408,0.3280255011856556,0.5657788299676031
1783696021971763000,5.440762939453125,-0.15055588764846323,0.4992611887693405,0.43921610458604987
1783696021981727000,5.45072705078125,-0.29954993280768394,0.6490700574427842,0.32853812688291073
1783696021991690800,5.460690673828125,-0.39559564711153505,0.756366064557433,0.22157982729002831
1783696022001654800,5.47065478515625,-0.4101818063467741,0.8368482990264892,0.16275843968279657
1783696022011617800,5.48061767578125,-0.425448933583498,0.799897163248062,0.16984386789910494
1783696022021581800,5.490581787109375,-0.3872574423551559,0.719739338427782,0.16931955176405608
1783696022031545900,5.5005458984375,-0.31154432198405263,0.578856703531742,0.1386903124835342
1783696022041510000,5.510510009765625,-0.19648586417436598,0.42956630577445026,0.09020612143017351
1783696022051473000,5.520472900390625,-0.0035468788266181943,0.31928923702239986,0.07291559860706329
1783696022061437000,5.53043701171875,0.20773323437571525,0.1846124710291624,0.15088862673416734
1783696022071401000,5.54040087890625,0.38907413638830185,0.07766600800454616,0.2599532509565353
1783696022081365000,5.550364990234375,0.6169856509178877,0.08185527638792992,0.3615050883959979
1783696022091328000,5.560327880859375,0.8246370522290468,0.08321253621578216,0.4051611286405474
1783696022101291800,5.570291748046875,0.9902110607892274,0.0013636895686388016,0.4207275310847908
1783696022111255800,5.580255859375,1.03632808431983,-0.07262976740300654,0.3818376823287457
1783696022121219800,5.5902197265625,0.991606899061799,-0.14629238498508929,0.2800775359008461
1783696022131183900,5.600183837890625,0.8012018161058425,-0.21950901236534118,0.180715828916803
1783696022141147000,5.61014697265625,0.598625818362832,-0.16264730745851994,0.14698467809818686
1783696022151111000,5.62011083984375,0.37695524404942987,-0.14025193577706813,0.11840192301869391
1783696022161075000,5.630074951171875,0.21849369784295558,-0.1277875910013914,0.13939948366619645
1783696022171039000,5.6400390625,0.07876257106959819,-0.11902794596254825,0.13383125507980584
1783696022181002000,5.650001953125,-0.017954758885502815,-0.09759878896474837,0.07968765002526343
1783696022190966000,5.659966064453125,-0.05850596498250961,-0.07717033344209194,0.016511501274630427
1783696022200929800,5.6699296875,-0.12553659720420837,-0.07302958037555217,-0.02140665290504694
1783696022210893800,5.679893798828125,-0.15380524483323096,-0.03829436708092689,-0.10497786636538803
1783696022220856300,5.689856201171875,-0.18884557855427264,-0.07281096918880939,-0.13877543348371982
1783696022230820400,5.6998203125,-0.15026421122550965,-0.075655837225914,-0.12461407553181052
1783696022240784400,5.709784423828125,-0.14444646485745907,-0.06827449480295181,-0.1149999690880999
1783696022250748400,5.71974853515625,-0.1792050590276718,-0.08623685247302054,-0.08028682149481028
1783696022260712400,5.72971240234375,-0.2548036131083965,-0.08440320730507374,-0.05488843207247555
1783696022270675500,5.739675537109375,-0.2620926010727882,-0.041947628891468046,-0.1288982556570321
1783696022280639500,5.749639404296875,-0.20883564265966414,-0.011389409020543098,-0.1759355358377099
1783696022290603500,5.759603515625,-0.11509528268873691,-0.018839725026488303,-0.1357719042861834
1783696022300567300,5.7695673828125,-0.12687515233159063,-0.12372808647751807,0.006940941711701452
1783696022310530300,5.7795302734375,-0.14909750553369522,-0.33562077862024303,0.2213081342091784
1783696022320494300,5.789494384765625,-0.1522083310306072,-0.6375152287274599,0.4891135234382003
1783696022330458400,5.799458251953125,-0.12422025390863418,-0.8076724734246731,0.5873377873575315
1783696022340422400,5.80942236328125,-0.1024777931779623,-0.833053582918644,0.45643257579226043
1783696022350385400,5.819385498046875,-0.15929273633360863,-0.8283318150937556,0.2699992825441062
1783696022360349400,5.829349365234375,-0.24059271692633627,-0.830513250786066,0.13589436162207275
1783696022370313500,5.8393134765625,-0.3677525314182043,-0.8514286130428314,0.022643062832206486
1783696022380277500,5.849277587890625,-0.5213204603642225,-0.7804705782443284,-0.12941829747576267
1783696022390241300,5.8592412109375,-0.6558534339725971,-0.6162836401283741,-0.2549820384152233
1783696022400204500,5.86920458984375,-0.6747440124034881,-0.42519642012715336,-0.3091859953548759
1783696022410168300,5.879168212890625,-0.5153250193417072,-0.24241934783160685,-0.33025165280252694
1783696022420132400,5.88913232421875,-0.27370822006464,-0.08925240090191364,-0.2832537547841668
1783696022430096400,5.899096435546875,-0.16106851383447646,0.035593291428685184,-0.316303572275117
1783696022440059400,5.909059326171875,-0.1757031883865595,0.18062778530716894,-0.5083261003650724
1783696022450023400,5.9190234375,-0.31761282824277876,0.322032398250699,-0.7346143976069986
1783696022459987500,5.928987548828125,-0.5222469275593757,0.4521937326461076,-0.9367547804117202
1783696022469951500,5.938951416015625,-0.6887684461027384,0.6460942565023898,-1.1167835769124328
1783696022479914500,5.94891455078125,-0.8762064959466457,0.8163029391258955,-1.1585965465735644
1783696022489878500,5.95887841796875,-0.9814806418448686,0.9473378414854406,-1.12626064950563
1783696022499842300,5.96884228515625,-0.9964029011666774,1.1001774561569093,-1.123697009562701
1783696022509806300,5.978806396484375,-0.9512012389153242,1.2351175492614508,-1.137750523225963
1783696022519769300,5.988769287109375,-0.8413859424561262,1.2941706267327069,-1.1299340042561292
1783696022529733400,5.9987333984375,-0.6520026037633418,1.2398854943156241,-1.1109892844852058
1783696022539697400,6.008697509765625,-0.36674773828983304,1.0834534081101417,-1.1309303948823362
1783696022549661400,6.018661376953125,-0.09230477420985699,0.8971528378635645,-1.1599534410752355
1783696022559625500,6.02862548828125,0.11245616635680197,0.7121522442996502,-1.1760744817275552
1783696022569588500,6.03858837890625,0.2492348730653524,0.5636772545784712,-1.1842822650372982
1783696022579552500,6.048552490234375,0.292127089330554,0.41003099969923495,-1.133852273678407
1783696022589516300,6.058516357421875,0.30488194148540493,0.2901327006429434,-1.1796743328504264
1783696022599480300,6.068480224609375,0.299120893740654,0.21229893485605716,-1.0575164182990788
1783696022609443300,6.078443359375,0.2890098340928554,0.19036124381422995,-0.9570107289116829
1783696022619407400,6.088407470703125,0.31163083122372626,0.24111177236437797,-0.9440841003865003
1783696022629371400,6.098371337890625,0.37015433186292646,0.26755203552246093,-0.8899261745456606
1783696022639335400,6.10833544921875,0.4241068713247776,0.27837504283189773,-0.7742691663209349
1783696022649298400,6.11829833984375,0.42191082258522505,0.3076613430708647,-0.7086607489220798
1783696022659262500,6.128262451171875,0.3886567877590656,0.3616027766168117,-0.6621137364763766
1783696022669226500,6.1382265625,0.3556517592579126,0.3800152161419391,-0.6415294328048825
1783696022679190300,6.148190185546875,0.3162029614448547,0.39909021122902627,-0.5856080774880945
1783696022689154300,6.158154296875,0.2917991725504398,0.4128764522582292,-0.5315955514673143
1783696022699117300,6.168117431640625,0.2632780114650726,0.39048108057677744,-0.4438350696235895
1783696022709081300,6.178081298828125,0.15295067383050917,0.3596124795824289,-0.3747742467485368
1783696022719045400,6.18804541015625,0.04971300219595432,0.32622195889502764,-0.33613391577415164
1783696022729009400,6.198009521484375,-0.0603232435375452,0.2753378670930862,-0.30956622684411705
1783696022738972400,6.207972412109375,-0.12123276253044604,0.2205561833307147,-0.2742068903017789
1783696022748936400,6.2179365234375,-0.15984803212881088,0.1531444428369403,-0.24900603274554012
1783696022758900500,6.227900390625,-0.16545827322602272,0.08739479033648967,-0.2473802581746131
1783696022768864500,6.237864501953125,-0.10639233627319335,0.037329321441054344,-0.25759338995739817
1783696022778827500,6.24782763671875,-0.0034030864417552947,-0.04938713124245405,-0.2436442134514451
1783696022788791300,6.257791259765625,0.06688099461793899,-0.14129033891409634,-0.23734314054585992
1783696022798755300,6.26775537109375,0.11016074889600276,-0.1694067185908556,-0.279992926357314
1783696022808719400,6.27771923828125,0.05689210004508495,-0.17950696458369492,-0.30295864527262745
1783696022818682400,6.287682373046875,-0.04347206197977066,-0.20097674585282801,-0.29604660086184736
1783696022828646400,6.297646484375,-0.14554127435684203,-0.20987375353574753,-0.26010807619206605
1783696022838610400,6.3076103515625,-0.2533276953369379,-0.18024989190548657,-0.2586108964368701
1783696022848574500,6.317574462890625,-0.39087271024286746,-0.13762041822969912,-0.24622845779098568
1783696022858538500,6.32753857421875,-0.480054383996129,-0.09053308836221695,-0.19749138795509932
1783696022868501500,6.33750146484375,-0.5655687674134969,-0.08415157063156366,-0.06748743607848882
1783696022878465500,6.347465576171875,-0.5715723917424679,-0.06698883890658616,0.017395444502308965
1783696022888429300,6.35742919921875,-0.4704121109038591,-0.07301233697980641,0.08266893085837364
1783696022898393300,6.367393310546875,-0.30466099221110343,-0.06966273429095744,0.1668063268341124
1783696022908356400,6.3773564453125,-0.09738543847501277,-0.07475158186256885,0.23368973260484635
1783696022918320400,6.3873203125,0.06775017866790295,-0.1605272465646267,0.25540917778611183
1783696022928284400,6.397284423828125,0.185099962285161,-0.21588146951794623,0.17742665117830037
1783696022938248400,6.40724853515625,0.20479893448948858,-0.32300738076269625,0.12051898823790251
1783696022948211500,6.41721142578125,0.13749825315475464,-0.4144190055251121,0.11759133728817105
1783696022958175500,6.427175537109375,-0.006125789403915405,-0.45691608499288555,0.059451867530494924
1783696022968139500,6.437139404296875,-0.22659809384346008,-0.4881535192996263,0.050860783991590136
1783696022978103300,6.447103271484375,-0.4377472741425037,-0.46039019084423777,0.03598937807418406
1783696022988066600,6.457066650390625,-0.636151539158821,-0.42131577930152414,-0.0002710720263421535
1783696022998030300,6.4670302734375,-0.7217670448631047,-0.3788800746321678,-0.042995019052550196
1783696023007994400,6.476994384765625,-0.7373346163511276,-0.3716261579811573,-0.12790464150980113
1783696023017958400,6.48695849609375,-0.7020376775205135,-0.3200081989467144,-0.16887911452017723
1783696023027922400,6.49692236328125,-0.5665431654036045,-0.27952830452024935,-0.15299524362459777
1783696023037885400,6.506885498046875,-0.4604869292169809,-0.4356263364657759,-0.040165713910758495
1783696023047849500,6.516849365234375,-0.4159884467989206,-0.7022203406110405,0.14099186742417513
1783696023057813500,6.5268134765625,-0.3265256180167198,-0.8188204749047756,0.22546119876801965
1783696023067777300,6.53677734375,-0.30523148557543756,-0.8319634495943784,0.12689663351103664
1783696023077740500,6.546740478515625,-0.4129004176557064,-0.8492886784046888,-0.025477555605769156
1783696023087704300,6.556704345703125,-0.5308148494184017,-0.8358277238070965,-0.23387268795631824
1783696023097668400,6.56666845703125,-0.6339338631093502,-0.7808505174726247,-0.5571271022826433
1783696023107632400,6.57663232421875,-0.7662403928399085,-0.6482306840091944,-0.8556011494871228
1783696023117595400,6.586595458984375,-0.918651552966237,-0.4810749592155218,-1.058152743441239
1783696023127559400,6.596559326171875,-1.048790091007948,-0.28468729471862314,-1.1091454101841896
1783696023137523500,6.6065234375,-1.0463444514214992,-0.041083705538511275,-1.009466453944519
1783696023147487500,6.616487548828125,-0.8738122942864894,0.13906944799423218,-0.8108377325225621
1783696023157450500,6.626450439453125,-0.5946504849910735,0.2769336118519306,-0.5885454461142421
1783696023167414500,6.63641455078125,-0.30829204218983647,0.34285131439566613,-0.43445648896880446
1783696023177378300,6.64637841796875,-0.10159458060264587,0.3253852158099413,-0.33060141608826815
1783696023187342300,6.65634228515625,0.007519874110817909,0.30516017390489575,-0.32469306882731613
1783696023197306400,6.666306396484375,-0.01222936697602272,0.3171913879603147,-0.40335181419625876
1783696023207269400,6.676269287109375,-0.11809621807038784,0.2988169423580169,-0.5351107930466532
1783696023217233700,6.686233642578125,-0.3294423822462559,0.34386487535238264,-0.6299734350457787
1783696023227198000,6.696197998046875,-0.4805868834376335,0.48148996975719927,-0.6773164201747626
1783696023237162000,6.706161865234375,-0.4301847299337387,0.65439329829216,-0.6544586916785686
1783696023247124700,6.716124755859375,-0.3017646862477064,0.8354922082424163,-0.5777832290813326
1783696023257088800,6.7260888671875,-0.17903847028911113,0.9383616310864686,-0.45202188321053977
1783696023267052500,6.736052490234375,-0.039616555595397944,0.9996884987086057,-0.34500841936431825
1783696023277016800,6.746016845703125,0.043970659151673315,0.9940338339477777,-0.22987945360168813
1783696023286979600,6.7559794921875,0.06998655941784382,0.9272674056202173,-0.08466127371937036
1783696023296943600,6.765943603515625,0.0549772063344717,0.8669675429582595,0.02880078174434602
1783696023306907600,6.77590771484375,-0.0760264241039753,0.7566232541888952,0.05906725212708115
1783696023316872000,6.785871826171875,-0.12931027052402497,0.628350510019064,0.010133636805787683
1783696023326834700,6.795834716796875,-0.10601941130757331,0.490130956852436,-0.0788665429007262
1783696023336798700,6.805798828125,-0.08365852641761302,0.33241350701153277,-0.1340240742381662
1783696023346762800,6.8157626953125,-0.07977204037308692,0.22504092752933502,-0.2598646958902478
1783696023356726800,6.825726806640625,-0.05658464153110981,0.21814298470914362,-0.44160657991915936
1783696023366690800,6.83569091796875,-0.0036596915513277053,0.24756197141706943,-0.5305454578924924
1783696023376653600,6.845653564453125,-0.11216682802140712,0.3691986385732889,-0.509808228681609
1783696023386617600,6.85561767578125,-0.10674538749456405,0.6032955637395382,-0.7541589829672127
1783696023396581600,6.86558154296875,-0.11009469792246818,0.7506383345603942,-0.8541898944497108
1783696023406546000,6.8755458984375,-0.0758043057858944,0.917125950834155,-0.8393068711597472
1783696023416508700,6.8855087890625,-0.076252634075284,0.9658774145215749,-0.9063083503521978
1783696023426472700,6.89547265625,-0.12583645693361759,0.9297656521767377,-0.9291906287677586
1783696023436436700,6.905436767578125,-0.12317279068231582,0.9140776691794394,-0.9447848690669983
1783696023446400800,6.91540087890625,-0.05721300256252288,0.8818506393134593,-0.9494286032196134
1783696023456363800,6.92536376953125,0.021668226450681685,0.808133076673746,-0.9139664638899266
1783696023466327600,6.93532763671875,0.07536240723729133,0.7636094598144293,-0.8962197947971522
1783696023476291600,6.94529150390625,0.10507190132439136,0.6963134546548128,-0.8537827018883078
1783696023486255900,6.955255859375,0.14686054026186465,0.638878333774209,-0.838377992811799
1783696023496218600,6.965218505859375,0.24460370613336563,0.5412678543716669,-0.8405834669668227
1783696023506182700,6.9751826171875,0.41817748127579685,0.4475041135251522,-0.7674489649120718
1783696023516146700,6.985146728515625,0.5785398926675319,0.2948001079320907,-0.7399608001362532
1783696023526111000,6.995111083984375,0.6407897203534841,0.17097791343033314,-0.690028821427375
1783696023536073700,7.00507373046875,0.5804243912398814,0.08429273266792296,-0.7000273606114089
1783696023546037800,7.015037841796875,0.42831835153996944,0.025732991671562195,-0.7408689279571176
1783696023556001500,7.02500146484375,0.20255144782364368,-0.07239186699390411,-0.8437059098362922
1783696023565965600,7.034965576171875,-0.02743278132677078,-0.13148469195365906,-0.9369884430371225
1783696023575929900,7.044929931640625,-0.16382687263190746,-0.1467716929346323,-1.0297323393166065
1783696023585892600,7.054892578125,-0.18310966525077818,-0.11078326470851897,-1.1366440232887864
1783696023595856600,7.064856689453125,-0.14009937556385993,-0.1163853224992752,-1.2101525462877005
1783696023605820700,7.074820556640625,-0.09806932908594608,-0.13655249673724174,-1.227858371913433
1783696023615785000,7.084784912109375,-0.12426818470358848,-0.13626315840184688,-1.1782593514859676
1783696023625747700,7.094747802734375,-0.16771394319832325,-0.13976327547729014,-1.1272164889257401
1783696023635711700,7.104711669921875,-0.21869944954812526,-0.11586977419257163,-1.1159610815484076
1783696023645675800,7.11467578125,-0.28519758232831954,-0.10335866766571998,-1.0933177264552563
1783696023655639800,7.124639892578125,-0.39727205589115616,-0.059333063456416126,-1.0322388422448188
1783696023665602600,7.1346025390625,-0.43025662612617016,-0.011124036082625388,-0.9655365651946515
1783696023675566600,7.144566650390625,-0.39810149245262144,0.053259296500682826,-0.9208241477649658
1783696023685530600,7.154530517578125,-0.2989016980320215,0.13186053952872753,-0.8369334200266748
1783696023695494700,7.16449462890625,-0.23151041580438614,0.22080723548233508,-0.7338596337169409
1783696023705457700,7.174457763671875,-0.2959358339637518,0.29709084921777246,-0.6429680873058736
1783696023715421700,7.184421630859375,-0.4432599000841379,0.35149814670979973,-0.5800504433609545
1783696023725385700,7.1943857421875,-0.5637450591176748,0.40782676765322684,-0.5304377232016996
1783696023735349800,7.204349853515625,-0.5830424647837877,0.4141448647588491,-0.4952716076765209
1783696023745313800,7.214313720703125,-0.472972901302576,0.39034079532325267,-0.4717557805977761
1783696023755276800,7.22427685546875,-0.30728608001768587,0.3010375410169363,-0.37647575343679635
1783696023765240600,7.234240478515625,-0.1333779583543539,0.14188392089307308,-0.22727679682262242
1783696023775204600,7.24420458984375,-0.10843874740898608,-0.023798808738589285,-0.08855444523300975
1783696023785169000,7.2541689453125,-0.1612140597850084,-0.08966741144359111,-0.1311820192126557
1783696023795131600,7.264131591796875,-0.35097616866230963,-0.06484218226671218,-0.334899551673606
1783696023805095700,7.274095703125,-0.5784972225695848,0.03404021676778793,-0.49287616390734906
1783696023815059700,7.284059814453125,-0.7207552374720573,0.2348182251781225,-0.5539828129075467
1783696023825023700,7.294023681640625,-0.6922539501309395,0.32382103523314,-0.5800519777309149
1783696023834986800,7.30398681640625,-0.4714052135944366,0.3747808226197958,-0.5620310217414051
1783696023844950800,7.31395068359375,-0.23477847768962382,0.3850274913460016,-0.5222106872022152
1783696023854914600,7.32391455078125,-0.10612287168204784,0.35821547226607797,-0.4446721049696207
1783696023864878600,7.333878662109375,-0.05349310525655746,0.2920575312256813,-0.4141494313361123
1783696023874841600,7.343841552734375,-0.11152794559597969,0.2151332814991474,-0.4060793759966269
1783696023884805600,7.3538056640625,-0.2205845326423645,0.15375965212583542,-0.5056484055884182
1783696023894769700,7.363769775390625,-0.3074064915269613,0.15684183605015278,-0.6072919398993253
1783696023904733700,7.373733642578125,-0.3507195635527372,0.12363573201894759,-0.6502287990238517
1783696023914696700,7.38369677734375,-0.3413759811460972,0.12207096692025661,-0.579265284332633
1783696023924660700,7.39366064453125,-0.24796119986772536,0.1038368065714836,-0.5854512064259499
1783696023934624800,7.403624755859375,-0.15214520266652107,0.19711013355255125,-0.5940542726635932
1783696023944588500,7.413588623046875,-0.09754852008223533,0.23171675203144548,-0.6003660130936652
1783696023954551800,7.4235517578125,-0.0721568891942501,0.3675508713662624,-0.6942164093103259
1783696023964515600,7.433515625,-0.04786766659021377,0.5791086324661969,-0.8005437905885279
1783696023974479600,7.443479736328125,-0.08562018187940121,0.720697954326868,-1.014170101590827
1783696023984443600,7.453443603515625,-0.18105916246175766,0.857973504641652,-1.17947661832124
1783696023994407700,7.46340771484375,-0.39004502724707124,0.933657398918271,-1.2915464157089591
1783696024004370700,7.47337060546875,-0.662416445749998,0.9921838221669197,-1.3909811879292129
1783696024014334700,7.483334716796875,-0.8653998552501201,1.0387661251217126,-1.4979568770483136
1783696024024298800,7.493298828125,-0.9538695813417434,1.144356497362256,-1.566584423072636
1783696024034262800,7.5032626953125,-0.8610591956973075,1.2528525279164313,-1.637880019262433
1783696024044225800,7.513225830078125,-0.7625900536388158,1.2853852627307176,-1.686890426146984
1783696024054189600,7.523189453125,-0.6417068351984023,1.1933113746672868,-1.6872911159023642
1783696024064153600,7.533153564453125,-0.4646873035162687,1.0528028337806463,-1.574732658214867
1783696024074117600,7.54311767578125,-0.32314708149433136,0.868136002215743,-1.4039486599214375
1783696024084080600,7.55308056640625,-0.12204758604466914,0.754340696209669,-1.1783993444785474
1783696024094044700,7.563044677734375,0.06982640042006968,0.6045645607620478,-1.0336499511517583
1783696024104008700,7.5730087890625,0.28880875856280325,0.4076005576819181,-0.9499628562267869
1783696024113972700,7.58297265625,0.48184769715368747,0.23947277298569677,-0.8612441968753933
1783696024123935700,7.592935791015625,0.5909335102945565,0.05170797540545463,-0.8551524558715522
1783696024133899800,7.602899658203125,0.50200376547575,-0.04406418265402317,-0.9144345928583294
1783696024143863600,7.612863525390625,0.33609657943844795,-0.10553250457346439,-1.048878207682818
1783696024153827600,7.62282763671875,0.16440671834647655,-0.11787409975230694,-1.1935751401700079
1783696024163790600,7.63279052734375,0.029656887117028234,-0.041406069360673425,-1.3518351724550126
1783696024173754600,7.642754638671875,-0.10842238079607486,0.04986965406239032,-1.4545803843975067
1783696024183718700,7.65271875,-0.23076047421991824,0.1721212382465601,-1.4745815544188021
1783696024193682700,7.6626826171875,-0.38729076010286806,0.3014613193869591,-1.4854590683944522
1783696024203646700,7.672646728515625,-0.5373614945828914,0.4226213089421391,-1.423915197020769
1783696024213609700,7.682609619140625,-0.5798451300472021,0.5108037425249815,-1.3103525307267903
1783696024223574000,7.692573974609375,-0.5189689288020134,0.5158610259145497,-1.1243138262867927
1783696024233537800,7.702537841796875,-0.38058921663761136,0.4199877455681562,-1.0073031384307891
1783696024243501800,7.712501708984375,-0.136119366016984,0.3348594388589263,-0.9569218085192144
1783696024253464800,7.72246484375,0.13283201490938662,0.17123977923691272,-0.9580299889568239
1783696024263428900,7.732428955078125,0.3984989673376083,-0.02064326731711626,-0.9486076422255486
1783696024273393000,7.742392822265625,0.6554658959597349,-0.2185337375923991,-0.907272226948291
1783696024283357000,7.75235693359375,0.8847446071892976,-0.3512453409925103,-0.8996905396476388
1783696024293320000,7.76231982421875,1.0444067613571881,-0.45359804648607965,-0.9464948147900402
1783696024303284000,7.772283935546875,1.077753150641918,-0.6069014792770147,-0.9055307901084423
1783696024313248000,7.782248046875,1.017873559218645,-0.6323214594766497,-0.8855465712219476
1783696024323212000,7.7922119140625,0.8438035249918698,-0.6707040893629193,-0.9135166742958127
1783696024333175000,7.802175048828125,0.5771709424018859,-0.7197717793926596,-0.9338338514637201
1783696024343138800,7.812138916015625,0.32748657200336456,-0.7330155841082334,-0.9499744005341082
1783696024353102800,7.822102783203125,0.09298165055811404,-0.6958508055791258,-0.9730598733715713
1783696024363067000,7.83206689453125,-0.06741641666889191,-0.6508122249349951,-0.9550749385435133
1783696024373030000,7.84202978515625,-0.22431495134234428,-0.6332149011850357,-0.8772413188870996
1783696024382994000,7.851993896484375,-0.29920857202410694,-0.592370557360351,-0.8191789329536259
1783696024392958000,7.8619580078125,-0.28451602980494495,-0.5403843495354056,-0.7553368676401674
1783696024402922000,7.871921875,-0.2948801874309778,-0.542244882710278,-0.6721472739085554
1783696024412886000,7.881885986328125,-0.295512055593729,-0.5580445093885064,-0.6245660961095243
1783696024422849000,7.89184912109375,-0.33729543383419514,-0.5043716636508703,-0.6083085330633446
1783696024432813000,7.90181298828125,-0.3724199387073517,-0.4705749002501368,-0.6074902389504016
1783696024442776800,7.91177685546875,-0.4415712163448334,-0.4767921673297882,-0.6066256945429369
1783696024452739800,7.92173974609375,-0.518234769308567,-0.41872050211131573,-0.6224051917485892
1783696024462703900,7.931703857421875,-0.6520446893393993,-0.34771512103974817,-0.600880246226117
1783696024472668000,7.94166796875,-0.81558573076725,-0.2494081838056445,-0.6125180405171587
1783696024482632000,7.9516318359375,-0.9164046508222817,-0.13939999512284992,-0.5999641908271238
1783696024492596000,7.961595947265625,-0.9792267254382371,-0.008554477855563163,-0.5539638159461319
1783696024502559000,7.97155908203125,-0.9727899703890085,0.12775368873178958,-0.4611099564861506
1783696024512523000,7.98152294921875,-0.9597335049390793,0.1859565791144967,-0.3738987060230225
1783696024522487000,7.991487060546875,-0.8327443708389997,0.1968067666918039,-0.3301049743408337
1783696024532450800,8.001450927734375,-0.6324848333448171,0.16759207038432358,-0.21599786243923008
1783696024542413800,8.011413818359374,-0.33594694183468815,0.00039396775364875793,-0.04258161594606936
1783696024552377900,8.0213779296875,0.11114566828012466,-0.1903296796321869,0.038678580625541505
1783696024562342000,8.031341796875,0.5384089578092098,-0.299404386857152,-0.02265051548629999
1783696024572306000,8.041305908203125,0.8054016058832406,-0.4127990031078458,-0.2155208195120096
1783696024582269000,8.05126904296875,0.8682458923310041,-0.49146220545619723,-0.36398594542630014
1783696024592233000,8.06123291015625,0.7972726599633693,-0.4619949956923723,-0.49746319943666456
1783696024602197000,8.071197021484375,0.6234411106675863,-0.3994736575886607,-0.4727957181047648
1783696024612161000,8.0811611328125,0.40543724216818805,-0.2826084426179528,-0.3270980476098135
1783696024622124000,8.0911240234375,0.19307751703560352,-0.08130144189745188,-0.23127331911288201
1783696024632088000,8.101088134765625,0.014997662645578384,0.08195406058728695,-0.10653547107093035
1783696024642051800,8.1110517578125,-0.06914250980913639,0.15903525444120167,0.04532696913145482
1783696024652015900,8.121015869140624,-0.0018698855251073835,0.19322978498786686,0.11129256593752651
1783696024661979000,8.130978759765625,0.07097030975818634,0.20025456905812025,0.035001499547995626
1783696024671943000,8.14094287109375,0.008504793494939803,0.24063626380711792,-0.07843801529034972
1783696024681907000,8.150906982421875,-0.1567185019314289,0.3725672382235527,-0.16661990088392048
1783696024691871000,8.16087109375,-0.4260024758130312,0.40875586519688367,-0.26382037471346553
1783696024701835000,8.1708349609375,-0.7225421208888292,0.5163114000305533,-0.40959213335793465
1783696024711798000,8.180798095703125,-1.039923478463292,0.6476081681966781,-0.53551791254282
1783696024721762000,8.190761962890624,-1.3165063771814107,0.7709493011832237,-0.5702299276249483
1783696024731725800,8.200725830078126,-1.4880214662283657,0.9076873836204409,-0.5536311864582821
1783696024741689900,8.21068994140625,-1.5502315464258194,0.9948089099735021,-0.5112147344786674
1783696024751652900,8.22065283203125,-1.5053051939845083,1.0404287976369262,-0.43269707808084784
1783696024761617000,8.230616943359376,-1.3107009057730437,1.0438801071345805,-0.3276378901075572
1783696024771581000,8.240580810546875,-0.945328547489643,0.9646142627179622,-0.25459398894570767
1783696024781545000,8.250544921875,-0.554546438139677,0.7876473380059004,-0.18986045468524096
1783696024791508000,8.260508056640624,-0.2185270155906677,0.5825237016066909,-0.14363478314839304
1783696024801472000,8.270471923828126,0.05794891562163829,0.4105094308659434,-0.09507928042449057
1783696024811436000,8.28043603515625,0.1913917559057474,0.3128749860659242,-0.054088002409785986
1783696024821399800,8.29039990234375,0.1676712731003761,0.2770326883122325,-0.024515505640581248
1783696024831363000,8.300363037109374,0.0472825601786375,0.23642595263570546,0.02330291498042643
1783696024841326800,8.310326904296875,-0.0690589231789112,0.20152970356047153,0.023565219178423285
1783696024851291000,8.320290771484375,-0.12301380072832106,0.17001403683423996,0.07632321509346365
1783696024861255000,8.3302548828125,-0.17523031017780302,0.14803689056485891,0.15077464496567844
1783696024871218000,8.340218017578126,-0.24012393037080762,0.16711948443651198,0.16200681759789584
1783696024881182000,8.350181884765625,-0.31568273696303367,0.2714297537386417,0.10416450415588915
1783696024891146000,8.36014599609375,-0.5134615635573864,0.3871735634639859,-0.039339053828269244
1783696024901110000,8.370110107421874,-0.7778741320103406,0.49954175927639005,-0.21874738034307956
1783696024911073000,8.380072998046876,-1.0119096823781728,0.6397501481726765,-0.44401890175789593
1783696024921037000,8.390037109375,-1.2193944949507713,0.7263567107409238,-0.6425981580149382
1783696024931000800,8.400000732421875,-1.4378385084331036,0.7734212442547083,-0.7393641494173556
1783696024940964900,8.40996484375,-1.553482657176256,0.8143067968726158,-0.8304024108227341
1783696024950928000,8.419927978515625,-1.5402397292435168,0.827794054955244,-0.8641666601933539
1783696024960892000,8.429891845703125,-1.3914017514288424,0.8041118583336472,-0.8409170097701251
1783696024970856000,8.43985595703125,-1.0717699845790862,0.7469491246536374,-0.8334757538534701
1783696024980820000,8.449820068359376,-0.6049281333774328,0.6476236580267548,-0.7956661015495657
1783696024990784000,8.459783935546875,-0.11080313845276832,0.47936201781779525,-0.7625837700285018
1783696025000747000,8.4697470703125,0.3009749971747398,0.3047302580550313,-0.7191278554659336
1783696025010711000,8.4797109375,0.6077899525493383,0.13236761226803065,-0.7474925108153373
1783696025020674800,8.4896748046875,0.828448719471693,0.020099661959707735,-0.848455588581413
1783696025030638800,8.499638916015625,0.9192237998962401,-0.09607698622494935,-0.9261578369431197
1783696025040601900,8.509601806640624,0.9136404468059539,-0.153503047016263,-1.0269478962298482
1783696025050566000,8.51956591796875,0.8749871832847594,-0.17747750458270312,-1.0854231738131492
1783696025060530000,8.529530029296875,0.8253057452708482,-0.15930734938085078,-1.0994905698712913
1783696025070494000,8.539493896484375,0.7633277202636003,-0.16279548375755548,-1.1019515531573445
1783696025080457000,8.54945703125,0.6520569642990827,-0.13747633358389139,-1.056312084010616
1783696025090421000,8.5594208984375,0.5160755454480648,-0.08765256448984146,-1.011093616754934
1783696025100385000,8.569385009765625,0.39491117197871206,-0.012630056731402873,-1.0080351790323854
1783696025110349000,8.57934912109375,0.2591530404895544,0.012416706241667269,-0.9936001917708664
1783696025120312000,8.58931201171875,0.11871464222967625,0.05584551360160112,-1.0207922962095588
1783696025130275800,8.59927587890625,0.019585574957728384,0.1353700089544058,-1.0234382076084614
1783696025140240000,8.609239990234375,-0.04495733210146427,0.217351542070508,-0.9415775974582881
1783696025150204000,8.619203857421875,-0.07914660195112228,0.28287936851382256,-0.8238833843175322
1783696025160167000,8.6291669921875,-0.10410802472829818,0.3365905004352331,-0.7200863982997834
1783696025170131000,8.639130859375,-0.10829612406790255,0.38469109899848697,-0.6400269923526793
1783696025180095000,8.649094970703125,-0.03181260384619236,0.444031761239469,-0.6000154460903256
1783696025190059000,8.65905908203125,0.0048345805495977395,0.4948813662499189,-0.5680230286978185
1783696025200022000,8.66902197265625,-0.06000292554199695,0.49971916166990993,-0.5161657810147852
1783696025209986000,8.678986083984375,-0.18066168757677079,0.5401850275710225,-0.4877268913853913
1783696025219949800,8.68894970703125,-0.267984581720829,0.6211646901682019,-0.4654520042784512
1783696025229913600,8.69891357421875,-0.2882020248413086,0.6792977301850914,-0.4387475372262299
1783696025239877600,8.708877685546875,-0.25866262662410733,0.6919552594453096,-0.39563481007814405
1783696025249840600,8.718840576171875,-0.22516484616994856,0.7025330598220229,-0.3775940534096211
1783696025259804700,8.7288046875,-0.22246026338636873,0.7548094827651977,-0.3263452930137515
1783696025269768700,8.738768798828126,-0.25782909840941426,0.7556552859395742,-0.2232195573210716
1783696025279731700,8.748731689453125,-0.26183599596321583,0.7840420069903135,-0.05601429429724812
1783696025289695700,8.75869580078125,-0.24263445188701152,0.7755050647914409,0.03398812125436961
1783696025299659800,8.76865966796875,-0.1863549307823181,0.7684791116774081,0.08997340865284204
1783696025309623800,8.778623779296876,-0.12837562002241612,0.7391974876135587,0.13815109104029832
1783696025319587600,8.788587646484375,-0.1348030227214098,0.6266200329646467,0.21273462285958228
1783696025329550800,8.79855078125,-0.17322949174940586,0.4318059013947844,0.32542335586324334
1783696025339514600,8.8085146484375,-0.25714462327659127,0.2326820899322629,0.36389198353253305
1783696025349478700,8.818478759765625,-0.3461047632336616,0.133312491902709,0.2279491431262344
1783696025359442700,8.828442626953125,-0.5085176774144172,0.10430646990984678,0.07482391644641756
1783696025369405700,8.83840576171875,-0.6221078162372112,0.07682721909284591,0.0036933015599846836
1783696025379369700,8.84836962890625,-0.6857827082902193,0.09761574009954929,0.012859262377396225
1783696025389333800,8.858333740234375,-0.6541103896975516,0.11768968309611082,-0.0079025898180902
1783696025399297800,8.8682978515625,-0.6523696835100651,0.18562047902792692,-0.05816913424357772
1783696025409260800,8.8782607421875,-0.7243968088448047,0.22796499828249214,-0.04542290378659963
1783696025419224800,8.888224853515625,-0.7607406263798475,0.24349925202280281,-0.03697232469692826
1783696025429188600,8.898188720703125,-0.7522463542789221,0.23644348829239606,-0.08101115371398628
1783696025439152600,8.908152587890624,-0.6893120514601468,0.20855419536978004,-0.1547729208216071
1783696025449115600,8.91811572265625,-0.6256447581917047,0.2225423887118697,-0.24669205671474337
1783696025459079700,8.92807958984375,-0.5717839886665343,0.26868483894467354,-0.31292788529694077
1783696025469043700,8.938043701171875,-0.5769055694639682,0.3497209079042077,-0.3227607125252485
1783696025479007700,8.9480078125,-0.5904261452943086,0.4235594665750861,-0.3432705627210438
1783696025488970800,8.957970703125,-0.622658435857296,0.5086714066714048,-0.3742407974589616
1783696025498934800,8.967934814453125,-0.6335135918706655,0.6175991066411137,-0.3962001158107072
1783696025508898800,8.97789892578125,-0.6193091254293919,0.6952285820275544,-0.49086438569352026
1783696025518862800,8.98786279296875,-0.6038783320635557,0.7811451165050268,-0.6028868368081748
1783696025528825900,8.997825927734375,-0.6389969917178153,0.8764625165343284,-0.7243724050559103
1783696025538789600,9.00778955078125,-0.7318745973795652,0.9369643315091729,-0.853104145039618
1783696025548753700,9.017753662109374,-0.8550421273648738,0.98846246355623,-1.0018784099683165
1783696025558717700,9.0277177734375,-0.9498451481312513,1.1713605318829416,-1.1307467819437385
1783696025568681700,9.037681640625,-1.020518520769477,1.2676195966765285,-1.2240955122485757
1783696025578644700,9.047644775390625,-1.0040952092349529,1.2792121270537375,-1.2898030791729689
1783696025588608800,9.05760888671875,-0.9444283837795256,1.2453098574519157,-1.3396018599562347
1783696025598572800,9.06757275390625,-0.9209060538947582,1.2305597398266195,-1.3284212713807821
1783696025608536800,9.077536865234375,-0.904035583114624,1.1629048382267355,-1.3096397062823175
1783696025618499800,9.087499755859374,-0.8446125032871961,1.1467866471186279,-1.310521895944327
1783696025628463900,9.0974638671875,-0.710280020686984,1.098671435508132,-1.2296271351516246
1783696025638427600,9.107427734375,-0.6306587869614362,0.9349357482910156,-1.1646521202854812
1783696025648391700,9.1173916015625,-0.5131459217369556,0.8057873903304338,-1.1800433853585273
1783696025658354700,9.127354736328124,-0.4105056314736604,0.6860209009602666,-1.2258093304291366
1783696025668318700,9.137318603515626,-0.3230529734700918,0.583403699311614,-1.2295777430519461
1783696025678282800,9.14728271484375,-0.28796704704165454,0.5181389077186584,-1.2127607560247182
1783696025688246800,9.157246826171875,-0.3523527177125215,0.5589771140635014,-1.2210497878771274
1783696025698209800,9.167209716796876,-0.4204845891743898,0.6219751297682523,-1.2211821820851414
1783696025708173800,9.177173828125,-0.4484311652421951,0.6535255755469203,-1.1876549563407897
1783696025718137900,9.187137939453125,-0.3660094871431589,0.6672296912506223,-1.1699976460319013
1783696025728101600,9.1971015625,-0.2706383111000061,0.659768269328773,-1.1896017795596272
1783696025738064600,9.207064697265626,-0.23576222802996635,0.693942633870244,-1.1962667173415422
1783696025748028700,9.217028564453125,-0.2820119380295276,0.7356169987782836,-1.2205413999635726
1783696025757992700,9.22699267578125,-0.3214981452435255,0.7081535300523042,-1.2006640755176543
1783696025767956700,9.236956787109374,-0.33357612105011936,0.6688523240163922,-1.1058189691752194
1783696025777919500,9.24691943359375,-0.23431904348433016,0.68782356646806,-1.0927654263347386
1783696025787883800,9.2568837890625,-0.04909457803666591,0.6423831270247697,-0.9891301336847245
1783696025797847800,9.266847900390625,0.14059095847308634,0.5628934107244015,-0.846791016370058
1783696025807811800,9.276811767578126,0.2360989126384258,0.49764264765679833,-0.7217967824142426
1783696025817774600,9.286774658203125,0.1563829863667488,0.41552638224512334,-0.5938502014588565
1783696025827739000,9.29673876953125,0.03852876035869121,0.36177228796482086,-0.5313726294316351
1783696025837702700,9.30670263671875,-0.06433657083213329,0.29180940168350933,-0.48571065619215364
1783696025847666700,9.316666748046876,-0.15082593676149844,0.2303963170826435,-0.4683342086512595
1783696025857629400,9.32662939453125,-0.1863596069574356,0.18785861334353685,-0.4258237582452595
1783696025867593500,9.336593505859375,-0.1918225485384464,0.15061755470782517,-0.38669856636337935
1783696025877557800,9.346557861328124,-0.21431144372224806,0.15323913538306952,-0.311391944433935
1783696025887521800,9.356521728515625,-0.2511088502436876,0.17731705332398415,-0.27083171478025614
1783696025897484500,9.366484619140625,-0.3094944037169218,0.184361418877542,-0.2170546780157834
1783696025907448600,9.376448486328124,-0.36313130135834215,0.1892199648246169,-0.15690079969577492
1783696025917412900,9.386412841796876,-0.44602468862235545,0.17526099757701158,-0.11250767734833061
1783696025927376600,9.396376708984375,-0.5289186604082584,0.12632307140678167,-0.10169124591015279
1783696025937340700,9.406340576171875,-0.5936603049099445,0.11536591632366179,-0.08218589658178388
1783696025947303400,9.416303466796874,-0.5666548090845346,0.09095715899318456,-0.04304802788142115
1783696025957267700,9.426267822265626,-0.4672270511269569,0.05229571216553449,0.0196801944386214
1783696025967231700,9.436231689453125,-0.39725978093147274,0.10122983894348143,-0.008920096297562121
1783696025977195800,9.44619580078125,-0.42368952269554133,0.0625017566204071,0.029733094158396124
1783696025987158500,9.456158447265626,-0.34983868906497956,0.022438626301288605,0.11275690286904573
1783696025997122600,9.46612255859375,-0.2619967394828796,0.015818623639643193,0.1607628819514066
1783696026007086800,9.4760869140625,-0.2125017639517784,-0.010878829149901867,0.217022310116142
1783696026017050600,9.486050537109374,-0.13668576772809027,0.004642565108835697,0.20538528301008044
1783696026027013600,9.496013671875,-0.07296119131445884,-0.010862462536990643,0.20842717145662754
1783696026036977400,9.505977294921875,0.013263970720767975,-0.07498802096694708,0.14298804621007294
1783696026046941700,9.515941650390625,0.024909400328993796,-0.11651713218539952,0.09119261171687394
1783696026056905700,9.52590576171875,-0.00890402194559574,-0.14783055433779954,0.09788684865850955
1783696026066868500,9.535868408203125,-0.0568897619575262,-0.1531891587615013,0.09614658086244016
1783696026076832500,9.54583251953125,-0.11282441514730453,-0.19537907197624443,0.10031425846852361
1783696026086796800,9.555796875,-0.05885960072576999,-0.19422668707072735,0.1381663616746664
1783696026096760800,9.5657607421875,0.0731634358882904,-0.21986147906482217,0.17813070779442786
1783696026106723600,9.5757236328125,0.24377777670323847,-0.3127344085514545,0.26065160848423835
1783696026116687600,9.5856875,0.3639513855695724,-0.4442103326767683,0.3328235491171479
1783696026126651600,9.595651611328124,0.4763432545185089,-0.6025096740588546,0.48587191116847095
1783696026136615700,9.60561572265625,0.6245972949653864,-0.8100321882933378,0.6510849043965339
1783696026146578400,9.615578369140625,0.776398214238882,-0.9382765831515193,0.7220629590697586
1783696026156542500,9.62554248046875,0.7882190004140138,-0.918686916540563,0.605538885686919
1783696026166506500,9.635506591796876,0.5077700739175081,-0.8399331132993102,0.3744725603882223
1783696026176470800,9.645470703125,0.061678165277838704,-0.745681588935852,0.19216639354005455
1783696026186433500,9.65543359375,-0.33412206449508663,-0.6268567643299698,0.0346428588360548
1783696026196397600,9.6653974609375,-0.5293301638185978,-0.48929801315963267,0.0024263868967071174
1783696026206361600,9.675361572265626,-0.554995935472846,-0.28772125558704137,-0.0689178342077881
1783696026216325600,9.68532568359375,-0.5547644648045301,-0.027810966989398,-0.19567432859577238
1783696026226288600,9.69528857421875,-0.4076233540356159,0.08936462910473346,-0.1981952253755182
1783696026236252700,9.705252685546874,-0.1334475164592266,0.18495558537840842,-0.18742942814603447
1783696026246216400,9.715216552734375,0.11851532026529311,0.1357400113105774,-0.009084858405217527
1783696026256180500,9.725180419921875,0.30028993752002714,0.016202362260222435,0.1703822856247425
1783696026266144500,9.73514453125,0.4426584270596504,-0.07307341951727866,0.3550291703801602
1783696026276107500,9.745107421875,0.49608080516755576,-0.24376667078733444,0.5049152690082788
1783696026286071600,9.755071533203125,0.4791033668816089,-0.3952852659881115,0.5724422333795577
1783696026296035600,9.76503564453125,0.4438058435291052,-0.5000853646337986,0.6435897263355552
1783696026305999600,9.77499951171875,0.41523207547366614,-0.576456656652689,0.7339733962897211
1783696026315962600,9.784962646484376,0.44301615445613857,-0.5248211619615555,0.75781714014858
1783696026325926700,9.7949267578125,0.4441764304071665,-0.40598318561315533,0.7698769227113574
1783696026335890400,9.804890380859375,0.36615152596235273,-0.21403438034653663,0.7444947903040796
1783696026345854500,9.8148544921875,0.2680108852058649,-0.030087679749727248,0.6784073572166264
1783696026355817500,9.8248173828125,0.17117197469770906,0.1390069041520357,0.5161576707735658
1783696026365781500,9.834781494140625,0.040804304075241084,0.27024785047769545,0.36492359160259363
1783696026375745500,9.84474560546875,-0.08793313499689101,0.4044102372080087,0.25950784527659415
1783696026385709600,9.85470947265625,-0.2072644478201866,0.46387832522094247,0.21457769344300032
1783696026395672600,9.864672607421875,-0.2763549351811409,0.49018181025683877,0.20419154318086802
1783696026405636600,9.87463671875,-0.21805063025057314,0.47903848495185375,0.2778768840514123
1783696026415600600,9.8846005859375,-0.08234569025337696,0.39252047744989393,0.39129605022147296
1783696026425564400,9.894564453125,0.15083295102417468,0.3201806329041719,0.4857311144582927
1783696026435527700,9.904527587890625,0.3920458456754684,0.21654256377518175,0.6100895347286015
1783696026445491500,9.914491455078124,0.5499333913862705,0.1091787521213293,0.7816513855267315
1783696026455455500,9.92445556640625,0.5936304942935705,0.04041676606237888,0.9491315930344164
1783696026465419500,9.93441943359375,0.5996148294001817,0.015011691170930862,1.0857397654816507
1783696026475382500,9.944382568359375,0.5370557896345853,-0.002304185289144516,1.1852756599888206
1783696026485346600,9.9543466796875,0.4398077138036489,-0.06307049641907214,1.227099370239675
1783696026495310600,9.964310546875,0.34870004042387004,-0.09638473699986934,1.1899335687972605
1783696026505274600,9.974274658203125,0.21430910563468933,-0.10223170946240424,1.1510569448489696
1783696026515237600,9.984237548828125,0.07139759525954723,-0.06308744755387306,1.0260147800981998
1783696026525201700,9.99420166015625,-0.10827625032365322,-0.012778817552328108,0.89637776183784
1783696026535165400,10.00416552734375,-0.2732657369941473,0.07738777558505534,0.7777082739241421
1783696026545129500,10.01412939453125,-0.3012760259479284,0.2047469120413065,0.6266431215792894
1783696026555092500,10.024092529296874,-0.2457674892157316,0.2998825257629156,0.4566762848876416
1783696026565056500,10.034056396484376,-0.18645722211301324,0.3759878603219986,0.36659663938134907
1783696026575020500,10.0440205078125,-0.13575462435781954,0.4236830929547548,0.351437575628981
1783696026584984600,10.053984619140625,-0.10189677841961384,0.48366322214305396,0.39354510778989643
1783696026594947600,10.063947509765624,-0.08496317927539349,0.5238309818804264,0.4584670042293146
1783696026604911600,10.07391162109375,-0.04652151267826557,0.5292167665719986,0.5139680517747998
1783696026614875600,10.083875732421875,-0.017296002715826035,0.4925999773144722,0.5404518252810463
1783696026624839400,10.09383935546875,0.07760989390313625,0.4202764993816614,0.5862581388946623
1783696026634802700,10.103802734375,0.10602116487324237,0.29060324076414107,0.6197784965068102
1783696026644766500,10.113766357421875,0.169937464466691,0.16026538075804708,0.5834331080691889
1783696026654730500,10.12373046875,0.2019797854155302,0.018584873482584953,0.5469326386677101
1783696026664694500,10.133694580078124,0.23578034820854663,-0.10239420654773712,0.5392135887229815
1783696026674657500,10.143657470703126,0.23755612570941448,-0.22806232117712497,0.4945310549749061
1783696026684621600,10.15362158203125,0.20799451566040514,-0.33733284323513507,0.4410185508981347
1783696026694585600,10.163585693359375,0.14642857858538627,-0.40952480374276634,0.36565073683336374
1783696026704549600,10.173549560546874,0.19826631785035131,-0.4158259497135877,0.2340850155327469
1783696026714512600,10.1835126953125,0.182429281771183,-0.4649222813159227,0.23802904045078901
1783696026724476700,10.1934765625,0.0862953046619892,-0.43081893618404865,0.18502408403735607
1783696026734440400,10.2034404296875,0.004085808008909226,-0.33194472045600415,-0.038731224128231406
1783696026744404500,10.213404541015626,-0.07955167562067508,-0.29459026457369325,-0.11510419664755463
1783696026754367500,10.223367431640625,-0.10044190343618392,-0.26252690083682534,-0.19022607312723994
1783696026764331500,10.23333154296875,-0.1051484736919403,-0.22646832998394964,-0.33522520343139767
1783696026774295600,10.243295654296874,-0.08147592168152332,-0.17244506337344645,-0.42080943721458314
1783696026784259600,10.253259521484376,-0.024628245300054547,-0.15553075345158576,-0.45668176478035744
1783696026794223600,10.2632236328125,0.0432306544393301,-0.1241325756251812,-0.392940894819051
1783696026804186600,10.2731865234375,0.11300035623610019,-0.061114686176180835,-0.293990618180111
1783696026814150700,10.283150634765626,0.19778174920380115,-0.011581716722249984,-0.2126859614122659
1783696026824114700,10.29311474609375,0.3105225777208805,-0.03209785052835941,-0.14844634814858435
1783696026834078500,10.303078369140625,0.4432955559194088,-0.051992053043842315,-0.07650536672733724
1783696026844041500,10.31304150390625,0.5064589913189411,-0.0905652370661497,-0.02881042635552585
1783696026854005500,10.323005615234376,0.488446949288249,-0.1585831267595291,-0.05117642581202089
1783696026863969500,10.332969482421875,0.39857553970515724,-0.22817513390183447,-0.07146145427599548
1783696026873933600,10.34293359375,0.26926234657168385,-0.29316344664096833,-0.07087174475453793
1783696026883896600,10.352896484375,0.12808569716513157,-0.34422026466131206,-0.08719700274206697
1783696026893860600,10.362860595703125,0.02729600320458412,-0.4453787919342518,-0.08685279241427779
1783696026903824600,10.37282470703125,0.008602993172407149,-0.5901262855648994,-0.030648528502881526
1783696026913788700,10.38278857421875,0.029475100809335707,-0.8125631680756806,0.1794279079981148
1783696026923751700,10.392751708984376,0.1446411106467247,-1.0000953259438277,0.46312560715749856
1783696026933715500,10.402715576171875,0.21054010848999022,-0.9631044426769018,0.6230948545131832
1783696026943679500,10.412679443359375,0.13805413347184659,-0.8204764254182577,0.5718742242332547
1783696026953643500,10.4226435546875,-0.012144026780128478,-0.715278267365694,0.4699560376994312
1783696026963606500,10.4326064453125,-0.15408347725272178,-0.5825099653422832,0.38769532231576737
1783696026973570600,10.442570556640625,-0.36361002478599547,-0.4752320784062147,0.22566110525429248
1783696026983534600,10.45253466796875,-0.6089958212077617,-0.303913973236084,-0.010030687887966632
1783696026993498600,10.46249853515625,-0.6662041475951671,-0.13366846573352814,0.03452127828299999
1783696027003461600,10.472461669921875,-0.7698603369027376,-0.12070493926405906,0.09075937139876186
1783696027013425700,10.48242578125,-0.7394587688982486,-0.12484978398382662,0.051562794781103725
1783696027023389700,10.4923896484375,-0.570158433291316,-0.09995148957073688,0.062378641697391865
1783696027033353500,10.502353515625,-0.2640571791440248,-0.10785481004118919,0.08745134282931685
1783696027043316500,10.51231640625,-0.020574585995078085,-0.180403913423419,0.10139518557302653
1783696027053280500,10.522280517578125,0.10479542247056961,-0.21010639324784278,0.1711817654393613
1783696027063244500,10.53224462890625,0.039891280883550644,-0.04457388574182987,0.22917685829028486
