time,seconds_elapsed,z,y,x
1783696027866786300,0.064786376953125,-1.3024211532056331,0.5362836362183093,-0.4794473580136895
1783696027876750300,0.074750244140625,-0.8492997843205928,0.7292366500914096,-0.32266397415250536
1783696027886713300,0.08471337890625,-0.2504372345924377,0.8709896380811929,0.03913300986215472
1783696027896677400,0.094677490234375,0.20931728869676589,0.9169640382707118,0.36176826937682927
1783696027906641200,0.10464111328125,0.4697364035993814,0.962857774439454,0.5803440194800495
1783696027916605200,0.114605224609375,0.6439560754299164,0.9016787908554077,0.7603758116554469
1783696027926568200,0.124568115234375,0.800354259365797,0.7520213133513927,0.8755994699642061
1783696027936532200,0.1345322265625,0.8296464048236608,0.5410989275455474,0.9400490727167576
1783696027946496300,0.144496337890625,0.5883809032022953,0.326277196213603,0.9829746067296713
1783696027956460300,0.154460205078125,0.3005436200201511,0.20577567056715487,1.0350968620244414
1783696027966424300,0.16442431640625,0.03813245451748371,0.10783844342827796,1.113138717604056
1783696027976387300,0.17438720703125,-0.053445758983492846,0.02992985883951187,1.1640497704781592
1783696027986351400,0.184351318359375,-0.07495090382695198,-0.027803368204832077,1.0714356380581855
1783696027996315100,0.194315185546875,-0.11075813026726246,0.0003249941706657409,0.93961323858276
1783696028006279200,0.204279052734375,-0.1387976453155279,0.13295242641866206,0.7528660205472261
1783696028016242200,0.2142421875,-0.21122750623226164,0.34703590660393235,0.5601665430437773
1783696028026206200,0.224206298828125,-0.34441023427546025,0.6011831016302108,0.3289947115439921
1783696028036170200,0.234170166015625,-0.517244589227438,0.8887836534470319,0.12122889007292688
1783696028046134300,0.24413427734375,-0.693640436053276,1.0644061778128147,-0.00561491727232933
1783696028056097300,0.25409716796875,-0.7943629099965095,1.1716419791728256,-0.04194134528115392
1783696028066061300,0.264061279296875,-0.848883604735136,1.2154752756804228,-0.05527041712738573
1783696028076025300,0.274025390625,-0.80159812194705,1.1881903783917427,-0.10048881131783127
1783696028085989000,0.283989013671875,-0.6572516103327274,1.1319722320854664,-0.07173303775899112
1783696028095952400,0.293952392578125,-0.43100422962307927,1.0046166027605532,-0.055579848402738566
1783696028105916200,0.303916259765625,-0.16430501153767108,0.8504664900124073,-0.04069456009045243
1783696028115880200,0.313880126953125,0.12785598006248475,0.7048281850218773,-0.00806581755578518
1783696028125844200,0.32384423828125,0.35342823798954487,0.5889882214456796,0.03892345876470208
1783696028135807200,0.33380712890625,0.49728024408519267,0.4742722934633493,0.1019944666404277
1783696028145771300,0.343771240234375,0.5498638332813978,0.39619595109224315,0.17452347708269952
1783696028155735300,0.3537353515625,0.5007511350661515,0.384912925055623,0.2164626304067671
1783696028165699300,0.36369921875,0.4172276332050562,0.3882739259213209,0.18124021811708807
1783696028175662300,0.373662353515625,0.22756372400522232,0.38346447981297965,0.09533836975209414
1783696028185626400,0.38362646484375,-0.03617839784026146,0.3740390643417835,0.014624007027596234
1783696028195590100,0.393590087890625,-0.2833288658469915,0.36358430582284923,-0.11925086799822747
1783696028205554200,0.40355419921875,-0.45628480135202404,0.34506606783568855,-0.2867024339333176
1783696028215517200,0.41351708984375,-0.588959579873085,0.3090530896902084,-0.36913010338172314
1783696028225481500,0.4234814453125,-0.699535923832655,0.23242343899607656,-0.4230693449705839
1783696028235445500,0.433445556640625,-0.7736041996061801,0.22878245214521883,-0.4256861764054745
1783696028245409500,0.443409423828125,-0.8643477158486843,0.22413258051276205,-0.42883039271533485
1783696028255372500,0.45337255859375,-0.9008364948123693,0.22017595184147357,-0.42695955734215674
1783696028265336600,0.463336669921875,-0.900456555584073,0.2266138759344816,-0.4100488276168704
1783696028275300600,0.473300537109375,-0.8354021918714046,0.15024667556881904,-0.40978469678796825
1783696028285264400,0.483264404296875,-0.6801040781319141,0.07707680993974209,-0.4457106542371213
1783696028295227600,0.4932275390625,-0.43502515570223327,0.01023731637597084,-0.45819384984374045
1783696028305191400,0.50319140625,-0.16370996825397013,-0.07986322578787804,-0.4257848144743591
1783696028315155500,0.513155517578125,0.10491583397984504,-0.12056290044486521,-0.4156010549165308
1783696028325119500,0.523119384765625,0.2558411394625902,-0.1697200223237276,-0.34786811964437364
1783696028335082500,0.53308251953125,0.3069441347122192,-0.15792612415552137,-0.29107458460293706
1783696028345046500,0.543046630859375,0.2890501661032438,-0.13524842840135096,-0.21186624252721667
1783696028355010600,0.553010498046875,0.20840485002696513,-0.1331120008945465,-0.16194142421148716
1783696028364974600,0.562974609375,0.14207272146344185,-0.1324105746269226,-0.1430168704457581
1783696028374937600,0.5729375,0.09506137944161891,-0.17255553801059723,-0.13210216626487672
1783696028384901600,0.582901611328125,0.013392565536499023,-0.2446779404133558,-0.1280319211512804
1783696028394865400,0.592865478515625,-0.06855038913488387,-0.255600900965929,-0.1038853218883276
1783696028404829400,0.602829345703125,-0.14216273783445357,-0.30005145258903504,-0.08382964520081877
1783696028414792400,0.61279248046875,-0.11605506763160228,-0.346495808377862,-0.030725612327083943
1783696028424756500,0.622756591796875,-0.03673778528869152,-0.45085693108439445,0.15197379162237049
1783696028434720500,0.632720458984375,0.12049041973054408,-0.5881891800224781,0.3976201386764645
1783696028444684500,0.6426845703125,0.3690495854914188,-0.7008119351178407,0.5160428122222424
1783696028454647600,0.6526474609375,0.540997220736742,-0.7410603588759899,0.4980163763400167
1783696028464611600,0.662611572265625,0.5782435400694609,-0.680756989082694,0.41004868148639795
1783696028474575600,0.67257568359375,0.5256394926071166,-0.6179699857801199,0.3311854995865375
1783696028484539400,0.682539306640625,0.3730290105164051,-0.5393213964790106,0.3425692825838923
1783696028494502700,0.692502685546875,0.20882687483131884,-0.4006657899826765,0.3543745058637112
1783696028504466400,0.702466552734375,0.15553601414859294,-0.26457214292883874,0.36694369925335046
1783696028514430500,0.712430419921875,0.1915402244657278,-0.1730973898023367,0.40716150867752726
1783696028524394500,0.72239453125,0.21938509372472761,-0.16588497420549392,0.43809082688316703
1783696028534357500,0.732357421875,0.2266010164529085,-0.17828326800763605,0.41744215273857116
1783696028544321500,0.742321533203125,0.20529285548627374,-0.18899696972370147,0.4147508678279817
1783696028554285600,0.75228564453125,0.20499767193198204,-0.20384616380929946,0.44080973045304417
1783696028564249600,0.76224951171875,0.23137480672597885,-0.25873686090409753,0.5111499256141484
1783696028574212600,0.772212646484375,0.2650093653023243,-0.2661334008961916,0.5927730737466365
1783696028584176600,0.7821767578125,0.22468144656717776,-0.20013035815656183,0.6668059859458356
1783696028594140400,0.792140380859375,0.16279752958416938,-0.13128420094549656,0.7373664727941155
1783696028604104400,0.8021044921875,0.08188333343863487,-0.03301204276382923,0.7512455066733061
1783696028614067500,0.8120673828125,-0.029952655193209648,0.046266076612472534,0.7228355508774519
1783696028624031500,0.822031494140625,-0.13453589621782303,0.18934651381373405,0.6526477697990835
1783696028633995500,0.83199560546875,-0.2508516606122255,0.32778701625466344,0.5096708660375326
1783696028643959600,0.84195947265625,-0.34491000049114223,0.46180619512200355,0.2969352933298796
1783696028653922600,0.851922607421875,-0.37886429254114623,0.6140665486007928,0.10119630200006068
1783696028663886600,0.861886474609375,-0.40235038206875323,0.7354360892534255,-0.07228226913958788
1783696028673850600,0.8718505859375,-0.4578092344403267,0.8827326828449964,-0.26588205648362634
1783696028683814400,0.881814453125,-0.5703992563098669,1.013901148456335,-0.4505553908545524
1783696028693777400,0.89177734375,-0.7243442018747329,1.082160445690155,-0.5731600993253291
1783696028703741400,0.901741455078125,-0.8984551526337862,1.125116959363222,-0.5998861206222326
1783696028713705500,0.91170556640625,-0.9771370596826076,1.120832998433709,-0.6425598718311637
1783696028723669500,0.92166943359375,-0.9023135816276073,1.0602905591875313,-0.578363147861138
1783696028733632300,0.93163232421875,-0.7048404599815606,0.917478417533636,-0.4481681303918361
1783696028743596500,0.941596435546875,-0.37158874858021734,0.7668342670798302,-0.3041678749319166
1783696028753560600,0.951560546875,-0.0017746084570884704,0.5605857183039188,-0.197016463919729
1783696028763524600,0.961524658203125,0.295569923260808,0.29449089585244653,-0.1370080584850162
1783696028773487400,0.9714873046875,0.465606171926856,0.03210778740048408,-0.06675422643311321
1783696028783451600,0.98145166015625,0.5074556011408567,-0.1484744051992893,-0.006834887521341443
1783696028793415400,0.99141552734375,0.5408943448841571,-0.2740297071039676,-0.17433993720933794
1783696028803379500,1.00137939453125,0.5322323150008916,-0.40942075884640217,-0.18774587368406354
1783696028813342200,1.01134228515625,0.48737727423012256,-0.44512744752168654,-0.15757899121828375
1783696028823306200,1.02130615234375,0.4502133724838495,-0.3882067059040069,-0.23667006358988582
1783696028833270500,1.0312705078125,0.3884358384847641,-0.3125239806711674,-0.2619762081515044
1783696028843234600,1.041234619140625,0.33402971003651616,-0.1955091280966997,-0.28298275582306087
1783696028853197300,1.051197265625,0.2447358080804348,-0.050581017202138895,-0.2869667108926922
1783696028863161300,1.061161376953125,0.1022206035465002,0.05336158783137798,-0.24730565856844186
1783696028873125600,1.071125732421875,-0.051014147922396655,0.10443184985518456,-0.23115926427915692
1783696028883089700,1.081089599609375,-0.1933867291152477,0.0760521430671215,-0.21831256912238894
1783696028893052400,1.091052490234375,-0.33063656046688555,0.008516483932733535,-0.2605631995484233
1783696028903016400,1.101016357421875,-0.33889643929004665,-0.043294367325305935,-0.2673040521107614
1783696028912980500,1.11098046875,-0.25603461620807644,-0.14800678768754005,-0.21203421950526535
1783696028922943200,1.120943115234375,-0.034493221232295035,-0.2510159112632274,-0.16363588010445237
1783696028932907300,1.1309072265625,0.21871640068292617,-0.34318156926333904,-0.09006839345991612
1783696028942871300,1.140871337890625,0.4152478575646877,-0.4087210861444473,-0.041664574166387316
1783696028952835300,1.15083544921875,0.5580746122658252,-0.46148704617023467,-0.015329890274628995
1783696028962798300,1.16079833984375,0.6367734704494475,-0.5282067127466201,-0.021810484465584156
1783696028972762400,1.170762451171875,0.7038228073716163,-0.5673743555307388,-0.10770809504687785
1783696028982726400,1.180726318359375,0.6905693580448627,-0.6709872902184725,-0.20268756835870444
1783696028992690400,1.1906904296875,0.6714981623500585,-0.6931973684608936,-0.2721734847780317
1783696029002653400,1.2006533203125,0.6391571507155895,-0.650059068480134,-0.3375707436442375
1783696029012617500,1.210617431640625,0.47370472270846364,-0.6989052247136831,-0.48081345873512327
1783696029022581200,1.220581298828125,0.2912619969338178,-0.6849503491193055,-0.6788105311900376
1783696029032545300,1.230545166015625,0.2021756002485752,-0.7108031677782535,-0.8463944182679056
1783696029042508300,1.24050830078125,0.23959259997308252,-0.6567296322852373,-0.8658873465061188
1783696029052472300,1.250472412109375,0.3163379860013723,-0.6564812104821205,-0.8487966571040451
1783696029062436400,1.260436279296875,0.41625148164927955,-0.6220990484088659,-0.7955470052145421
1783696029072400400,1.270400390625,0.4657680844902992,-0.5573398682504892,-0.7000836208432912
1783696029082363400,1.28036328125,0.5304869326382875,-0.43490942036807534,-0.5732244697984308
1783696029092327400,1.290327392578125,0.5367857405215501,-0.3477612982690334,-0.39841143518462774
1783696029102291500,1.30029150390625,0.38274610241055484,-0.30263328577578064,-0.23011231250949202
1783696029112255200,1.310255126953125,0.1838712972730398,-0.2223924588471651,-0.1323592097658664
1783696029122218500,1.320218505859375,-0.008034253373742103,-0.16390227595567702,-0.12169168527908622
1783696029132182300,1.330182373046875,-0.12626958765387533,-0.1455073720872402,-0.19094839605242012
1783696029142146300,1.340146240234375,-0.20118951182067393,-0.18173486976623535,-0.28703860708512363
1783696029152110300,1.3501103515625,-0.2576683548897505,-0.19531214421987533,-0.3804023888286203
1783696029162073300,1.3600732421875,-0.2754705535620451,-0.1755932982712984,-0.5058412247467786
1783696029172037400,1.370037353515625,-0.2746241658657789,-0.15491992807686328,-0.6270319017011672
1783696029182001400,1.38000146484375,-0.3561065172880888,-0.12820844676196574,-0.678183704528585
1783696029191965400,1.38996533203125,-0.5088754048109054,-0.10553659622669219,-0.6634164165727794
1783696029201928400,1.399928466796875,-0.6547615470826625,-0.15110066204965114,-0.5405401976842433
1783696029211892500,1.409892578125,-0.6761053638845682,-0.4201443974345922,-0.23800891097821295
1783696029221856300,1.419856201171875,-0.42439971679151056,-0.7764069820672274,0.03435870813243091
1783696029231820500,1.429820556640625,-0.08541209208667278,-1.0078402409821747,0.06467720096334814
1783696029241783300,1.439783203125,0.17560265062153338,-1.057920907446742,-0.01870988810174167
1783696029251747300,1.449747314453125,0.25874036803543565,-0.9997294152408838,-0.16224384122416377
1783696029261711600,1.459711669921875,0.05521335317790508,-1.0886574064940213,-0.4254366586238146
1783696029271675600,1.469675537109375,-0.21847382409870622,-0.8670271641910076,-0.6765889826830476
1783696029281638400,1.479638427734375,-0.7270213121294975,-0.6178776313215494,-0.9573677987210452
1783696029291602400,1.4896025390625,-1.238684886354208,-0.26223171728253364,-1.0498340471029282
1783696029301566500,1.49956640625,-1.5945546722769737,0.03768646431565285,-0.9197051536723971
1783696029311530500,1.509530517578125,-1.7654525062084196,0.21911212200224398,-0.7209821780957281
1783696029321493500,1.519493408203125,-1.6888105805546045,0.5059399358808994,-0.5870352607470005
1783696029331457300,1.529457275390625,-1.3668810581564903,0.71580784419775,-0.4586034535579383
1783696029341421300,1.53942138671875,-0.9541349542796611,0.7222796705603599,-0.30048838270157574
1783696029351385600,1.549385498046875,-0.5560439832210541,0.5797200423628092,-0.13870938251018525
1783696029361348400,1.559348388671875,-0.22289923932552336,0.4480243380069732,-0.01648717055097222
1783696029371312400,1.5693125,-0.05625906283855438,0.31355273919701576,0.05332184034287929
1783696029381276400,1.5792763671875,-0.06288987915515899,0.1588584365695715,0.032612083660811184
1783696029391240700,1.58924072265625,-0.09662205288708209,0.07298106505870819,-0.06798121094480157
1783696029401203500,1.599203369140625,-0.03540156824886798,-0.02127192060947418,-0.17702026233449578
1783696029411167500,1.60916748046875,0.021255553996562957,-0.009162965142726898,-0.1867592737995088
1783696029421131300,1.61913134765625,0.11097440336644648,0.1949339585572481,-0.1388265791490674
1783696029431095600,1.629095458984375,0.16774433833658695,0.44102994907498355,-0.0030443361319601532
1783696029441058300,1.639058349609375,0.2439765141457319,0.7243015317767858,0.17133724826201796
1783696029451022300,1.649022216796875,0.27081425218880173,1.0120295093655585,0.3096452103644609
1783696029460986400,1.658986328125,0.17046704129874704,1.1516940006434917,0.3892876330085098
1783696029470950400,1.668950439453125,0.1010486371576786,1.2277870602428913,0.3288805105797946
1783696029480913400,1.678913330078125,0.15812661516368387,1.1360580400943756,0.31050664949938656
1783696029490877400,1.68887744140625,0.1956657799631357,0.882946033334732,0.40267859110981225
1783696029500841500,1.698841552734375,0.19091069439053535,0.722919137507677,0.5265728279344737
1783696029510805200,1.70880517578125,0.20734218923151493,0.569613658890128,0.5375583323292434
1783696029520768500,1.7187685546875,0.15049568189382553,0.36664661600291726,0.5427893648505211
1783696029530732300,1.728732177734375,0.047403556209802626,0.21710545835494993,0.5514329822942614
1783696029540696300,1.7386962890625,-0.07562661113142967,0.17908523204028606,0.5028618436098099
1783696029550659300,1.748659423828125,-0.11704349414706229,0.24770693284571169,0.3394220705993473
1783696029560623400,1.758623291015625,-0.16242460461854935,0.3097691290050745,0.1559976403109729
1783696029570587400,1.76858740234375,-0.125516723459959,0.398870723259449,-0.13286372522190212
1783696029580551400,1.778551513671875,-0.2078039615243673,0.43725627575516696,-0.39790976927280425
1783696029590514400,1.788514404296875,-0.25953356423974033,0.5542810652017593,-0.7975924665022641
1783696029600478500,1.798478515625,-0.4350900376319885,0.6148661745458841,-1.0707269783321767
1783696029610442500,1.8084423828125,-0.6724731448620558,0.7063339134097099,-1.1848548772934824
1783696029620406300,1.81840625,-0.8644517607450485,0.8049538621157407,-1.279565470536053
1783696029630369500,1.82836962890625,-0.9731810155332088,0.8662602714717388,-1.3137050560250878
1783696029640333300,1.838333251953125,-0.9646177698493004,0.8880904104858637,-1.260951078698039
1783696029650297300,1.84829736328125,-0.8647405145585536,0.8971756342172622,-1.1641793151419608
1783696029660261400,1.858261474609375,-0.6216045428901911,0.8858113596379756,-1.1157793683059514
1783696029670224400,1.868224365234375,-0.3903150763601064,0.8306815930902958,-1.050276603238657
1783696029680188400,1.8781884765625,-0.2617103237569332,0.739224960142374,-0.9123048142880201
1783696029690152400,1.88815234375,-0.29131343486011024,0.6736334208130836,-0.7925978730853647
1783696029700116500,1.898116455078125,-0.3119552408725023,0.6513660594254732,-0.7214134091198444
1783696029710079500,1.90807958984375,-0.22886194712221622,0.5827987191557884,-0.6615971652563661
1783696029720043500,1.91804345703125,-0.0027110125243663785,0.4543073637992143,-0.6121174603596329
1783696029730007300,1.92800732421875,0.22731004150509834,0.25125498071610924,-0.5857757622051983
1783696029739971300,1.937971435546875,0.3901426424026489,0.12326397609710693,-0.6178564424030483
1783696029749934300,1.947934326171875,0.38363165307343006,0.09847323371171951,-0.6120701140865683
1783696029759898400,1.9578984375,0.3623614860296249,0.10278232908248901,-0.8084655965637415
1783696029769862400,1.9678623046875,0.26859189996421334,0.11315993071198463,-0.7653999964930117
1783696029779826400,1.977826416015625,0.08172551252841949,0.1539087052077055,-0.7217618572313338
1783696029789789400,1.98778955078125,-0.16346622262597083,0.21836334946155547,-0.8031248931229114
1783696029799753500,1.99775341796875,-0.40632805352807044,0.31830724024772644,-0.9008188130252063
1783696029809717500,2.007717529296875,-0.4803437223315239,0.4173018674850464,-0.9498805117055773
1783696029819681300,2.017681396484375,-0.4389326845347881,0.3179290545850992,-0.9481059763137251
1783696029829644500,2.02764453125,-0.28684125788211823,0.253057061702013,-0.9115414287000894
1783696029839608300,2.0376083984375,-0.1303764384508133,0.2098749225795269,-0.8813870403897017
1783696029849572400,2.047572265625,-0.08240121983289718,0.1496557239383459,-0.8103512641798705
1783696029859536400,2.057536376953125,-0.1294914723098278,0.16685528054237364,-0.7104441252075135
1783696029869499400,2.06749951171875,-0.2809247273147106,0.2559317403554916,-0.6130682582784444
1783696029879463400,2.07746337890625,-0.4832148938536644,0.3526367953509092,-0.4855318655591458
1783696029889427500,2.087427490234375,-0.6539864710569381,0.44695349390506744,-0.39324849946349855
1783696029899391500,2.0973916015625,-0.8849749088138341,0.5770107834041118,-0.307449015494436
1783696029909354500,2.1073544921875,-1.0952671800225973,0.7988087834894657,-0.27109168089069424
1783696029919318500,2.117318603515625,-1.1171370665252207,1.0526163712978363,-0.2705463950328529
1783696029929282300,2.1272822265625,-1.0425357067883014,1.1715227367073298,-0.2752976081479341
1783696029939245600,2.13724560546875,-0.9013403526812791,1.1736533189952372,-0.22113566371910273
1783696029949209300,2.147209228515625,-0.7347977913498878,1.0837135203510522,-0.1859755030106753
1783696029959173400,2.15717333984375,-0.6278045665740967,0.9114449825882911,-0.13029051373302936
1783696029969137400,2.167137451171875,-0.6532289306879043,0.5429974546432494,-0.18970763874370603
1783696029979100400,2.177100341796875,-0.7890063513994217,0.254396201351285,-0.29482020087204874
1783696029989064400,2.187064453125,-0.793496648555994,0.12711831343770028,-0.5083456087831407
1783696029999028500,2.197028564453125,-0.7024883438974618,0.030659342157840726,-0.705239834562689
1783696030008992500,2.206992431640625,-0.5848492219448089,-0.03366787632405758,-0.8363232522390782
1783696030018955500,2.21695556640625,-0.520163107022643,-0.025793781948089598,-0.97444920883812
1783696030028919600,2.22691943359375,-0.6291501359641551,0.0399497330725193,-1.0698914042908698
1783696030038883300,2.23688330078125,-0.8369733867108822,0.11827917342185973,-1.1554301184318958
1783696030048847400,2.246847412109375,-0.9574936170578002,0.3023410248309374,-1.149757771883905
1783696030058810400,2.256810302734375,-1.0213152241051195,0.4323725953668356,-1.0381900787994265
1783696030068774400,2.2667744140625,-0.9320417804151773,0.5128571679234505,-0.94189572349675
1783696030078738400,2.276738525390625,-0.7738818475037813,0.5548825382262468,-0.9352130308624357
1783696030088702500,2.286702392578125,-0.7107628357678651,0.5385352145373821,-0.9919252442959695
1783696030098665500,2.29666552734375,-0.6883370689481496,0.5329407555311918,-1.102472289095819
1783696030108629500,2.30662939453125,-0.5860480763405561,0.5770218893200159,-1.2609148383408784
1783696030118593500,2.316593505859375,-0.3662427113771438,0.5889777000516653,-1.3529345119990408
1783696030128557600,2.3265576171875,-0.3593734101295471,0.5527414345443249,-1.3033616489261388
1783696030138520600,2.3365205078125,-0.4415875829577446,0.7393430335640907,-1.5122610044717788
1783696030148484400,2.346484375,-0.6784329300493002,0.8490326578170061,-1.5500227259807289
1783696030158448400,2.356448486328125,-0.890986131927371,0.9634352820664643,-1.4104026583664118
1783696030168412400,2.366412353515625,-0.9801251355826854,1.0829553954601288,-1.43477707503587
1783696030178375400,2.37637548828125,-0.927827377590537,1.0774708265691995,-1.5193822346538304
1783696030188339500,2.38633935546875,-0.7921218530714511,1.043446391892433,-1.5708581548690794
1783696030198303500,2.396303466796875,-0.6708499275743961,1.0601368299305438,-1.5412930376887322
1783696030208267500,2.406267578125,-0.5451800593793392,1.0846657065093517,-1.705374761864543
1783696030218230500,2.41623046875,-0.42552667499482627,1.107267414417863,-1.7996379766657948
1783696030228194600,2.426194580078125,-0.511377158498764,1.0299749159008265,-1.80070516750589
1783696030238158600,2.43615869140625,-0.6798188314497471,1.0666869822263716,-2.027808580522984
1783696030248122400,2.446122314453125,-0.8451233754187821,1.089362924414873,-2.256102810759842
1783696030258085400,2.45608544921875,-1.1027362007290125,1.0594827499359845,-2.2960744634032246
1783696030268049400,2.46604931640625,-1.2690081284254788,1.0719827505469322,-2.397419014767557
1783696030278013400,2.476013427734375,-1.3196060967624186,1.0728946046948433,-2.430163638766855
1783696030287976400,2.4859765625,-1.1532798085302114,1.1194658017337322,-2.416313246460259
1783696030297940500,2.4959404296875,-0.8628051625818014,1.1018465584129093,-2.284758996401727
1783696030307904500,2.505904541015625,-0.5817652844548225,1.156850068232417,-2.0194073935329913
1783696030317868500,2.51586865234375,-0.44787119327187536,1.2279700155943631,-1.793308919774741
1783696030327831600,2.52583154296875,-0.4174257861256599,1.2451005986154078,-1.636832994427532
1783696030337795600,2.535795654296875,-0.3703051385104656,1.2056781042873859,-1.6239245591461657
1783696030347759400,2.54575927734375,-0.24486674098372457,1.147996899691224,-1.5844374751493333
1783696030357723400,2.555723388671875,-0.24297639719247816,1.0166250204622744,-1.6036208990469574
1783696030367686400,2.565686279296875,-0.306146262332797,0.9348264426976441,-1.671429237642884
1783696030377650400,2.575650390625,-0.5859253267437219,0.8376403261870146,-1.755862255564332
1783696030387614500,2.585614501953125,-0.8010755593776703,0.9225538211017846,-1.7804124671921133
1783696030397578500,2.59557861328125,-0.9783516961693763,0.9644839143365621,-1.7632225551992653
1783696030407541500,2.60554150390625,-1.103253502601385,1.0145195726156233,-1.655038805464655
1783696030417505500,2.615505615234375,-1.1511948189496994,1.0402028799265624,-1.5271794644013046
1783696030427469600,2.625469482421875,-1.1400041473716496,1.080291729208827,-1.3219142275743185
1783696030437433600,2.63543359375,-1.1368325315982102,1.0751946983307599,-1.1371484656795858
1783696030447396600,2.645396728515625,-1.1681272490501402,1.087089718785882,-0.9737665603362023
1783696030457360400,2.6553603515625,-1.2066355511426925,1.088186281850934,-0.7763141892172396
1783696030467324400,2.665324462890625,-1.306011286652088,1.0365344205468892,-0.5580095842055977
1783696030477288400,2.675288330078125,-1.4110902022391556,1.0343091457128524,-0.38754232371114194
1783696030487251500,2.68525146484375,-1.5472574990510939,1.0495488004207612,-0.23007519536949692
1783696030497215500,2.695215576171875,-1.6151748509794472,1.0290087012171745,-0.13247918288372457
1783696030507179500,2.705179443359375,-1.5975333958268165,0.9406155474931001,-0.06923997883424163
1783696030517142500,2.715142578125,-1.4538228440284728,0.8767939404457807,-0.014786138786748051
1783696030527106600,2.7251064453125,-1.3538427128851414,0.6722942811638116,-0.019956746357679366
1783696030537070600,2.735070556640625,-1.3113795356869697,0.5390133534431457,-0.06658033117093146
1783696030547034600,2.74503466796875,-1.3348878370463848,0.4378770380020141,-0.1662258965976536
1783696030556997600,2.75499755859375,-1.3556874639689922,0.45170799495577807,-0.23834669156521557
1783696030566961400,2.76496142578125,-1.3777268618196248,0.4458955092847347,-0.2592421070124954
1783696030576925400,2.774925537109375,-1.3443717047065495,0.4552729939609766,-0.24974311484843492
1783696030586889500,2.784889404296875,-1.3184832302123308,0.5414677608579397,-0.27154680424705147
1783696030596852500,2.7948525390625,-1.1698463279277085,0.6729927848219871,-0.2542094466075301
1783696030606816500,2.80481640625,-1.010780970609188,0.7291624158114195,-0.258926611322537
1783696030616780500,2.814780517578125,-0.797547385251522,0.7968120567142963,-0.2053404940202832
1783696030626744600,2.82474462890625,-0.6816659206211566,0.7796686142116784,-0.1880494597405195
1783696030636707600,2.83470751953125,-0.7866215020895004,0.7723077300548553,-0.1531729382790625
1783696030646671600,2.844671630859375,-0.8914175090819597,0.8184832057744265,-0.21579919806197284
1783696030656635600,2.8546357421875,-0.9068839582830667,0.8271814760148525,-0.2511244862042367
1783696030666599400,2.864599365234375,-0.7747405101597309,0.803036045795679,-0.26723960857242346
1783696030676562400,2.8745625,-0.577810409349203,0.728327718552947,-0.24675679251402616
1783696030686526500,2.8845263671875,-0.44677872186005113,0.6088450145602226,-0.15332776351459323
1783696030696490500,2.894490478515625,-0.23051263693869112,0.39582653325796124,0.060246671169996255
1783696030706454500,2.90445458984375,0.008750877210497856,-0.004732289218902588,0.4567239234216511
1783696030716417500,2.91441748046875,0.265979671639204,-0.3267524125099182,0.7087603368390352
1783696030726381600,2.924381591796875,0.4686749118477106,-0.3549520865559578,0.477007344450429
1783696030736345600,2.934345703125,0.4791396072387695,-0.18844693462550638,-0.11663513254188
1783696030746309600,2.9443095703125,0.2063186914026737,-0.013501286607980728,-0.6443960012171417
1783696030756272600,2.954272705078125,-0.21600363459289074,0.20647826587855814,-0.972335796880722
1783696030766236400,2.964236328125,-0.5417933395504951,0.5299690462440252,-1.1005199859842658
1783696030776200400,2.974200439453125,-0.7440279765099287,0.6934118879944086,-1.0778509849932043
1783696030786164500,2.98416455078125,-0.6980863095462322,0.8408475977957248,-0.776789478578791
1783696030796127500,2.99412744140625,-0.3085059772014618,1.0207803865760565,-0.342291561621055
1783696030806091500,3.004091552734375,0.2632616448521614,1.156596385732293,0.15110336546339093
1783696030816055600,3.0140556640625,0.7901251262962817,1.144175295576453,0.4970057379927486
1783696030826018600,3.0240185546875,1.1628244664669036,1.0474404299646616,0.5936128855716437
1783696030835982600,3.033982666015625,1.331056880581379,0.9125286861717701,0.5682177475523204
1783696030845946600,3.043946533203125,1.283980072107911,0.7295014385074376,0.449432012847811
1783696030855910700,3.05391064453125,1.0089578468352556,0.5985667816519736,0.2901112925287336
1783696030865873700,3.063873779296875,0.5785632735431194,0.5858119294971227,0.22889248839095233
1783696030875837400,3.07383740234375,0.06839607535600661,0.5845803418755531,0.2966206013575196
1783696030885801500,3.083801513671875,-0.43433425082862376,0.621330402123928,0.37752873308844864
1783696030895765500,3.093765625,-0.7155033082932233,0.7976134362250566,0.4009816509988159
1783696030905728500,3.103728515625,-0.8637538416087627,0.8434288464605808,0.5736689986955374
1783696030915692500,3.113692626953125,-0.7411784322977065,0.8732599211007356,0.7256603990398347
1783696030925656600,3.123656494140625,-0.47134150070846076,0.7909972329556941,0.8770817444112151
1783696030935620600,3.13362060546875,-0.14595511585474014,0.6468412754774093,1.007109369424358
1783696030945583600,3.14358349609375,0.0020499182671308517,0.4937988317102194,1.0577234851785005
1783696030955547600,3.153547607421875,-0.04323299252688884,0.294553439694643,0.9829158622797578
1783696030965511700,3.16351171875,-0.13290157301425934,0.15938801340162753,0.818676828650385
1783696030975475500,3.173475341796875,-0.1780424449890852,0.025200492230057714,0.7433874866493045
1783696030985438500,3.1834384765625,-0.2539741765469313,-0.12252280234098434,0.6827513047050684
1783696030995402500,3.193402587890625,-0.3126449767023325,-0.1254220309138298,0.6484220418628305
1783696031005366500,3.203366455078125,-0.43117841714620586,-0.07125263383090495,0.6260824920218437
1783696031015330600,3.21333056640625,-0.4943775083810091,0.03720949445366859,0.7362086810611188
1783696031025293600,3.22329345703125,-0.4985767136365175,0.1408288588821888,0.8025256851207464
1783696031035257600,3.233257568359375,-0.41544250335395333,0.22827158001363276,0.815959678646177
1783696031045221600,3.2432216796875,-0.40136721625030036,0.21165011555850505,0.9319209305144845
1783696031055184600,3.2531845703125,-0.332303032374382,0.2454360653042793,0.8957001548372209
1783696031065148700,3.263148681640625,-0.1670925964295864,0.21386253091096877,0.7141553277503698
1783696031075112700,3.27311279296875,0.06774550249278545,0.09580138415396212,0.6802522544309496
1783696031085076500,3.283076416015625,0.22521745314002037,-0.03293605491816997,0.7348474026452749
1783696031095039500,3.29303955078125,0.3494844687998295,-0.16470891616344452,0.7455526287939399
1783696031105003500,3.30300341796875,0.39824411579370494,-0.24976503441929815,0.8003091050498187
1783696031114967600,3.312967529296875,0.32876667494177814,-0.2950333321660757,0.8704560426611453
1783696031124931600,3.322931640625,0.32999241734445095,-0.31329204243421555,0.8960472877744585
1783696031134894600,3.33289453125,0.4147141890794038,-0.33431729480624195,0.8994831074420362
1783696031144858600,3.342858642578125,0.5340010782390833,-0.3640706280350685,0.9121210552189498
1783696031154822700,3.35282275390625,0.5936772560447454,-0.41059681688845157,0.9189772777892649
1783696031164786700,3.36278662109375,0.6238754104316234,-0.3869540754944086,0.9026816112224012
1783696031174749700,3.372749755859375,0.6884925517708063,-0.32939269788563247,0.807920602966845
1783696031184713700,3.382713623046875,0.7450935599148273,-0.3091600571960211,0.7057683884814381
1783696031194677500,3.392677490234375,0.7559095529615879,-0.31295535782575606,0.6425491312414408
1783696031204641500,3.4026416015625,0.6405933209985494,-0.26898995937108994,0.5820171403240412
1783696031214604500,3.4126044921875,0.5186866047292947,-0.18081833944320677,0.5177244816988706
1783696031224568300,3.422568359375,0.46212359050810337,-0.08042612036764621,0.43540655623525376
1783696031234532600,3.43253271484375,0.4080401181429624,-0.08331891919970512,0.49371100729629397
1783696031244496600,3.44249658203125,0.4023860379040241,-0.07014788745939732,0.4396119720358401
1783696031254459400,3.45245947265625,0.3569675180315971,-0.11701076092123984,0.42385106993280347
1783696031264423400,3.46242333984375,0.18465923278033733,-0.14867138907611369,0.43393180750757454
1783696031274387700,3.4723876953125,0.2037140618622303,-0.11079904679954052,0.35099246220998465
1783696031284351500,3.4823515625,0.22340192815065382,-0.23105741133987903,0.406119963735342
1783696031294314500,3.492314453125,0.29705928503572937,-0.32488954124748703,0.40777079968228935
1783696031304278300,3.5022783203125,0.39834874521195884,-0.4254816668093204,0.3414747653454542
1783696031314242300,3.5122421875,0.4694944115370512,-0.5538859284043312,0.2805582320898771
1783696031324205300,3.522205322265625,0.3890145151555538,-0.6974363212049007,0.29147132883556187
1783696031334169300,3.53216943359375,0.3328454686880111,-0.7612351318985223,0.15437581126280128
1783696031344133400,3.54213330078125,0.3589116378366947,-0.8275257594078779,0.11585486888438462
1783696031354097400,3.552097412109375,0.42725978239774703,-0.8540437639772891,0.1775017622411251
1783696031364060400,3.562060302734375,0.43524844306409355,-0.821169668379426,0.2232498063288629
1783696031374024400,3.5720244140625,0.37083413082063194,-0.7377011115759611,0.25339842248558997
1783696031383988500,3.581988525390625,0.294338920161128,-0.6854635593384504,0.3030207507234067
1783696031393952300,3.5919521484375,0.23214286848902702,-0.6354477748036385,0.33591260117366906
1783696031403915500,3.60191552734375,0.1972264534085989,-0.5822738184988498,0.34000001661777496
1783696031413879300,3.61187939453125,0.24719839880168437,-0.5207084659457206,0.3373947294902056
1783696031423843300,3.62184326171875,0.24911095442473888,-0.5132745165526866,0.3584905628804117
1783696031433807400,3.631807373046875,0.13232581895291803,-0.49176469553411006,0.4095144284792244
1783696031443770400,3.641770263671875,-0.05086918649375438,-0.40957624166905876,0.42906909684203565
1783696031453734400,3.651734375,-0.15927052450180051,-0.30666999394595623,0.41256271013393997
1783696031463698400,3.661698486328125,-0.14582242938578127,-0.291325125297904,0.38019868295006454
1783696031473662500,3.671662353515625,-0.08243103044927119,-0.3364420318752527,0.35657062766849995
1783696031483625500,3.68162548828125,0.017083821269869803,-0.2916203088521957,0.39239261328652497
1783696031493589500,3.691589599609375,0.10252163231968879,-0.3967915788978338,0.5956960485212505
1783696031503553300,3.70155322265625,0.13113339429795742,-0.6865186213493347,0.950832113341987
1783696031513516500,3.7115166015625,0.2573398535877466,-0.8739198463141917,1.1594894768252968
1783696031523480300,3.721480224609375,0.45576399234831333,-0.744937492570281,1.017115945784375
1783696031533444400,3.7314443359375,0.4911649760752916,-0.5236258146971464,0.6947331266608089
1783696031543408400,3.741408447265625,0.48169805954992767,-0.37237726860940457,0.21704401049129662
1783696031553371400,3.751371337890625,0.40906712310314175,-0.2880254992306232,0.037914647048339245
1783696031563335400,3.76133544921875,0.3104746469259262,-0.060784431308507914,-0.11662936038821935
1783696031573299500,3.771299560546875,-0.026969839990139004,0.02796177363693714,-0.3217863876003772
1783696031583263500,3.781263427734375,-0.3636813364565372,0.20893559590280056,-0.47019364584758877
1783696031593226500,3.7912265625,-0.5794342111587524,0.2327443415135145,-0.4814005379080772
1783696031603190500,3.8011904296875,-0.6360059932082891,0.218819276535511,-0.26532047707810996
1783696031613154300,3.811154296875,-0.528671407648921,0.3227303173869848,-0.17425551032889633
1783696031623118300,3.821118408203125,-0.31857670483887196,0.3280307618826628,-0.16358100811205803
1783696031633081300,3.831081298828125,-0.1889116295278072,0.299346519190073,-0.14069876622911542
1783696031643045400,3.84104541015625,-0.23467384827136992,0.1813490853190422,-0.22248623807784168
1783696031653009400,3.851009521484375,-0.40443595617115496,0.08279460306465625,-0.42727698926087465
1783696031662973400,3.860973388671875,-0.7109224102437496,0.12067805125713348,-0.6161557759650051
1783696031672936400,3.8709365234375,-1.158275132599473,0.232749017688632,-0.7508093072131276
1783696031682900500,3.880900390625,-1.5716823307335377,0.44388943015933036,-0.8672149418480694
1783696031692864500,3.890864501953125,-1.900551297006011,0.6857640035897493,-0.8770410470746457
1783696031702828300,3.900828369140625,-2.088548734298348,0.9516776242554187,-0.8640206758514046
1783696031712791600,3.91079150390625,-2.117294351789355,1.1775766299188137,-0.8702184345129876
1783696031722755300,3.92075537109375,-2.0079665465861556,1.3210013505131006,-0.8483594347305595
1783696031732719400,3.93071923828125,-1.809053747525811,1.3170721943706274,-0.8255890922568738
1783696031742682400,3.940682373046875,-1.5008978989362716,1.2238608267098665,-0.8643616713088005
1783696031752646400,3.950646484375,-1.0871376495808363,1.0980495042175054,-0.8901275423366576
1783696031762610400,3.9606103515625,-0.612141718018055,0.9629138885408639,-0.8740954220768063
1783696031772574500,3.970574462890625,-0.2043622966378927,0.7770733370214701,-0.7692762534044683
1783696031782537500,3.980537353515625,0.06185118375718593,0.6359294208407401,-0.6394784185592085
1783696031792501500,3.99050146484375,0.23161095356941222,0.549518380844593,-0.5071442701693624
1783696031802465500,4.000465576171875,0.3590150982111692,0.5192489147871733,-0.35847660742029547
1783696031812429300,4.01042919921875,0.49784781484007834,0.533014989811182,-0.21433285183645784
1783696031822392600,4.020392578125,0.6482768612384796,0.5623942290306091,-0.13530077964309603
1783696031832356400,4.0303564453125,0.7795400193959474,0.5402297434955835,-0.11466269995775073
1783696031842320400,4.0403203125,0.8730752121835946,0.4832125557661056,-0.09715700001399964
1783696031852284400,4.050284423828125,0.8437000646173953,0.45064533416032787,-0.03419420175310224
1783696031862247400,4.060247314453125,0.7108826627552509,0.441922514000535,0.030791626768000423
1783696031872211500,4.07021142578125,0.5771908161461353,0.4455173236221075,0.04616488126032054
1783696031882175500,4.080175537109375,0.4587666812956333,0.41978667003810405,0.011174779889173805
1783696031892139500,4.090139404296875,0.35918110242784024,0.40825639124214647,-0.016503865957446396
1783696031902102500,4.1001025390625,0.23091654156446456,0.4549105903893709,-0.1038644252307713
1783696031912066600,4.110066650390625,0.06533727230727672,0.4395458479970693,-0.1866424790194258
1783696031922030300,4.1200302734375,-0.12611702744066713,0.4145341563373804,-0.26335900427941233
1783696031931993600,4.12999365234375,-0.2941045268833637,0.40381636296808715,-0.3002804025067016
1783696031941957400,4.139957275390625,-0.39989246752262114,0.40658933481276033,-0.30536661972980944
1783696031951921400,4.14992138671875,-0.408261067417264,0.3331301308482885,-0.23479159289952367
1783696031961885400,4.159885498046875,-0.32127427335977554,0.19479718043506145,-0.07116411529723554
1783696031971848400,4.169848388671875,-0.10965864459276199,0.06202946293354034,0.03068257690295577
1783696031981812500,4.1798125,0.15226736774146557,-0.10880173550248146,0.10484342633076012
1783696031991776500,4.189776611328125,0.3885433905124664,-0.31836276982724665,0.13381561911925674
1783696032001740500,4.199740478515625,0.5166255805462598,-0.46481589833199977,0.17875304094385355
1783696032011703600,4.20970361328125,0.6028624330192804,-0.5485363840699196,0.19185539136212318
1783696032021667600,4.21966748046875,0.703021427860856,-0.5766454572230577,0.15979458490852266
1783696032031631400,4.22963134765625,0.7824252194434403,-0.6082873806774616,0.20916078296080232
1783696032041595400,4.239595458984375,0.7032037986904383,-0.6132435417801141,0.2323412771379575
1783696032051558400,4.249558349609375,0.5728185924112796,-0.49517830336987967,0.15297423736918717
1783696032061522400,4.2595224609375,0.42752866246700283,-0.3792477389007807,0.12940328256972133
1783696032071486500,4.269486572265625,0.29715631566941736,-0.27954993183016774,0.12111450644563883
1783696032081450500,4.279450439453125,0.1130389346808195,-0.18798223972320555,0.17276782905440777
1783696032091413500,4.28941357421875,-0.08145780150294303,-0.08785305549800396,0.22481705564558505
1783696032101377500,4.29937744140625,-0.23719489118158815,-0.00008767828345298767,0.2618058200206607
1783696032111341600,4.309341552734375,-0.2985609217703342,0.07266483871638775,0.28417887027245015
1783696032121304600,4.3193046875,-0.2893640543580055,0.12128186236917972,0.35923623014856126
1783696032131268600,4.3292685546875,-0.28812837508320804,0.12520166616141795,0.35756931984964757
1783696032141232400,4.339232421875,-0.3490039918065071,0.11738660849630832,0.24389595972280947
1783696032151196400,4.349196533203125,-0.4809130466520786,0.09327157341539859,0.18977266680393368
1783696032161159400,4.359159423828125,-0.6818155582249165,0.06204407598078251,0.16638353484477847
1783696032171123500,4.36912353515625,-0.9469798218280077,0.01196224047243595,0.10969729610271751
1783696032181087500,4.37908740234375,-1.0733803423851729,-0.04383534233421087,-0.025059403258934614
1783696032191051500,4.389051513671875,-1.1344658024668692,-0.1635509782999754,-0.11885737516861408
1783696032201014500,4.3990146484375,-1.093048334929347,-0.18570903409421444,-0.24009766341838984
1783696032210978600,4.408978515625,-1.0465765066117048,-0.18773907861709593,-0.4099469746775925
1783696032220942600,4.418942626953125,-0.9159072226941585,-0.18137597332596778,-0.47376339409314094
1783696032230906400,4.42890625,-0.8465969551026821,-0.15880466055572032,-0.4045625782255083
1783696032240869600,4.43886962890625,-1.0079337644845248,-0.16638123328983784,-0.2994071268035099
1783696032250833400,4.44883349609375,-1.1845891390293837,-0.043451603713631624,-0.25500706325862554
1783696032260797400,4.45879736328125,-1.205937047484517,0.030866847428679463,-0.2741475613299757
1783696032270761500,4.468761474609375,-1.0759130757331847,-0.056817281243205064,-0.2838126673085615
1783696032280724500,4.478724365234375,-0.8716659299075603,-0.25743805326521396,-0.23012725435029713
1783696032290688500,4.4886884765625,-0.6221586696416139,-0.4553144950151443,-0.11613938491418957
1783696032300652500,4.498652587890625,-0.3574702068567276,-0.7457575767815112,-0.025440073139593004
1783696032310615600,4.508615478515625,-0.0994844565808773,-0.9019096770018339,-0.11840952180325984
1783696032320579600,4.51857958984375,0.0202384859085083,-0.9365992975890636,-0.2721208778079599
1783696032330543600,4.528543701171875,-0.12050795538723467,-1.0197235709995032,-0.4643741824464872
1783696032340507400,4.53850732421875,-0.2720370719820261,-0.8770809406936169,-0.6882067205667496
1783696032350470700,4.548470703125,-0.3772936822235584,-0.7305541624307632,-0.8856941629990934
1783696032360434400,4.558434326171875,-0.38634675725102424,-0.48564241326153273,-0.9585111235372722
1783696032370398500,4.5683984375,-0.2779705536842346,-0.151037533685565,-0.9264517053231597
1783696032380362500,4.578362548828125,-0.01816051059067249,0.18662205728590486,-0.8390626871403306
1783696032390325500,4.588325439453125,0.285640649920702,0.38870997925102707,-0.697145302369073
1783696032400289500,4.59828955078125,0.5424509266763925,0.4420627992540598,-0.5898446190793067
1783696032410253600,4.608253662109375,0.685727178710699,0.3866676597684622,-0.5520091747470199
1783696032420217600,4.618217529296875,0.7549988678574562,0.26809505635797976,-0.5141567427473143
1783696032430180600,4.6281806640625,0.8195973044961691,0.14943068301081658,-0.5285310127975419
1783696032440144600,4.63814453125,0.8380261106342076,-0.0022919103294610976,-0.5895083363296464
1783696032450108400,4.6481083984375,0.8348024724125862,-0.056714405390620226,-0.6025383521640673
1783696032460071700,4.65807177734375,0.8315075225204229,-0.0918681363582611,-0.6028980888545513
1783696032470035500,4.668035400390625,0.8042547739356756,-0.03534545414745807,-0.5944213889429345
1783696032479999500,4.67799951171875,0.7621656907469033,0.12864859174489973,-0.5387146627575159
1783696032489963500,4.687963623046875,0.6981850937455892,0.40655835515260696,-0.47630920611843464
1783696032499926500,4.697926513671875,0.5519049837201834,0.6695569651544093,-0.3899051073197275
1783696032509890600,4.707890625,0.3777688985198736,0.9047790949583053,-0.29525983439832926
1783696032519854600,4.7178544921875,0.24705402189493178,1.017914475750923,-0.1954099055059254
1783696032529818600,4.727818603515625,0.18092355338335037,1.00980774166286,-0.12688417588826267
1783696032539781600,4.73778173828125,0.20130057097971438,0.8585901752352714,-0.01934898972287774
1783696032549745700,4.74774560546875,0.36699323748350143,0.6425614062011241,0.05676405321862548
1783696032559709400,4.75770947265625,0.5818050319433212,0.35771044535338875,0.1601474534668028
1783696032569673500,4.767673583984375,0.7006091060221195,0.12018296121656893,0.262806119637005
1783696032579636500,4.777636474609375,0.7144236963629722,-0.05024608615934849,0.3026058132469654
1783696032589600500,4.7876005859375,0.5342430703014135,-0.1435036310493946,0.36868005805928256
1783696032599564500,4.797564453125,0.20850304970443248,-0.16065993303358553,0.4697503225268796
1783696032609527600,4.807527587890625,-0.05657236657142639,-0.12163842072188853,0.5662297520728782
1783696032619491600,4.81749169921875,-0.22650749295055864,-0.10780044950544833,0.6159589382186532
1783696032629455600,4.82745556640625,-0.2973679125934839,-0.051260816159844395,0.5812097694639116
1783696032639419600,4.837419677734375,-0.26673487392067907,0.08134674234390259,0.43083526626434177
1783696032649382700,4.847382568359375,-0.27691841428279873,0.1745744766175747,0.24969397847708313
1783696032659346700,4.8573466796875,-0.32832243830561636,0.31283962249159813,0.0007720803510397672
1783696032669310500,4.867310546875,-0.41920097910463805,0.4314811994850635,-0.22876696231514215
1783696032679274500,4.8772744140625,-0.45083413473069667,0.48504152475893497,-0.37030488278213886
1783696032689237500,4.887237548828125,-0.40642625320553777,0.5357973140060901,-0.42515579585582014
1783696032699201500,4.897201416015625,-0.3545978662908077,0.5433411535143852,-0.43334279210586096
1783696032709165600,4.90716552734375,-0.23869945052564143,0.5099380656063557,-0.3221378313865512
1783696032719129600,4.917129638671875,-0.041862873217463493,0.46556233278512954,-0.20268895659819244
1783696032729092600,4.927092529296875,0.21313538568019866,0.356865226700902,-0.11548687582220882
1783696032739056600,4.937056640625,0.5208832379907369,0.2143494376450777,-0.03060629679635167
1783696032749020700,4.947020751953125,0.7225882981181144,0.030512042641639706,0.09767441148422658
1783696032758984400,4.956984375,0.8857780418902635,-0.20394553253054618,0.1117555803393945
1783696032768947700,4.96694775390625,0.9894745632082224,-0.36695290547311304,0.0775002595162019
1783696032778911500,4.976911376953125,0.9823106629282236,-0.4736638061761856,0.09470361551251262
1783696032788875500,4.98687548828125,0.9309703517913818,-0.5595435157746076,0.09701189245488494
1783696032798839600,4.996839599609375,0.8326619532525539,-0.6849895120859145,0.09353610610309988
1783696032808802600,5.006802490234375,0.719944505611062,-0.8158803297996521,0.08907108951825649
1783696032818766600,5.0167666015625,0.5765776526838541,-0.8746142583191394,0.0896632832577452
1783696032828730600,5.026730712890625,0.45074762549102304,-0.7776116816818713,0.050190921906009316
1783696032838693600,5.036693603515625,0.2212766065597534,-0.6825824509441852,0.0238441457176581
1783696032848657700,5.04665771484375,0.01946691701412201,-0.5415905104547739,-0.05351579201240092
1783696032858621700,5.05662158203125,-0.15601999827325344,-0.40344694513380525,-0.058082223145104944
1783696032868585500,5.06658544921875,-0.21027356650829315,-0.2636298936426639,-0.07402872921442613
1783696032878548700,5.076548828125,-0.2782774276763201,-0.20536650524437428,-0.020402261635474858
1783696032888512500,5.086512451171875,-0.37749768036305903,-0.18815525820255277,0.03266310146199539
1783696032898476500,5.0964765625,-0.3832856161147356,-0.15779811386168002,0.0683274488328956
1783696032908440600,5.106440673828125,-0.27594635438024995,-0.1365326229929924,0.08992903978815302
1783696032918403600,5.116403564453125,-0.10418635066151619,-0.17171265744566916,0.1447231446406804
1783696032928367600,5.12636767578125,0.04687573294341564,-0.21767712076306342,0.18622796166809275
1783696032938331600,5.13633154296875,0.15657646311223505,-0.26755145100057126,0.2215412853779271
1783696032948295700,5.146295654296875,0.27386779454052446,-0.33791268894970417,0.2638188403435051
1783696032958258700,5.1562587890625,0.3176584209501743,-0.35333646805286406,0.31407807824537154
1783696032968222700,5.16622265625,0.26984569941759107,-0.3471966501235962,0.3682021018166095
1783696032978186500,5.1761865234375,0.20956278789043425,-0.2673655730396509,0.35504360076431185
1783696032988149800,5.186149658203125,0.19700959578752517,-0.16347031427919864,0.2649837194044143
1783696032998113500,5.196113525390625,0.13618658603429792,-0.11768880631327629,0.17296886805184183
1783696033008077600,5.20607763671875,0.018259879311919212,-0.055362990781664845,0.1424459934889339
1783696033018041600,5.21604150390625,-0.18107552907466887,-0.1753799477815628,0.30756244927365334
1783696033028004600,5.226004638671875,-0.3250800953835249,-0.4970405901104212,0.6964674761727452
1783696033037968600,5.23596875,-0.18918869290351867,-0.6623100627660751,0.8462412735328078
1783696033047932700,5.2459326171875,-0.08171382209062576,-0.7235784781992435,0.7164836976327001
1783696033057896700,5.255896728515625,-0.1275567048549652,-0.8327478779703378,0.6597281565140932
1783696033067859700,5.265859619140625,-0.2275759989649057,-0.9085393242746591,0.5711318814333528
1783696033077823700,5.27582373046875,-0.2933428948611021,-0.886830765813589,0.4163470875108614
1783696033087787500,5.28578759765625,-0.35292847177386283,-0.733141256314516,0.2162066463517025
1783696033097751600,5.29575146484375,-0.47243806377351283,-0.4684954636275768,0.10398436181601137
1783696033107714600,5.305714599609375,-0.4965805713832378,-0.21675182261168954,0.12466500200144946
1783696033117678600,5.3156787109375,-0.3633201019287109,-0.060362406504154205,0.24208653568066654
1783696033127642600,5.325642578125,-0.14168167631924153,0.14106675929129123,0.3960751011915505
1783696033137605600,5.335605712890625,0.10834171677529811,0.26747721672058106,0.3648862552668899
1783696033147569700,5.345569580078125,0.20983283700346944,0.2776058120250702,0.23101329820351674
1783696033157533700,5.35553369140625,0.13725450752675533,0.26301848374605175,0.015850443550013006
1783696033167497700,5.365497802734375,-0.008255787169933318,0.2111035875916481,-0.19307220153966917
1783696033177460700,5.375460693359375,-0.20077508580088615,0.17946926292181015,-0.2371394894662313
1783696033187424800,5.3854248046875,-0.40762043142616744,0.27446166878044603,-0.28303682409785685
1783696033197388500,5.395388427734375,-0.5980149929881096,0.4495382497012615,-0.2746850474738516
1783696033207352600,5.4053525390625,-0.8336953879535197,0.6549333965182303,-0.26755716835530474
1783696033217315600,5.415315673828125,-0.9802473006576299,0.8236211531847715,-0.2830928834003396
1783696033227279400,5.425279296875,-1.0627128178983927,0.977501801341772,-0.3852794933456927
1783696033237243400,5.435243408203125,-1.154804241618514,1.104471646219492,-0.43443259663656353
1783696033247207400,5.44520751953125,-1.205209902253747,1.1662345671713352,-0.4908654086068272
1783696033257170400,5.45517041015625,-1.1535188779830932,1.1065355930119751,-0.6078646252207458
1783696033267134500,5.465134521484375,-0.965614379671216,0.9354676632106304,-0.6531641948886215
1783696033277098500,5.475098388671875,-0.7184107201725244,0.6973433822244406,-0.6473474714338779
1783696033287061500,5.4850615234375,-0.5135924964606762,0.4658241985917091,-0.5904432060269639
1783696033297025500,5.495025634765625,-0.39132571470737454,0.30351649835109706,-0.5085317790050059
1783696033306989300,5.5049892578125,-0.26039748759269715,0.15534896714389324,-0.42636140878591683
1783696033316953300,5.514953369140625,-0.13566636155247688,0.025451836642622946,-0.35692046401947736
1783696033326916400,5.524916259765625,-0.0632294863730669,-0.08258826683759689,-0.3909676585173234
1783696033336880400,5.53488037109375,-0.07532090618312358,-0.11265841093063354,-0.45877124787289647
1783696033346844400,5.544844482421875,-0.13926000213026998,-0.11574527103006839,-0.5344430498529226
1783696033356808400,5.554808349609375,-0.17206161701381206,-0.09118132313787937,-0.5486448128804564
1783696033366771500,5.564771484375,-0.18914894541501998,-0.03666764266192913,-0.5510685694286599
1783696033376735500,5.574735595703125,-0.1319581546843052,0.07114566632509231,-0.5239856609854847
1783696033386699500,5.584699462890625,0.004849193596839905,0.2166664824157953,-0.5305492572847753
1783696033396663600,5.59466357421875,0.16570201885402203,0.3008335428774357,-0.4958141901206225
1783696033406626600,5.60462646484375,0.27119711402654645,0.37195816641449925,-0.4527784737315029
1783696033416590300,5.61459033203125,0.28905425775647164,0.41297932811081406,-0.41327151599042117
1783696033426554400,5.624554443359375,0.2762754402041435,0.4051449812233448,-0.36946868768632407
1783696033436517000,5.63451708984375,0.20518471893668175,0.36399230210185046,-0.31943266408108173
1783696033446481400,5.6444814453125,0.17714520388841629,0.2625800923287868,-0.2896017355713993
1783696033456445400,5.654445556640625,0.1734761599868536,0.16714987957477567,-0.2691018222477287
1783696033466409500,5.664409423828125,0.2051169143974781,0.08337737138867378,-0.2407900661293417
1783696033476372200,5.674372314453125,0.2795832495778799,-0.00795943457186222,-0.24488603020608424
1783696033486336500,5.68433642578125,0.2973386864989996,-0.11903145309388637,-0.2464140434909612
1783696033496300500,5.694300537109375,0.27766777134537696,-0.19552374114394186,-0.24033370066396892
1783696033506264600,5.7042646484375,0.2173679086834192,-0.2513017424672842,-0.27950397379659114
1783696033516227300,5.714227294921875,0.1861380731612444,-0.27598610186874867,-0.32670440864972766
1783696033526191400,5.72419140625,0.16905600545704363,-0.2952887682318687,-0.3502051112245768
1783696033536155400,5.7341552734375,0.19400749136209486,-0.3032598932415247,-0.3886180631838739
1783696033546119400,5.744119384765625,0.22980594997406004,-0.28981530525684357,-0.41780411791875954
1783696033556082200,5.754082275390625,0.22579320720136165,-0.2340823121190071,-0.4301428635533899
1783696033566046200,5.764046142578125,0.21370704808831215,-0.18455752597153186,-0.4243250441201031
1783696033576010500,5.774010498046875,0.2173766765117645,-0.1474725346803665,-0.47511305513642726
1783696033585973200,5.78397314453125,0.2380295884400606,-0.10356383484899997,-0.5157175257906318
1783696033595937300,5.793937255859375,0.2019973210722208,-0.11683949600756167,-0.49841911192201077
1783696033605901300,5.8039013671875,0.1317746148109436,-0.12235562908053398,-0.4674122715007514
1783696033615865300,5.813865234375,0.11038228269219398,-0.13494915319383144,-0.4492258958164602
1783696033625828400,5.823828369140625,0.10614332994818687,-0.15194412713646888,-0.3931775531191379
1783696033635792100,5.833792236328125,0.13079320255815982,-0.16497604266703128,-0.33700872584730385
1783696033645756200,5.843756103515625,0.16556114907860756,-0.13341536775529383,-0.32397257253304124
1783696033655720400,5.853720458984375,0.15561375555992127,-0.08438508712649345,-0.30218240020312365
1783696033665683200,5.86368310546875,0.10670154835283756,-0.04333177672624588,-0.30583244714327157
1783696033675647200,5.873647216796875,-0.009207388806343078,0.0055383449047803875,-0.34374102977700527
1783696033685611300,5.883611328125,-0.1473380946457386,0.048694765064120286,-0.41462731451354917
1783696033695574300,5.89357421875,-0.26769524338543416,0.07599778253138065,-0.4968720286104828
1783696033705538300,5.903538330078125,-0.3133925801992416,0.07261340079009533,-0.5677326674491167
1783696033715502300,5.91350244140625,-0.3278507291406393,0.01556464887857437,-0.611510288246721
1783696033725466400,5.92346630859375,-0.3566062835037708,-0.10539748001694679,-0.5921644403290003
1783696033735429400,5.933429443359375,-0.31137130350470543,-0.3509235616922378,-0.3869902427863329
1783696033745393200,5.94339306640625,-0.18545418255031107,-0.6417442445993423,-0.10616371514908969
1783696033755357200,5.953357177734375,-0.0029711247652769086,-0.7610171052336693,-0.0026071868237107993
1783696033765321200,5.9633212890625,0.05603285286724567,-0.7582581619143486,-0.10853365915082394
1783696033775284200,5.9732841796875,-0.09108721511363983,-0.6646978346854447,-0.3249698399420827
1783696033785248300,5.983248291015625,-0.2924883238583803,-0.5994938333690166,-0.5969187952492385
1783696033795212300,5.99321240234375,-0.43053193593621253,-0.4981967744082212,-0.887355812601
1783696033805176300,6.00317626953125,-0.5538561177879572,-0.34558103162050247,-1.0886158323746173
1783696033815139300,6.013139404296875,-0.6529255638271569,-0.15841069280207157,-1.0793972645871341
1783696033825103400,6.023103271484375,-0.6823503957539796,-0.0549988336443901,-0.8441704586081207
1783696033835067400,6.0330673828125,-0.5691127236306667,0.055664019554853436,-0.5133190863467753
1783696033845030400,6.043030517578125,-0.28960779998600483,0.11306874529719352,-0.28145591158196326
1783696033854994200,6.052994140625,0.025122166296839714,0.06650456252098083,-0.1547511473812163
1783696033864958200,6.062958251953125,0.18836627060472963,-0.017300678890943527,-0.0742968968976289
1783696033874922200,6.072922119140625,0.1495551861733198,-0.0982253964304924,-0.12816475375071168
1783696033884885200,6.08288525390625,-0.041780455631017684,-0.11047054549753665,-0.19922858701124785
1783696033894849300,6.092849365234375,-0.2913777322679758,-0.053771922197937964,-0.25661723840162154
1783696033904813300,6.102813232421875,-0.5027946235924959,0.16170798078179358,-0.3486118506837636
1783696033914777300,6.11277734375,-0.6026467444419861,0.514497336345911,-0.44103827851191163
1783696033924740400,6.122740234375,-0.607788783505559,0.8367027530759572,-0.48022060740850864
1783696033934704400,6.132704345703125,-0.5605839647382498,1.1053057589560746,-0.47341114658936856
1783696033944668400,6.14266845703125,-0.5286667314738035,1.2794067728430032,-0.4183801642410457
1783696033954631400,6.15263134765625,-0.44859833850264547,1.3033762619733809,-0.3265106396432966
1783696033964595200,6.16259521484375,-0.2891699930906296,1.3011971643686293,-0.17432035572603344
1783696033974559200,6.172559326171875,-0.05197743999660015,1.2072808633089065,-0.01578296780437231
1783696033984523300,6.182523193359375,0.16767302666604517,0.9631272390305995,0.08926584490537642
1783696033994486300,6.192486328125,0.35643969476521015,0.6984738475590944,0.18526574730612336
1783696034004450300,6.2024501953125,0.467954196357727,0.4756412437289953,0.3154487820766866
1783696034014414300,6.212414306640625,0.4000912049651146,0.27228315569758416,0.48525560590103267
1783696034024378400,6.22237841796875,0.2020575268268585,0.11564005708992481,0.6669661449436098
1783696034034341400,6.23234130859375,-0.04356967713534832,-0.00947042365670204,0.8426992170117795
1783696034044305400,6.242305419921875,-0.31166531801521774,-0.026225159102678298,1.03739556742087
1783696034054269400,6.25226953125,-0.45867257327139377,0.02987842091321945,1.1319148028098047
1783696034064233200,6.262233154296875,-0.5519622668653726,0.12587737346589564,1.12550785837695
1783696034074196200,6.2721962890625,-0.4557938029646873,0.30231179873645303,0.8578579154379665
1783696034084160300,6.28216015625,-0.3386486020088196,0.4431429957062006,0.5267675467889755
1783696034094124300,6.292124267578125,-0.25365210498571394,0.6306383286952972,0.08743694897778331
1783696034104087300,6.30208740234375,-0.26483050160408017,0.7873509854078292,-0.29944077334478497
1783696034114051300,6.31205126953125,-0.41482817084789275,0.9430097491532564,-0.5884561603955925
1783696034124015400,6.322015380859375,-0.7086158868670464,1.0395248345345258,-0.7531303705718367
1783696034133979400,6.3319794921875,-1.0124404282540083,1.0539964274793863,-0.7597044151999056
1783696034143942400,6.3419423828125,-1.2553180412471294,1.0709522384554147,-0.6692381084635853
1783696034153906400,6.351906494140625,-1.296753628963232,1.0630307978063822,-0.6009880905147642
1783696034163870200,6.3618701171875,-1.0747317569941282,0.9718149878770113,-0.5289152994073927
1783696034173834200,6.371834228515625,-0.5929723226457834,0.7828373073756695,-0.4620093895439058
1783696034183797200,6.38179736328125,-0.014050152662396431,0.5243377623587846,-0.41014812327288086
1783696034193761300,6.39176123046875,0.48735506239831444,0.2609048525929451,-0.39688992470577356
1783696034203725300,6.401725341796875,0.8991776216894388,-0.004372808256745338,-0.354289165667817
1783696034213689300,6.411689453125,1.148703586655855,-0.18390870667397974,-0.3834863263186067
1783696034223652400,6.42165234375,1.2631342679560185,-0.3027583734601736,-0.42514023296050724
1783696034233616000,6.431615966796875,1.214633564159274,-0.42659167387783525,-0.3991011710144579
1783696034243580000,6.441579833984375,1.0753256312340498,-0.3940203606188297,-0.3984360581692308
1783696034253543000,6.45154296875,0.8853624468266963,-0.3386737364500761,-0.394644995323196
1783696034263507000,6.4615068359375,0.6185223589658737,-0.3297410729318857,-0.41208362138010557
1783696034273471000,6.471470947265625,0.365446008041501,-0.2345183654487133,-0.46027445551007984
1783696034283434800,6.481434814453125,0.12679390378892422,-0.17761632853150366,-0.47237573912702496
1783696034293398000,6.49139794921875,-0.07502221549749374,-0.14513035546839237,-0.4862634677693248
1783696034303361800,6.50136181640625,-0.202532158601284,-0.12667290775775908,-0.5113699981056153
1783696034313325800,6.511325927734375,-0.17135668361485004,-0.11064999371767044,-0.4818061960995197
1783696034323289900,6.521289794921875,-0.0670066668242216,-0.12122983992099762,-0.45965829637311395
1783696034333252900,6.5312529296875,0.04706277994811535,-0.08560030813515186,-0.4363552352622151
1783696034343217000,6.541216796875,0.10018412928283214,-0.02248714161813259,-0.3546533958703279
1783696034353181000,6.551180908203125,0.07070201421082019,0.048553310766816134,-0.2945014172464609
1783696034363144000,6.56114404296875,0.005558803170919418,0.05464344433546066,-0.19829766283668576
1783696034373108000,6.57110791015625,-0.027344518521428107,0.05243102898299694,-0.09655673256590962
1783696034383072000,6.581072021484375,-0.04262976593673229,0.06918342634141444,-0.09370145273264496
1783696034393035800,6.591035888671875,-0.014967852029204368,0.059055415558815,-0.07753595188409089
1783696034402999000,6.6009990234375,-0.006177811852097511,0.0075052610635757445,-0.0177480938648805
1783696034412962800,6.610962890625,0.04723170677423477,-0.029199790999293325,-0.0364622197503224
1783696034422926800,6.6209267578125,0.058385553473234174,-0.06235445710420608,-0.15083857704736292
1783696034432891000,6.630890869140625,0.12608312517106532,-0.0562450343132019,-0.250350688820146
1783696034442854000,6.64085400390625,0.1521966405928135,-0.16330431006252766,-0.3718516007674858
1783696034452818000,6.65081787109375,0.14421090253591537,-0.20580723474919796,-0.4213966990506276
1783696034462782000,6.660781982421875,0.07388532042205333,-0.2779220383673906,-0.347196942384541
1783696034472746000,6.67074609375,0.03460837204456329,-0.4789519757121801,-0.21342264165636152
1783696034482709000,6.680708984375,0.10378536864519118,-0.647877048265934,-0.10236052347384393
1783696034492673000,6.690673095703125,0.21693360891938207,-0.6599924334734678,-0.12457915034890174
1783696034502636800,6.70063671875,0.21686171272695062,-0.6505903988778591,-0.22124643061719834
1783696034512600000,6.71060009765625,0.16365268510878084,-0.607682400521636,-0.3102309743631631
1783696034522563800,6.720563720703125,0.016736615267395973,-0.5543465316534042,-0.3594995937924832
1783696034532527900,6.73052783203125,-0.18019874624013899,-0.4177238922894001,-0.44784883530959485
1783696034542492000,6.740491943359375,-0.2718178762733936,-0.23140344829857348,-0.5203901207115501
1783696034552455000,6.750454833984375,-0.23093290817737577,-0.08638239842355251,-0.5651320564966649
1783696034562419000,6.7604189453125,-0.09879705883860587,0.02513502577841282,-0.5675922360651194
1783696034572383000,6.770383056640625,-0.021000117930769918,0.11002280173003673,-0.4855230246655643
1783696034582347000,6.780346923828125,-0.029653964507579803,0.12904548210799693,-0.371528323629871
1783696034592310000,6.79031005859375,-0.1398924548149109,0.14112170434892177,-0.2641470493845641
1783696034602274000,6.800274169921875,-0.28255963504016396,0.1354904204636812,-0.18628098876327276
1783696034612237800,6.81023779296875,-0.4218219752579927,0.1494943958967924,-0.18196444073840976
1783696034622201000,6.820201171875,-0.5500321755856276,0.1534802506625652,-0.2704629545331001
1783696034632164900,6.830164794921875,-0.6489905624657869,0.18063421504795552,-0.36589148678667843
1783696034642129000,6.84012890625,-0.7231073535561561,0.24084523038268088,-0.47718569669201966
1783696034652093000,6.850093017578125,-0.786709764894843,0.34956922447383404,-0.5684166311252862
1783696034662056000,6.860055908203125,-0.9095458709686994,0.4903945762246847,-0.644379488473758
1783696034672020000,6.87002001953125,-1.0140823502421379,0.642985184571147,-0.7410200999308377
1783696034681984000,6.87998388671875,-1.0803490123540163,0.8029653186470269,-0.9073908848918973
1783696034691948000,6.889947998046875,-1.0959662682026623,0.8928612781494856,-1.123498052924499
1783696034701911000,6.8999111328125,-1.0914882460057735,0.9683400052428245,-1.3469684432014821
1783696034711875000,6.909875,-1.1524147161334752,1.009100470176339,-1.5621882339403033
1783696034721838800,6.9198388671875,-1.1321510957837104,1.03735333571434,-1.8159069744214416
1783696034731802000,6.929802001953125,-1.0839280398845672,1.0010895976781844,-2.018010532347113
1783696034741766000,6.939765869140625,-1.060709076860547,0.9499953702569007,-2.0282570549428462
1783696034751730000,6.94972998046875,-0.8936614886164664,0.9746025727689266,-2.1354367422014473
1783696034761694000,6.95969384765625,-0.6629173810094594,0.9345026175707578,-2.011772368609905
1783696034771657000,6.969656982421875,-0.3051455608576536,0.8276081769943237,-1.7378016982167959
1783696034781621000,6.97962109375,0.08604162216186523,0.7483867562413216,-1.5321047919742763
1783696034791585000,6.9895849609375,0.40746027242839333,0.6214905611217022,-1.4038783711642027
1783696034801549000,6.999549072265625,0.7061310843139886,0.506436779487133,-1.363857472551614
1783696034811512000,7.009511962890625,0.8072334974855184,0.32485037828087804,-1.325305915839225
1783696034821476000,7.01947607421875,0.7165981177926063,0.22911329153478144,-1.3252736210048197
1783696034831440000,7.02943994140625,0.40607086389660835,0.23869418982863425,-1.4294101411752402
1783696034841403000,7.03940283203125,0.002044073048233986,0.31821780839860436,-1.5092106769904494
1783696034851367000,7.049366943359375,-0.2928536500394344,0.4472276346713304,-1.535285906228423
1783696034861331000,7.0593310546875,-0.4640858304917812,0.5271598340421915,-1.5539809620872138
1783696034871295000,7.069294921875,-0.5514227531611919,0.5712988354980946,-1.6048038252212107
1783696034881258000,7.079258056640625,-0.4820628012090921,0.7239250996798277,-1.632577821201086
1783696034891222000,7.089221923828125,-0.3758645262032747,0.8957207592338323,-1.5578163024663925
1783696034901186000,7.09918603515625,-0.3753934015601873,1.029416112974286,-1.4871084430366754
1783696034911150000,7.109150146484375,-0.49647009674608705,1.0340636465191841,-1.4370754151061176
1783696034921113000,7.119113037109375,-0.5968044481545687,0.9479729245185852,-1.3529907722309231
1783696034931077000,7.1290771484375,-0.6339344476312399,0.8049351574152708,-1.2472194904655218
1783696034941041000,7.139041015625,-0.5276327122509479,0.5911912844479084,-1.2456903812021016
1783696034951004000,7.14900390625,-0.2672334710925817,0.38997020844519137,-1.2681769382983445
1783696034960968000,7.158968017578125,0.06288637202382087,0.17427812401950357,-1.1985962562676518
1783696034970932000,7.168931884765625,0.2843547017633915,-0.02218961997628212,-1.1136571154549717
1783696034980896000,7.17889599609375,0.36760698546767234,-0.06462006394863128,-1.0660155127055941
1783696034990859000,7.18885888671875,0.3395937739044428,-0.1517471432596445,-0.9088194563902914
1783696035000823000,7.198822998046875,0.3243354144960642,-0.19796470455527304,-0.8923951950076967
1783696035010787000,7.208787109375,0.18501637565493584,-0.22857962304949758,-0.7567443963505327
1783696035020751000,7.218751220703125,0.05705576617419719,-0.24372107807993887,-0.6310745281554758
1783696035030714000,7.228714111328125,-0.12306290056705474,-0.22381050895154475,-0.5900119384702295
1783696035040678100,7.23867822265625,-0.30492928775846956,-0.1073135427713394,-0.5871336796201765
1783696035050642000,7.248641845703125,-0.36794133198857304,-0.011071429112553596,-0.5752379285126924
1783696035060605000,7.25860498046875,-0.3426151675522327,0.013373860836029051,-0.5243235877029597
1783696035070569000,7.26856884765625,-0.3543962062388658,0.055496261772513385,-0.44060660909637805
1783696035080533000,7.278532958984375,-0.38735505751073357,0.11051263107359409,-0.30458157029934224
1783696035090497000,7.2884970703125,-0.45320495551526546,0.1656289536178112,-0.2070038971878588
1783696035100460000,7.2984599609375,-0.5129612128198147,0.1393640470266342,-0.12646686379164457
1783696035110424000,7.308424072265625,-0.5289999089509249,0.08767506858259438,-0.07441862358115613
1783696035120388000,7.31838818359375,-0.5219932450592517,0.03648673313707113,-0.08228110058456659
1783696035130352000,7.32835205078125,-0.5126648602217435,-0.03296761910021305,-0.08194660793319344
1783696035140315100,7.338315185546875,-0.5607622439146042,-0.10116174214333296,-0.10591134782321751
1783696035150279200,7.348279052734375,-0.6574456716001034,-0.10500029739290476,-0.11167634109072387
1783696035160243000,7.358242919921875,-0.7188941197752953,-0.11216478219479321,-0.12406893580444156
1783696035170206000,7.3682060546875,-0.765109342983365,-0.10835223816931247,-0.12555698240511118
1783696035180169700,7.378169677734375,-0.7813970454394817,-0.11190028603971004,-0.10446421775482595
1783696035190134000,7.388134033203125,-0.7868021193534135,-0.05914601645171642,-0.12128522337004542
1783696035200098000,7.39809814453125,-0.8134422889977693,-0.03285305280983448,-0.13313136318214236
1783696035210060800,7.408060791015625,-0.826266699257493,-0.03649813131392002,-0.12410999846719205
1783696035220024800,7.41802490234375,-0.7967606187880039,-0.0757470226407051,-0.08700959041118621
1783696035229989600,7.42798974609375,-0.7560843250066042,-0.24166589911580083,0.02818104241080582
1783696035239953400,7.437953369140625,-0.5864169096529483,-0.44025078139603135,0.14747889135591685
1783696035249916700,7.447916748046875,-0.30393092437088487,-0.5322744005769491,0.10185082038603722
1783696035259880400,7.45788037109375,-0.18283377091884612,-0.6008657062441111,-0.007544570160657167
1783696035269844500,7.467844482421875,-0.23131869262456892,-0.6138859313368797,-0.07093275422677398
1783696035279807500,7.477807373046875,-0.37662382013797757,-0.5847469306141138,-0.21483057222552596
1783696035289771500,7.487771484375,-0.5042401462256908,-0.5285071569979191,-0.3707926297664642
1783696035299735600,7.497735595703125,-0.63104340236485,-0.3842296189665794,-0.4480531987752765
1783696035309699600,7.507699462890625,-0.7518330973029136,-0.1853565673947334,-0.5757434668820351
1783696035319662600,7.51766259765625,-0.7651146036803722,-0.030943419796228406,-0.7090982635565102
1783696035329626600,7.527626708984375,-0.666159723931551,0.13497136502563953,-0.6782315622583032
1783696035339590700,7.537590576171875,-0.5056313083231448,0.25878829883038995,-0.5804683034468442
1783696035349554400,7.547554443359375,-0.40545185521543026,0.2264870346844196,-0.4342429923485964
1783696035359517700,7.557517578125,-0.29743630165457724,0.22561843515634536,-0.2917400627743453
1783696035369481500,7.5674814453125,-0.228327109593153,0.2116045228511095,-0.1840231998991221
1783696035379445500,7.577445556640625,-0.16910919694900511,0.17961130174100398,-0.1811640110757202
1783696035389409500,7.587409423828125,-0.10000877271592616,0.25192133567035196,-0.25356771463789046
1783696035399372500,7.59737255859375,0.008263385954499243,0.4169517388731241,-0.271948663046211
1783696035409336600,7.607336669921875,0.055338440862298006,0.5776981811463833,-0.3224186210893094
1783696035419300600,7.617300537109375,-0.009421908339858055,0.7989210116922855,-0.4204567513193935
1783696035429263600,7.627263671875,-0.13736322859823702,0.9482470652848481,-0.6428050056986511
1783696035439227600,7.6372275390625,-0.16559388230443,1.226657179430127,-0.7061885135896504
1783696035449191700,7.647191650390625,-0.1068739823102951,1.3942717539072036,-0.6745575499206781
1783696035459155500,7.657155517578125,0.013400748842954635,1.5510878709942102,-0.5654369577273726
1783696035469118700,7.66711865234375,0.15357202059924602,1.666306487801671,-0.4733930264107883
1783696035479082500,7.67708251953125,0.2428787820369005,1.6219816083848475,-0.3583784077428281
1783696035489046500,7.687046630859375,0.40448388696610926,1.617952498999238,-0.20799919183552265
1783696035499009500,7.697009521484375,0.5205857163488865,1.4584955120146275,-0.09943981372155249
1783696035508973600,7.7069736328125,0.537955368822813,1.256169105118513,-0.005984115910902619
1783696035518937600,7.7169375,0.43154491237103937,0.979293945455551,-0.012212123580276965
1783696035528901600,7.726901611328125,0.23539923993647097,0.7086608950525521,-0.05651990573182702
1783696035538864600,7.73686474609375,0.03884966287612915,0.4658680377334356,-0.037672362725064155
1783696035548828700,7.74682861328125,-0.16086977639198302,0.3054723085939884,-0.0185811471555382
1783696035558792700,7.756792724609375,-0.29422844552397726,0.2414583938449621,-0.08218501979894935
1783696035568756500,7.766756591796875,-0.3077911069303751,0.2696826178103685,-0.13533457231484353
1783696035578719500,7.776719482421875,-0.2718617154151201,0.3471440431535244,-0.1807489274688065
1783696035588683500,7.78668359375,-0.23426351390480993,0.4296346948355436,-0.30840595089308914
1783696035598647600,7.7966474609375,-0.19766016865074634,0.5235767148584127,-0.5138971784956753
1783696035608611600,7.806611572265625,-0.25150340251922604,0.5650058728337287,-0.7105768847417085
1783696035618574600,7.81657470703125,-0.38182314234673975,0.5556751499086618,-0.8949245673548429
1783696035628538600,7.82653857421875,-0.5907248359799385,0.579962618947029,-1.0524074047222733
1783696035638502700,7.836502685546875,-0.8115501916408538,0.6098083066344261,-1.1695721140962094
1783696035648465700,7.846465576171875,-0.9224597130775452,0.6129840140610933,-1.2667062812238932
1783696035658429700,7.8564296875,-0.9326233796954154,0.5769628526091576,-1.273769351477921
1783696035668393700,7.866393798828125,-0.8497206400811672,0.5003817172318696,-1.2509559005148707
1783696035678357500,7.876357421875,-0.7105284424901008,0.42209085532724855,-1.206590981348604
1783696035688320500,7.886320556640625,-0.5080857157379388,0.35279461626112457,-1.1013367091946302
1783696035698284500,7.896284423828125,-0.2369879704326391,0.23848843812346457,-0.9536012857943773
1783696035708248600,7.90624853515625,0.06122165368199348,0.15115969876050947,-0.7751040097098797
1783696035718211600,7.916211669921875,0.31923487648665905,0.10145780248045921,-0.5778950188927352
1783696035728175600,7.926175537109375,0.4345721512377262,0.004188099339604377,-0.3826444686669856
1783696035738139600,7.9361396484375,0.4516682474672794,-0.07197334932088852,-0.3086652594164014
1783696035748103700,7.946103759765625,0.41021746218204497,-0.173057642313838,-0.3735902976609766
1783696035758066700,7.956066650390625,0.2686328164964914,-0.27799451908171174,-0.423073875015229
1783696035768030700,7.96603076171875,0.06887596782743931,-0.3840875801473856,-0.5210975383285432
1783696035777994800,7.975994873046875,-0.1028781906723976,-0.33526012861430643,-0.6855518952090293
1783696035787958500,7.98595849609375,-0.26769465886354443,-0.22808044135570524,-0.666155924539268
1783696035797921500,7.995921630859375,-0.42178690394461155,-0.050473465174436564,-0.6653619976826012
1783696035807885600,8.005885498046876,-0.5235989266902208,0.15148001675605774,-0.7485724150065333
1783696035817849600,8.015849609375,-0.5582189891725778,0.3046966480463743,-0.7737544217318296
1783696035827812600,8.0258125,-0.6980068145692349,0.4283762192070484,-0.7778509703304618
1783696035837776600,8.035776611328124,-0.9111234955489635,0.6014660102248192,-0.7323455758921802
1783696035847740700,8.04574072265625,-1.0008663103163242,0.7574503526628017,-0.7234614276908338
1783696035857704700,8.05570458984375,-1.1368342851638793,0.8218272555053233,-0.49699338996782894
1783696035867667700,8.065667724609375,-1.18532329852283,0.9090209703117609,-0.33786800955776125
1783696035877631700,8.0756318359375,-1.0999065302610396,0.9016285219728947,-0.3278638443505391
1783696035887595800,8.085595703125,-1.0063520482510329,0.7915782477140426,-0.2564938677502796
1783696035897559600,8.0955595703125,-0.9073948304146527,0.7344295425593853,-0.21511618423387407
1783696035907522600,8.1055224609375,-0.7815151188611984,0.6667512600839137,-0.21925912925750016
1783696035917486600,8.115486572265626,-0.663157034984231,0.5472954440981149,-0.23654453751407561
1783696035927450600,8.12545068359375,-0.6040653790682554,0.37854631263315675,-0.22567966382429003
1783696035937413600,8.13541357421875,-0.5572188722193241,0.32023323987424374,-0.24061894734613595
1783696035947377700,8.145377685546874,-0.5281354010760784,0.28095278436541554,-0.28625432483963664
1783696035957341700,8.155341796875,-0.42976387417316436,0.21108020671606062,-0.32565504572726783
1783696035967305700,8.1653056640625,-0.33169045343399045,0.14962006810307502,-0.33983675234746186
1783696035977268700,8.175268798828125,-0.26070026993155476,0.02756955944895744,-0.3189429808679968
1783696035987232800,8.185232666015626,-0.18596096302866935,-0.052075639674067496,-0.3288743000347167
1783696035997196800,8.19519677734375,-0.08096095789670944,-0.08708557825684547,-0.3992703901015222
1783696036007159800,8.205159912109375,-0.031766426616907116,-0.15860358502566813,-0.4582784593872726
1783696036017123600,8.21512353515625,-0.05572831696271896,-0.20724340503215788,-0.48668052413761614
1783696036027087600,8.225087646484376,-0.18286650414466857,-0.13866320528089998,-0.5757344798579812
1783696036037051600,8.2350517578125,-0.37654666324853897,-0.037950083687901495,-0.6584445464443415
1783696036047014700,8.2450146484375,-0.49510290004611013,0.0780260734885931,-0.6613819881357252
1783696036056978700,8.254978759765624,-0.5539812054723501,0.14394143794476985,-0.6655599314074963
1783696036066942700,8.264942626953125,-0.5434557198047638,0.23309973082244395,-0.6293556684736162
1783696036076906800,8.27490673828125,-0.40926001532673834,0.29114450803399083,-0.5585009479191154
1783696036086869800,8.284869873046874,-0.17380466128885744,0.32849779487252234,-0.4650466383479535
1783696036096833800,8.294833740234376,0.11230828231871127,0.3800444422364235,-0.42546551939211785
1783696036106797600,8.304797607421875,0.28910218855142594,0.4124631952822208,-0.456559965031594
1783696036116760600,8.314760498046875,0.2895873417198658,0.4278869743853807,-0.4849280544470995
1783696036126724600,8.324724609375,0.22856091834902761,0.4248153118550777,-0.5146208896603435
1783696036136688600,8.334688720703125,0.1163029049128294,0.46415421955287456,-0.5300274253677576
1783696036146652700,8.344652587890625,0.0012707505881786347,0.5190834950923919,-0.516185143302381
1783696036156615400,8.354615478515624,-0.08326222057640552,0.56657005341053,-0.528306812120229
1783696036166579700,8.364579833984376,-0.15924071388542652,0.624911183220148,-0.5153222428627312
1783696036176543700,8.374543701171875,-0.1575380016207695,0.6994365551114082,-0.5078329830858856
1783696036186507800,8.3845078125,-0.09604103812873363,0.7492658771634101,-0.49368134281039233
1783696036196470500,8.394470458984374,-0.043210780695080754,0.7827052054286002,-0.49393305254913866
1783696036206434600,8.4044345703125,0.022231121030449864,0.8304267415463924,-0.5608729012148455
1783696036216398600,8.414398681640625,0.06226794786453247,0.8731856868207454,-0.653072863343358
1783696036226361600,8.424361572265624,0.047727381336688995,0.8719716348558664,-0.6538441399767995
1783696036236325000,8.4343251953125,0.028224808487296103,0.834474555632472,-0.65479186915569
1783696036246289000,8.444288818359375,0.04592588487267494,0.8575017954766749,-0.7191657032582909
1783696036256253000,8.4542529296875,0.05173018723726272,0.8887678713560104,-0.7636395626917482
1783696036266216000,8.4642158203125,0.013705869269371031,0.8910685495138168,-0.7312289929524064
1783696036276180000,8.474179931640625,0.013818097472190856,0.8865981261014938,-0.7323432378046214
1783696036286144000,8.48414404296875,-0.007548515683412552,0.8053115895122289,-0.6169584706500172
1783696036296108000,8.49410791015625,-0.016695114213228224,0.7190881810426711,-0.5093869345296174
1783696036306071000,8.504071044921876,0.03972352310121059,0.6682803693473338,-0.48438751782961187
1783696036316035000,8.51403515625,0.18299451443850992,0.5892500872522592,-0.3808852039095014
1783696036325999000,8.5239990234375,0.359683206731081,0.4755225857853889,-0.3028346900993958
1783696036335962000,8.533962158203124,0.48629357064664364,0.3327800022363663,-0.23382811816222965
1783696036345926100,8.543926025390626,0.5152677361965179,0.17783143258690834,-0.14887019958384334
1783696036355890000,8.553889892578125,0.40459260803759095,0.11173895799815654,-0.14506923639830202
1783696036365854000,8.56385400390625,0.23813246429264545,0.06931435924470425,-0.1663464907700196
1783696036375817000,8.57381689453125,0.0939028570562601,0.032030045989155764,-0.21214115047845988
1783696036385781000,8.583781005859375,-0.05956453412473201,0.012867080357670783,-0.2720977526606992
1783696036395745000,8.5937451171875,-0.2235287694007158,0.012931377765536307,-0.34170393445882946
1783696036405708000,8.6037080078125,-0.44591538302898404,0.05870061077177524,-0.3729586486939341
1783696036415672000,8.613672119140626,-0.5962602582752704,0.12468728689849376,-0.3620804771311581
1783696036425636000,8.623635986328125,-0.6118862819522619,0.1733054795950651,-0.3473041290860623
1783696036435600100,8.63360009765625,-0.49166941846609113,0.1427402454614639,-0.3080065032467246
1783696036445563100,8.643563232421876,-0.32108664183318614,0.10569792426824569,-0.2671507977778092
1783696036455527200,8.653527099609375,-0.14677753815352915,0.0028828619599342345,-0.23956224136743692
1783696036465491000,8.663490966796875,-0.013678981262445449,-0.13571429234743118,-0.21585399698913096
1783696036475455000,8.673455078125,0.08294131805896758,-0.23740385775715112,-0.1765996988348663
1783696036485418000,8.68341796875,0.18565759616792202,-0.35800153725445266,-0.1362395948631689
1783696036495382000,8.693382080078125,0.24570494537353516,-0.4641653254687786,-0.1452576351098716
1783696036505346000,8.703345947265625,0.15155015938282013,-0.5669999692603945,-0.15946385511681438
1783696036515309000,8.71330908203125,0.06706102735996246,-0.6229834300279617,-0.2030565478015691
1783696036525273000,8.723273193359375,0.009974281525611877,-0.6554398847356439,-0.26273674419522286
1783696036535237000,8.733237060546875,-0.03840601076185703,-0.6629223494455218,-0.2624102887198329
1783696036545201200,8.743201171875,-0.06480769547522068,-0.6521411354511976,-0.25412396028116346
1783696036555164200,8.7531640625,-0.043621115061640736,-0.5895458553284406,-0.2618732592336833
1783696036565128200,8.763128173828125,-0.036029929280281064,-0.5287649311512709,-0.24498605651445685
1783696036575092000,8.773092041015625,-0.03423135542571545,-0.47005730611681934,-0.1956293204102665
1783696036585055200,8.78305517578125,-0.057498249244689936,-0.408037195533514,-0.1913815267726779
1783696036595019000,8.79301904296875,-0.08009352741241454,-0.3648606093689799,-0.19153949381336569
1783696036604983000,8.802983154296875,-0.1538917540729046,-0.33293431601524354,-0.2130262262172997
1783696036614947000,8.812947021484375,-0.2754863356530666,-0.2775079046085477,-0.2558041684530675
1783696036624910000,8.82291015625,-0.3628589141577482,-0.21554799977988004,-0.305011924540624
1783696036634874000,8.8328740234375,-0.4426753781944513,-0.12197832020074129,-0.33178098126165567
1783696036644838100,8.842838134765625,-0.4881166944205761,-0.03778378721028566,-0.3160623108651489
1783696036654802200,8.85280224609375,-0.5490548549860715,0.047424598997831344,-0.3635978959567845
1783696036664765200,8.86276513671875,-0.4932955583631992,0.16449030497670172,-0.5493473351266235
1783696036674729200,8.872729248046875,-0.5840811601817607,0.12473609447628259,-0.49174642922505735
1783696036684693000,8.88269287109375,-0.798787740701437,0.10338087949752807,-0.555019827805087
1783696036694656300,8.89265625,-0.8086211524516344,0.18624065675288437,-0.818007551086694
1783696036704620000,8.9026201171875,-0.8503466630250215,0.05829466031938791,-0.6804574216142296
1783696036714584000,8.912583984375,-0.8789321215182543,-0.2735869317725301,-0.33966384346596895
1783696036724548000,8.922548095703124,-0.6876531783372163,-0.6089926063373684,-0.10340119163319468
1783696036734511000,8.932510986328126,-0.34902737268209455,-0.7313701549887657,-0.18497151359990238
1783696036744475100,8.94247509765625,-0.1298626437097788,-0.9009984073758125,-0.19704335192665456
1783696036754439200,8.952439208984375,0.06182838740348816,-0.9008674744725227,-0.2734090179223567
1783696036764402200,8.962402099609376,0.1678945604622364,-0.8069312996685505,-0.47320028031766415
1783696036774366200,8.9723662109375,0.11299158840775489,-0.5712497356593609,-0.7202300445541739
1783696036784330200,8.982330322265625,-0.09768588272631168,-0.27232816388309,-0.8792153223738074
1783696036794294000,8.9922939453125,-0.35521453688442706,0.01383271051943302,-0.7705524838853627
1783696036804257300,9.00225732421875,-0.4709668221771717,0.26041034707427024,-0.4141168807733804
1783696036814221000,9.012220947265625,-0.43156420159339903,0.3809919522196054,0.00634812691770494
1783696036824185000,9.02218505859375,-0.17400398325324057,0.4511790026456117,0.20843539129570127
1783696036834149000,9.032149169921874,0.10472761793136597,0.3722480892717838,0.12536883942186833
1783696036844112100,9.042112060546875,0.2353542317509651,0.21065116764903066,-0.07605126628428698
1783696036854076200,9.052076171875,0.20244798744916914,0.07211363457441329,-0.3010016659859568
1783696036864040200,9.062040283203125,0.05005319393575191,0.027080899149179456,-0.5632206699173897
1783696036874003200,9.072003173828126,-0.11821896766722202,0.07429039409160614,-0.7281798345148564
1783696036883967200,9.08196728515625,-0.21416005255281925,0.28069676377773284,-0.7575198377024381
1783696036893931300,9.09193115234375,-0.2543710669100284,0.605024579489231,-0.6459392120711505
1783696036903895000,9.10189501953125,-0.22624153549075127,0.9071084146887064,-0.42474071224890647
1783696036913858000,9.111858154296876,-0.2235381217509508,1.1081178937673568,-0.21238412892147898
1783696036923822000,9.121822021484375,-0.20654197876453398,1.1508552117317914,-0.0074306614574044935
1783696036933786000,9.1317861328125,-0.1316997960090637,1.0058137035906314,0.09806180336661637
1783696036943750100,9.141750244140624,0.1318044254273176,0.8009984024882316,0.0729697399470955
1783696036953713200,9.151713134765625,0.42955403081476684,0.5150152227401733,0.046624242400377984
1783696036963677200,9.16167724609375,0.6561269902169704,0.2567243520379066,0.013244389237463473
1783696036973641200,9.17164111328125,0.7032873853206634,0.07336275785267353,0.008354717499762772
1783696036983604000,9.18160400390625,0.5754167922109366,-0.066118193551898,0.1622873150397092
1783696036993568300,9.191568359375,0.42446810585260386,-0.14545359607338904,0.40154527623094616
1783696037003532300,9.2015322265625,0.2854202851682901,-0.12268880655765532,0.6041878364041448
1783696037013496000,9.21149609375,0.1201671791255474,-0.052123570469021795,0.7088858629148453
1783696037023459000,9.221458984375,-0.04138064265847206,0.004136661413311958,0.6910274770759046
1783696037033422800,9.2314228515625,-0.15037176325321197,0.09726093531250952,0.5143795551851391
1783696037043387100,9.24138720703125,-0.23195406791865825,0.19515549235343932,0.22132497574612497
1783696037053350000,9.251349853515626,-0.2668225522041321,0.2973673280715942,-0.10463029503673314
1783696037063314000,9.26131396484375,-0.3485615087360143,0.3852268133103847,-0.3999827030893415
1783696037073278000,9.27127783203125,-0.45399698267579075,0.4431640384942293,-0.6333744025956839
1783696037083242200,9.2812421875,-0.5895300732374191,0.4866232409924268,-0.6662118925102055
1783696037093205000,9.291205078125,-0.7191290975749492,0.5948439617365598,-0.5515768477443606
1783696037103169000,9.3011689453125,-0.7429191384851932,0.5701186858028173,-0.5239294738188386
1783696037113133000,9.311133056640625,-0.5097194544196129,0.5454442632734775,-0.43357079217545685
1783696037123096000,9.321095947265626,-0.19785890609323978,0.45003158617615696,-0.26887941166870294
1783696037133060000,9.33106005859375,0.16554361342191695,0.3039747635126114,-0.22250578302852808
1783696037143023900,9.34102392578125,0.43722704966068265,0.11893208437263965,-0.25997422067932785
1783696037152988000,9.35098779296875,0.5950082123875617,-0.1006523313164711,-0.25537797893024977
1783696037162951000,9.360950927734375,0.6615308950871229,-0.29008652341365815,-0.26885442335791887
1783696037172915000,9.3709150390625,0.6234346809267998,-0.4515642025709152,-0.23478753777891395
1783696037182879000,9.38087890625,0.5129471842944622,-0.5719441476643086,-0.24508929769322274
1783696037192843000,9.390843017578124,0.49019174712896346,-0.5951128418058157,-0.2872635018821805
1783696037202806000,9.400805908203125,0.5387643471181393,-0.6068611472666263,-0.2533057027008384
1783696037212770000,9.41077001953125,0.533289130577445,-0.588743306773901,-0.23874146303646265
1783696037222734000,9.420734130859374,0.4684218138694763,-0.5155617507070303,-0.2761146966844797
1783696037232697300,9.430697265625,0.33087095374464986,-0.3821101425945759,-0.31812041243873534
1783696037242661000,9.4406611328125,0.17857202182114124,-0.25283786599338054,-0.40255876412242647
1783696037252625200,9.450625244140625,0.060976154488325114,-0.0903910495430231,-0.5293037872683256
1783696037262589200,9.460589111328124,-0.12636720280945302,0.06255670167803765,-0.5946726237576454
1783696037272552200,9.47055224609375,-0.2912584898024797,0.1943593735396862,-0.6092205698743463
1783696037282516200,9.48051611328125,-0.3733692022562027,0.32139936104416844,-0.5719039617843925
1783696037292480300,9.490480224609374,-0.42685412420630453,0.40600305935740466,-0.5026091109577566
1783696037302443300,9.500443359375,-0.522009611672163,0.4568371745377779,-0.4214696546889841
1783696037312407300,9.5104072265625,-0.5978174245893955,0.5103483999729156,-0.33860454367138443
1783696037322371300,9.520371337890625,-0.6115700556099415,0.5233721321970224,-0.23589856776073573
1783696037332335400,9.53033544921875,-0.5303513235598802,0.42355566718280313,-0.0868353298228234
1783696037342298400,9.54029833984375,-0.3889478796601295,0.31298341487646103,0.0858273948892951
1783696037352262100,9.55026220703125,-0.24774083511531353,0.22004268085062503,0.17393479047454893
1783696037362226200,9.56022607421875,-0.18605156392157077,0.0930056159555912,0.20382512102127073
1783696037372190200,9.570190185546876,-0.14746025972068308,-0.03639408641755581,0.29923999007567764
1783696037382153200,9.5801533203125,-0.110529582208395,-0.2138262905538082,0.3856405086778104
1783696037392117200,9.5901171875,-0.0510819524616003,-0.4212053046643734,0.45233818261809644
1783696037402081300,9.600081298828124,0.030949265015125273,-0.5822188734412193,0.46297436211854215
1783696037412044300,9.610044189453125,0.08826105177700519,-0.665683923113346,0.3987026732161641
1783696037422008300,9.62000830078125,0.03280512201488018,-0.6529466066151857,0.1533781785275787
1783696037431972400,9.629972412109375,-0.19242343704104423,-0.579578588065505,-0.12976634372845292
1783696037441936100,9.63993603515625,-0.48381169070303437,-0.457144633051753,-0.30418847932852805
1783696037451899400,9.6498994140625,-0.6947212170273065,-0.33929332965314385,-0.3422972607094794
1783696037461863200,9.65986328125,-0.8039549142062663,-0.22022563620209692,-0.2894222142860293
1783696037471827200,9.6698271484375,-0.7453928351223469,-0.12146890937387943,-0.17903949320241808
1783696037481791200,9.679791259765626,-0.5435813920110464,-0.0958376245111227,-0.06017616321705281
1783696037491754200,9.689754150390625,-0.2809767497628927,-0.15968436599969862,0.0140269909825176
1783696037501718300,9.69971826171875,-0.045941082441806794,-0.1950298201471567,-0.009061988986283541
1783696037511682300,9.709682373046874,0.08076046688854693,-0.23578911603689193,-0.05686287395060062
1783696037521645300,9.719645263671875,0.16054653578698636,-0.18218378257751464,-0.05498758159801364
1783696037531609300,9.729609375,0.1560778659403324,-0.051043374016880985,-0.0006649667147547006
1783696037541573400,9.739573486328124,0.033382045120000835,0.14280746547877787,0.02175831588692963
1783696037551537200,9.749537109375,-0.11370061345994471,0.3259498639553785,-0.07360138891413807
1783696037561500200,9.759500244140625,-0.1786614536702633,0.5215647905141115,-0.2377913227047771
1783696037571464200,9.769464111328125,-0.34791210491657254,0.7532458867102861,-0.37889088828712697
1783696037581428200,9.77942822265625,-0.4796873042494058,0.9197218125462532,-0.45392866667993365
1783696037591391000,9.789390869140625,-0.6122790806621313,0.9369576095074414,-0.46258682410568
1783696037601355000,9.79935498046875,-0.8680442322790622,0.9412444930464029,-0.7466729380607604
1783696037611319300,9.8093193359375,-0.8705658597111702,1.0135159485310314,-0.9578501023452728
1783696037621283300,9.819283447265626,-0.4860229370117187,0.8795558063745498,-0.8834314787641168
1783696037631246000,9.82924609375,0.02372983515560627,0.7272434304475784,-0.8030768161974847
1783696037641210000,9.839210205078125,0.3317389687508345,0.5938596268743276,-0.6500117952723056
1783696037651174400,9.84917431640625,0.5432061289578676,0.4648293423354625,-0.5387098404519259
