time,seconds_elapsed,z,y,x
1783695989559904500,0.061904541015625,-1.4719412326812744,-1.6010715961456299,0.22073063254356384
1783695989569868500,0.07186865234375,-1.54378342628479,-1.6074895858764648,0.24081221222877502
1783695989579831600,0.08183154296875,-1.5820173025131226,-1.5687501430511475,0.20180381834506989
1783695989589795600,0.091795654296875,-1.5888235569000244,-1.437058925628662,0.11568357795476913
1783695989599759600,0.101759521484375,-1.5615876913070679,-1.16665780544281,0.005290967412292957
1783695989609723600,0.1117236328125,-1.5152809619903564,-0.8305282592773438,-0.1150389015674591
1783695989619687700,0.121687744140625,-1.4686570167541504,-0.5290115475654602,-0.23973052203655243
1783695989629651500,0.1316513671875,-1.4284429550170898,-0.3307531177997589,-0.37805163860321045
1783695989639615500,0.141615478515625,-1.3117756843566895,-0.18287014961242676,-0.5716423988342285
1783695989649579500,0.15157958984375,-1.209964394569397,-0.04558153823018074,-0.7930136322975159
1783695989659542500,0.16154248046875,-1.070923089981079,0.059552066028118134,-0.8834159970283508
1783695989669506600,0.171506591796875,-1.0082155466079712,0.21322526037693024,-0.8413606882095337
1783695989679470600,0.181470703125,-1.0242552757263184,0.34383225440979004,-0.7238094806671143
1783695989689434600,0.1914345703125,-1.0401431322097778,0.35285717248916626,-0.6059966087341309
1783695989699398400,0.2013984375,-1.0339081287384033,0.2757570743560791,-0.5082583427429199
1783695989709362400,0.211362548828125,-1.0038011074066162,0.17512711882591248,-0.4123983681201935
1783695989719326500,0.221326416015625,-0.9530927538871765,0.013263136148452759,-0.33069145679473877
1783695989729290500,0.23129052734375,-0.8969125747680664,-0.20930388569831848,-0.25390294194221497
1783695989739253500,0.24125341796875,-0.8473384976387024,-0.45436373353004456,-0.1715680956840515
1783695989749217500,0.251217529296875,-0.7816182971000671,-0.7400348782539368,-0.07735957205295563
1783695989759181600,0.261181640625,-0.6997822523117065,-1.0824803113937378,0.00583661301061511
1783695989769145600,0.2711455078125,-0.6135363578796387,-1.4027808904647827,0.06780411303043365
1783695989779109400,0.281109375,-0.5674054622650146,-1.6026103496551514,0.09352873265743256
1783695989789073400,0.291073486328125,-0.5367716550827026,-1.4222384691238403,0.04353693500161171
1783695989799037400,0.301037353515625,-0.49517375230789185,-1.0103307962417603,-0.00024119799491018057
1783695989809000400,0.31100048828125,-0.4932325780391693,-0.5177813172340393,-0.02386423572897911
1783695989818964500,0.320964599609375,-0.5428618788719177,-0.050451405346393585,-0.0616409108042717
1783695989828928500,0.330928466796875,-0.617694616317749,0.2203148454427719,-0.104526586830616
1783695989838892500,0.340892578125,-0.6785605549812317,0.3538326919078827,-0.12350700795650482
1783695989848856600,0.350856689453125,-0.7084470987319946,0.4048258364200592,-0.11475080251693726
1783695989858820600,0.360820556640625,-0.719359278678894,0.38137802481651306,-0.08090928196907043
1783695989868784600,0.37078466796875,-0.7195350527763367,0.2842978239059448,-0.03370874747633934
1783695989878748700,0.380748779296875,-0.7127310633659363,0.13814833760261536,0.03568211942911148
1783695989888711700,0.390711669921875,-0.6956650018692017,-0.0229372326284647,0.12520001828670502
1783695989898675700,0.40067578125,-0.6801793575286865,-0.1876353621482849,0.23347175121307373
1783695989908639700,0.4106396484375,-0.6661149263381958,-0.3337574303150177,0.3424632251262665
1783695989918603800,0.420603759765625,-0.659868061542511,-0.4396684169769287,0.44109421968460083
1783695989928567600,0.430567626953125,-0.6624297499656677,-0.5126211643218994,0.5164920687675476
1783695989938531600,0.440531494140625,-0.6966235041618347,-0.5495659112930298,0.5654198527336121
1783695989948495600,0.45049560546875,-0.7606296539306641,-0.569498598575592,0.5842226147651672
1783695989958458600,0.460458740234375,-0.8182860612869263,-0.5834529995918274,0.5772939324378967
1783695989968422700,0.470422607421875,-0.8374584317207336,-0.6272646188735962,0.5294750332832336
1783695989978386700,0.48038671875,-0.8198895454406738,-0.6798546314239502,0.46890828013420105
1783695989988350700,0.490350830078125,-0.7297503352165222,-0.6670181751251221,0.40482357144355774
1783695989998314500,0.500314453125,-0.6990339756011963,-0.5025075674057007,0.30228230357170105
1783695990008278500,0.510278564453125,-0.6948656439781189,-0.35794878005981445,0.21908675134181976
1783695990018242600,0.52024267578125,-0.6970329880714417,-0.25554436445236206,0.1676381230354309
1783695990028206600,0.53020654296875,-0.6841672658920288,-0.14338135719299316,0.10886082053184509
1783695990038169600,0.540169677734375,-0.6741728186607361,-0.022653862833976746,0.058459460735321045
1783695990048133600,0.550133544921875,-0.688064455986023,0.052084825932979584,0.019999956712126732
1783695990058097700,0.56009765625,-0.7263843417167664,0.05144193395972252,-0.010691276751458645
1783695990068061700,0.570061767578125,-0.7536559104919434,-0.02918260358273983,-0.022521037608385086
1783695990078025500,0.580025390625,-0.7710772752761841,-0.16040532290935516,-0.014717066660523415
1783695990087989500,0.589989501953125,-0.8092672824859619,-0.3180229365825653,-0.0019898200407624245
1783695990097953500,0.59995361328125,-0.8742642402648926,-0.43039369583129883,-0.027442999184131622
1783695990107917600,0.60991748046875,-0.9611916542053223,-0.4182470440864563,-0.06336850672960281
1783695990117880600,0.619880615234375,-0.9670559763908386,-0.412456750869751,-0.0828891173005104
1783695990127844600,0.6298447265625,-0.9271208047866821,-0.38365787267684937,-0.10097304731607437
1783695990137808600,0.63980859375,-0.8488316535949707,-0.21768513321876526,-0.13330742716789246
1783695990147772700,0.649772705078125,-0.755342423915863,-0.023594234138727188,-0.14256085455417633
1783695990157736400,0.659736328125,-0.6549622416496277,0.037047550082206726,-0.06774356216192245
1783695990167700500,0.669700439453125,-0.6315589547157288,0.05459698289632797,-0.029770612716674805
1783695990177664500,0.67966455078125,-0.6060945391654968,-0.01327341329306364,-0.015853099524974823
1783695990187627000,0.689626953125,-0.5866135358810425,-0.07235244661569595,0.00823253020644188
1783695990197591000,0.699591064453125,-0.5802260041236877,-0.11380773782730103,0.022990668192505836
1783695990207555000,0.70955517578125,-0.5858511328697205,-0.15461722016334534,0.033691514283418655
1783695990217519000,0.71951904296875,-0.5960740447044373,-0.20112906396389008,0.04709106311202049
1783695990227483100,0.729483154296875,-0.600360631942749,-0.26092928647994995,0.06863204389810562
1783695990237447000,0.739447021484375,-0.5922504663467407,-0.29753977060317993,0.11136122792959213
1783695990247411000,0.749410888671875,-0.5843395590782166,-0.3125019371509552,0.17017793655395508
1783695990257375000,0.759375,-0.5774095058441162,-0.31672197580337524,0.22891663014888763
1783695990267338000,0.769337890625,-0.5733383297920227,-0.317415714263916,0.2786940038204193
1783695990277302000,0.779302001953125,-0.5721330046653748,-0.30678224563598633,0.30134117603302
1783695990287266000,0.78926611328125,-0.5666612982749939,-0.29605478048324585,0.3036749064922333
1783695990297230000,0.79922998046875,-0.5597718358039856,-0.28933778405189514,0.3028275668621063
1783695990307194000,0.809194091796875,-0.5544683933258057,-0.28044387698173523,0.29685676097869873
1783695990317158000,0.819157958984375,-0.55186927318573,-0.2565648853778839,0.2965627908706665
1783695990327122000,0.829121826171875,-0.5531519055366516,-0.22434329986572266,0.2941792607307434
1783695990337085000,0.8390849609375,-0.5582118630409241,-0.1967761218547821,0.2891332507133484
1783695990347049000,0.849049072265625,-0.5583958625793457,-0.17121058702468872,0.2764350473880768
1783695990357013000,0.859012939453125,-0.5656335949897766,-0.13729894161224365,0.26146984100341797
1783695990366977000,0.86897705078125,-0.5716995000839233,-0.09977339953184128,0.2549160420894623
1783695990376941000,0.878941162109375,-0.5783044695854187,-0.05646217614412308,0.2726837992668152
1783695990386905000,0.888905029296875,-0.57619708776474,-0.008845655247569084,0.3035551607608795
1783695990396869000,0.898869140625,-0.5761513113975525,0.05647103488445282,0.3422316014766693
1783695990406833200,0.908833251953125,-0.5681719183921814,0.11812108010053635,0.3740001618862152
1783695990416796000,0.9187958984375,-0.550726592540741,0.12904296815395355,0.3838531970977783
1783695990426760000,0.928760009765625,-0.5259397625923157,0.09798172116279602,0.3734138607978821
1783695990436724200,0.93872412109375,-0.5062293410301208,0.03785262256860733,0.35343554615974426
1783695990446688300,0.948688232421875,-0.5049281120300293,-0.08142183721065521,0.3237631320953369
1783695990456652300,0.95865234375,-0.5330308675765991,-0.25707995891571045,0.2775707244873047
1783695990466616000,0.968615966796875,-0.5821720957756042,-0.4053037762641907,0.22115804255008698
1783695990476580000,0.978580078125,-0.634645402431488,-0.45637521147727966,0.18089918792247772
1783695990486543000,0.988543212890625,-0.6704047322273254,-0.4233488142490387,0.17280904948711395
1783695990496507100,0.998507080078125,-0.6686365604400635,-0.34008827805519104,0.19126446545124054
1783695990506471200,1.00847119140625,-0.6411213278770447,-0.23653046786785126,0.2161426544189453
1783695990516435200,1.018435302734375,-0.5898501873016357,-0.1414838582277298,0.23770004510879517
1783695990526399200,1.028399169921875,-0.5273098349571228,-0.10142485797405243,0.24279122054576874
1783695990536363000,1.038363037109375,-0.45754480361938477,-0.11919265985488892,0.22969260811805725
1783695990546327000,1.0483271484375,-0.39276552200317383,-0.16962040960788727,0.20884059369564056
1783695990556291000,1.058291015625,-0.34581008553504944,-0.20842345058918,0.18763278424739838
1783695990566254000,1.068254150390625,-0.32433515787124634,-0.22340533137321472,0.17750930786132812
1783695990576218000,1.078218017578125,-0.31928274035453796,-0.22808930277824402,0.1765807420015335
1783695990586182100,1.08818212890625,-0.3197474777698517,-0.2387976050376892,0.18003351986408234
1783695990596146200,1.098146240234375,-0.32410845160484314,-0.2345229685306549,0.1804371178150177
1783695990606110200,1.108110107421875,-0.3287668526172638,-0.22369828820228577,0.17559176683425903
1783695990616074000,1.118073974609375,-0.323576956987381,-0.20455574989318848,0.16297516226768494
1783695990626038000,1.1280380859375,-0.3077295422554016,-0.1925574094057083,0.14123763144016266
1783695990636001000,1.1380009765625,-0.2826538681983948,-0.20503032207489014,0.11276648938655853
1783695990645965000,1.147965087890625,-0.2649020254611969,-0.22996468842029572,0.07148509472608566
1783695990655929000,1.15792919921875,-0.25100722908973694,-0.2454584687948227,0.02343917079269886
1783695990665893000,1.16789306640625,-0.2411934733390808,-0.23601941764354706,-0.027865827083587646
1783695990675857200,1.177857177734375,-0.22487011551856995,-0.20676670968532562,-0.08659722656011581
1783695990685821200,1.1878212890625,-0.19583021104335785,-0.1518523246049881,-0.1303790658712387
1783695990695785000,1.197784912109375,-0.16180464625358582,-0.092603899538517,-0.13850989937782288
1783695990705748000,1.207748046875,-0.11723211407661438,-0.05656041204929352,-0.12169869989156723
1783695990715712000,1.2177119140625,-0.08403640985488892,-0.05170575529336929,-0.09161870181560516
1783695990725676000,1.227676025390625,-0.05580450966954231,-0.07502972334623337,-0.060559049248695374
1783695990735640000,1.23764013671875,-0.026451753452420235,-0.108040951192379,-0.032227467745542526
1783695990745604000,1.24760400390625,0.004239046946167946,-0.1270652413368225,-0.011154941283166409
1783695990755568000,1.257568115234375,0.03401763737201691,-0.14331583678722382,0.0013888217508792877
1783695990765532000,1.267531982421875,0.06327752023935318,-0.16249698400497437,0.0006710998131893575
1783695990775496000,1.277495849609375,0.09695636481046677,-0.16769468784332275,-0.0001758309081196785
1783695990785459000,1.287458984375,0.13274845480918884,-0.15720610320568085,0.0013871783157810569
1783695990795423000,1.297423095703125,0.1663607954978943,-0.14772282540798187,0.0006323187844827771
1783695990805387000,1.307386962890625,0.1953868418931961,-0.14325404167175293,0.002047788817435503
1783695990815351000,1.31735107421875,0.20833303034305573,-0.1514078676700592,0.004797292407602072
1783695990825315000,1.327315185546875,0.21070989966392517,-0.16460755467414856,0.008098013699054718
1783695990835279000,1.337279052734375,0.20715995132923126,-0.17340372502803802,0.0012844748562201858
1783695990845243000,1.347242919921875,0.19654034078121185,-0.19446639716625214,-0.026083767414093018
1783695990855206000,1.357205810546875,0.17128217220306396,-0.235381081700325,-0.06880199909210205
1783695990865170000,1.367169921875,0.1356368213891983,-0.27433645725250244,-0.11662038415670395
1783695990875134000,1.377134033203125,0.10395340621471405,-0.3069479465484619,-0.15972384810447693
1783695990885098000,1.387097900390625,0.0808616653084755,-0.31626102328300476,-0.18135963380336761
1783695990895062000,1.39706201171875,0.0664329081773758,-0.2974178194999695,-0.18210697174072266
1783695990905026000,1.407026123046875,0.05336904153227806,-0.26923543214797974,-0.1596733033657074
1783695990914990000,1.416989990234375,0.04722810909152031,-0.231840118765831,-0.13033391535282135
1783695990924953000,1.426953125,0.03449233993887901,-0.1808837354183197,-0.10698758065700531
1783695990934916900,1.436916748046875,0.018802765756845474,-0.09921868145465851,-0.09460950642824173
1783695990944881000,1.446880859375,0.0028336523100733757,-0.008998507633805275,-0.08887971937656403
1783695990954845200,1.45684521484375,-0.007746042218059301,0.06206207722425461,-0.09150964021682739
1783695990964809200,1.466809326171875,-0.010406273417174816,0.10438822954893112,-0.09190218895673752
1783695990974773200,1.476773193359375,-0.004010212142020464,0.11529044061899185,-0.09103474020957947
1783695990984737300,1.4867373046875,0.003602167358621955,0.11433009803295135,-0.08157359808683395
1783695990994700300,1.4967001953125,0.006681185215711594,0.11275029182434082,-0.07267311960458755
1783695991004664000,1.5066640625,0.003246772801503539,0.1122397631406784,-0.0741378590464592
1783695991014628000,1.516628173828125,-0.0039558312855660915,0.11695462465286255,-0.08971786499023438
1783695991024592100,1.526592041015625,-0.019274866208434105,0.12516967952251434,-0.11604587733745575
1783695991034556200,1.53655615234375,-0.04051099717617035,0.1379331350326538,-0.13561902940273285
1783695991044520200,1.546520263671875,-0.0603688582777977,0.14263015985488892,-0.14397230744361877
1783695991054484200,1.556484130859375,-0.06832566112279892,0.1198556125164032,-0.13787098228931427
1783695991064447200,1.566447265625,-0.07370684295892715,0.0855218768119812,-0.11303620785474777
1783695991074411300,1.576411376953125,-0.08328619599342346,0.05610588937997818,-0.07717577368021011
1783695991084375000,1.586375,-0.09583714604377747,0.025699518620967865,-0.04184841364622116
1783695991094339000,1.596339111328125,-0.11109576374292374,-0.007585983723402023,-0.01695840060710907
1783695991104303000,1.60630322265625,-0.128676638007164,-0.035451170057058334,-0.010012876242399216
1783695991114267100,1.61626708984375,-0.1476583480834961,-0.05063518136739731,-0.01050646137446165
1783695991124231200,1.626231201171875,-0.16420403122901917,-0.0690581277012825,-0.013062830083072186
1783695991134195200,1.6361953125,-0.1792340725660324,-0.08905819058418274,-0.007710850797593594
1783695991144158200,1.646158203125,-0.1929088681936264,-0.11390681564807892,0.015496467240154743
1783695991154122200,1.656122314453125,-0.20096918940544128,-0.13789977133274078,0.05308624356985092
1783695991164086000,1.6660859375,-0.19910496473312378,-0.14246496558189392,0.10143326967954636
1783695991174050000,1.676050048828125,-0.1935318410396576,-0.1483607143163681,0.15198494493961334
1783695991184014300,1.686014404296875,-0.1874244213104248,-0.1609870344400406,0.19637851417064667
1783695991193978400,1.695978271484375,-0.18169502913951874,-0.18410854041576385,0.23338212072849274
1783695991203942400,1.7059423828125,-0.17124956846237183,-0.19705523550510406,0.27343234419822693
1783695991213905400,1.715905517578125,-0.16472932696342468,-0.1995365172624588,0.3126598000526428
1783695991223869400,1.725869384765625,-0.16139663755893707,-0.19489727914333344,0.3483898341655731
1783695991233833200,1.735833251953125,-0.15357448160648346,-0.17608365416526794,0.3734733760356903
1783695991243797200,1.74579736328125,-0.13921605050563812,-0.14651191234588623,0.3774920701980591
1783695991253761300,1.75576123046875,-0.12153797596693039,-0.14998309314250946,0.3576366603374481
1783695991263725300,1.765725341796875,-0.11746733635663986,-0.18674376606941223,0.306876003742218
1783695991273689300,1.775689453125,-0.11829232424497604,-0.2025029957294464,0.2514813244342804
1783695991283652400,1.78565234375,-0.1272972673177719,-0.1826094388961792,0.19567398726940155
1783695991293616400,1.795616455078125,-0.13924084603786469,-0.14359095692634583,0.1317826509475708
1783695991303580200,1.805580078125,-0.1702466905117035,-0.09708762913942337,0.05596991628408432
1783695991313544200,1.815544189453125,-0.2064523696899414,-0.04306463152170181,-0.015341803431510925
1783695991323508200,1.82550830078125,-0.23843586444854736,0.007292816415429115,-0.07769892364740372
1783695991333472300,1.83547216796875,-0.2561470568180084,0.03377238288521767,-0.1156591847538948
1783695991343436300,1.845436279296875,-0.267010897397995,0.033098071813583374,-0.13283923268318176
1783695991353399300,1.8553994140625,-0.2680593430995941,0.008699269965291023,-0.12805131077766418
1783695991363363300,1.86536328125,-0.2625338137149811,-0.02465229481458664,-0.10083913803100586
1783695991373327400,1.875327392578125,-0.25501975417137146,-0.056229956448078156,-0.06066085398197174
1783695991383291100,1.885291015625,-0.25156882405281067,-0.07523320615291595,-0.016522688791155815
1783695991393255200,1.895255126953125,-0.24929167330265045,-0.07751180231571198,0.021651189774274826
1783695991403219200,1.90521923828125,-0.24804291129112244,-0.0606052540242672,0.04797946661710739
1783695991413183200,1.915183349609375,-0.24564872682094574,-0.025938352569937706,0.07061660289764404
1783695991423146200,1.925146240234375,-0.24653849005699158,0.010545088909566402,0.09178047627210617
1783695991433110300,1.9351103515625,-0.2431769073009491,0.03432019054889679,0.12481743842363358
1783695991443074300,1.94507421875,-0.23078174889087677,0.053369250148534775,0.16955775022506714
1783695991453038300,1.955038330078125,-0.21824149787425995,0.06457450985908508,0.217471644282341
1783695991463002400,1.96500244140625,-0.2032705396413803,0.0827428549528122,0.2537337839603424
1783695991472966400,1.97496630859375,-0.19887545704841614,0.10896779596805573,0.26575416326522827
1783695991482930400,1.984930419921875,-0.1981886327266693,0.13854779303073883,0.24861592054367065
1783695991492893200,1.99489306640625,-0.20190849900245667,0.1646595597267151,0.21178396046161652
1783695991502857200,2.004857177734375,-0.21382002532482147,0.17955808341503143,0.16084621846675873
1783695991512821500,2.014821533203125,-0.23531843721866608,0.1746373325586319,0.10741852968931198
1783695991522785500,2.02478564453125,-0.256980836391449,0.14670690894126892,0.052869271486997604
1783695991532749300,2.034749267578125,-0.2828909456729889,0.09339257329702377,0.012687420472502708
1783695991542713300,2.04471337890625,-0.3090868592262268,0.013045534491539001,-0.01744837686419487
1783695991552677400,2.054677490234375,-0.34337952733039856,-0.06925279647111893,-0.0393502339720726
1783695991562640400,2.064640380859375,-0.3742215931415558,-0.14439281821250916,-0.06243051961064339
1783695991572604400,2.0746044921875,-0.3993961215019226,-0.20663490891456604,-0.09029293060302734
1783695991582568400,2.084568359375,-0.4160321056842804,-0.21928732097148895,-0.11524994671344757
1783695991592532500,2.094532470703125,-0.4194633662700653,-0.22169053554534912,-0.13228070735931396
1783695991602496500,2.10449658203125,-0.4042108952999115,-0.23777176439762115,-0.14988872408866882
1783695991612460300,2.114460205078125,-0.37698355317115784,-0.21867960691452026,-0.15517273545265198
1783695991622424300,2.12442431640625,-0.3212241530418396,-0.15635524690151215,-0.1426428258419037
1783695991632387300,2.13438720703125,-0.2505321800708771,-0.08936528861522675,-0.13132396340370178
1783695991642351400,2.144351318359375,-0.17699910700321198,-0.040194012224674225,-0.12477605044841766
1783695991652315400,2.1543154296875,-0.10833627730607986,-0.013944264501333237,-0.12631390988826752
1783695991662279400,2.164279541015625,-0.04548061639070511,-0.014969848096370697,-0.12088851630687714
1783695991672243500,2.174243408203125,-0.0032503793481737375,-0.04477729648351669,-0.10275407880544662
1783695991682207200,2.184207275390625,0.01765889674425125,-0.08632926642894745,-0.07615016400814056
1783695991692171300,2.194171142578125,0.01877461187541485,-0.12627774477005005,-0.06252028793096542
1783695991702134300,2.20413427734375,0.010226131416857243,-0.16140936315059662,-0.07012414932250977
1783695991712098300,2.214098388671875,-0.01511521078646183,-0.16605578362941742,-0.09495316445827484
1783695991722062300,2.224062255859375,-0.040656525641679764,-0.1467265635728836,-0.1379094272851944
1783695991732026400,2.2340263671875,-0.06868171691894531,-0.12052372843027115,-0.18481312692165375
1783695991741990400,2.243990478515625,-0.10059331357479095,-0.0954173132777214,-0.2173955738544464
1783695991751954400,2.253954345703125,-0.13285024464130402,-0.08842997997999191,-0.23770271241664886
1783695991761918200,2.263918212890625,-0.1634848415851593,-0.1005881056189537,-0.241705983877182
1783695991771881200,2.273881103515625,-0.192421093583107,-0.11753085255622864,-0.23509477078914642
1783695991781845200,2.28384521484375,-0.2193797379732132,-0.14667728543281555,-0.22097548842430115
1783695991791809300,2.293809326171875,-0.24680134654045105,-0.17245616018772125,-0.20693963766098022
1783695991801773300,2.303773193359375,-0.26850050687789917,-0.17918862402439117,-0.19752536714076996
1783695991811737300,2.3137373046875,-0.2777656316757202,-0.1662648618221283,-0.18933741748332977
1783695991821701400,2.323701416015625,-0.27544254064559937,-0.15116100013256073,-0.1842545121908188
1783695991831665200,2.3336650390625,-0.26140502095222473,-0.11325941234827042,-0.16667547821998596
1783695991841628400,2.34362841796875,-0.24514935910701752,-0.07829689979553223,-0.13620439171791077
1783695991851592200,2.35359228515625,-0.22666215896606445,-0.041883502155542374,-0.09765039384365082
1783695991861556200,2.36355615234375,-0.2054109275341034,-0.013511252589523792,-0.052883729338645935
1783695991871520300,2.373520263671875,-0.18549376726150513,-0.00410417327657342,-0.006452293135225773
1783695991881484300,2.383484375,-0.15659448504447937,-0.01601329632103443,0.03575561195611954
1783695991891448300,2.3934482421875,-0.12217453867197037,-0.048366181552410126,0.07140150666236877
1783695991901412400,2.403412353515625,-0.08426070958375931,-0.07940080016851425,0.1034393385052681
1783695991911375400,2.413375244140625,-0.06012822687625885,-0.11150944977998734,0.11982571333646774
1783695991921339400,2.42333935546875,-0.0545174777507782,-0.12927193939685822,0.12986743450164795
1783695991931303200,2.43330322265625,-0.05709601566195488,-0.1251344531774521,0.14655804634094238
1783695991941267200,2.44326708984375,-0.06559202820062637,-0.10597805678844452,0.16805055737495422
1783695991951231200,2.453231201171875,-0.08187713474035263,-0.05633888021111488,0.19306764006614685
1783695991961195300,2.4631953125,-0.10195843130350113,0.010734963230788708,0.20975421369075775
1783695991971159300,2.4731591796875,-0.11322379857301712,0.08285042643547058,0.21471402049064636
1783695991981122300,2.483122314453125,-0.1101720854640007,0.14731676876544952,0.20299850404262543
1783695991991086300,2.49308642578125,-0.09256621450185776,0.1576269119977951,0.16515254974365234
1783695992001050000,2.503050048828125,-0.07157783955335617,0.09902592748403549,0.11075401306152344
1783695992011014100,2.51301416015625,-0.05746297538280487,0.014200554229319096,0.0490773506462574
1783695992020978200,2.522978271484375,-0.04535891115665436,-0.05054035782814026,-0.007806439884006977
1783695992030942500,2.5329423828125,-0.0405416414141655,-0.09465484321117401,-0.05417214334011078
1783695992040906500,2.542906494140625,-0.0601251982152462,-0.13600042462348938,-0.0932401791214943
1783695992050869200,2.552869140625,-0.09457367658615112,-0.16064395010471344,-0.11047207564115524
1783695992060833300,2.562833251953125,-0.13096444308757782,-0.1537972390651703,-0.10150761157274246
1783695992070797600,2.572797607421875,-0.14780293405056,-0.12071068584918976,-0.07752352207899094
1783695992080761300,2.58276123046875,-0.1390206217765808,-0.07888361066579819,-0.04343825578689575
1783695992090725400,2.592725341796875,-0.10576873272657394,-0.022815007716417313,0.0012613687431439757
1783695992100689400,2.602689453125,-0.053409650921821594,0.03847178444266319,0.05168033391237259
1783695992110653400,2.6126533203125,0.0052776276133954525,0.09258029609918594,0.10043269395828247
1783695992120616400,2.622616455078125,0.06800732016563416,0.14213931560516357,0.12618252635002136
1783695992130580500,2.63258056640625,0.12866856157779694,0.177876815199852,0.1295400708913803
1783695992140544500,2.64254443359375,0.17756687104701996,0.20603947341442108,0.12242810428142548
1783695992150508300,2.65250830078125,0.22067511081695557,0.23272967338562012,0.10805797576904297
1783695992160472300,2.662472412109375,0.2550778388977051,0.27488112449645996,0.10606859624385834
1783695992170436400,2.672436279296875,0.2823014259338379,0.3327087461948395,0.1347866952419281
1783695992180400400,2.682400390625,0.30648374557495117,0.3861152231693268,0.18398113548755646
1783695992190363400,2.69236328125,0.32670050859451294,0.40143853425979614,0.23769257962703705
1783695992200327400,2.702327392578125,0.34921300411224365,0.38350507616996765,0.27784615755081177
1783695992210291500,2.71229150390625,0.3624122440814972,0.3458077609539032,0.28926974534988403
1783695992220255500,2.72225537109375,0.3678048849105835,0.2696216404438019,0.2689841687679291
1783695992230219300,2.73221923828125,0.3760947287082672,0.18058256804943085,0.23459793627262115
1783695992240183300,2.742183349609375,0.3859148621559143,0.09991169720888138,0.19514693319797516
1783695992250147300,2.752147216796875,0.38976290822029114,0.04309984669089317,0.15455451607704163
1783695992260110300,2.7621103515625,0.3919016718864441,0.010870001278817654,0.1291615515947342
1783695992270074400,2.772074462890625,0.3966110050678253,0.007699493784457445,0.10783005505800247
1783695992280038400,2.782038330078125,0.40468597412109375,0.024938134476542473,0.08581716567277908
1783695992290002400,2.79200244140625,0.4119616448879242,0.03145034238696098,0.05252799391746521
1783695992299966200,2.80196630859375,0.4175984859466553,0.016977660357952118,0.012583507224917412
1783695992309930500,2.811930419921875,0.42469850182533264,-0.0019326315959915519,-0.027241194620728493
1783695992319894500,2.82189453125,0.4288644790649414,-0.016321690753102303,-0.060180503875017166
1783695992329857300,2.831857177734375,0.432914137840271,-0.033291880041360855,-0.08050975948572159
1783695992339821300,2.8418212890625,0.437362939119339,-0.05907527357339859,-0.09526926279067993
1783695992349785600,2.85178564453125,0.44214969873428345,-0.0465371236205101,-0.10099617391824722
1783695992359749600,2.86174951171875,0.4468589723110199,0.011771989054977894,-0.0908612459897995
1783695992369713700,2.871713623046875,0.4521826207637787,0.09671486169099808,-0.0756237581372261
1783695992379677400,2.881677490234375,0.4697389602661133,0.18870656192302704,-0.060590215027332306
1783695992389641500,2.891641357421875,0.49450263381004333,0.2760459780693054,-0.04599902406334877
1783695992399604500,2.9016044921875,0.5215407013893127,0.33257851004600525,-0.04902251064777374
1783695992409568500,2.911568603515625,0.5521403551101685,0.3627704977989197,-0.06535635143518448
1783695992419532500,2.921532470703125,0.5713987350463867,0.37668976187705994,-0.0889892429113388
1783695992429496600,2.93149658203125,0.5723347663879395,0.36262455582618713,-0.10634031146764755
1783695992439460600,2.941460693359375,0.5516656637191772,0.33063361048698425,-0.11100190877914429
1783695992449424400,2.95142431640625,0.5199403166770935,0.28364211320877075,-0.09954654425382614
1783695992459388400,2.961388427734375,0.4820864200592041,0.23852044343948364,-0.08568612486124039
1783695992469351400,2.971351318359375,0.4422890245914459,0.19257399439811707,-0.07062959671020508
1783695992479315500,2.9813154296875,0.40324336290359497,0.15004703402519226,-0.06205342337489128
1783695992489279500,2.991279541015625,0.36336836218833923,0.12656967341899872,-0.058990832418203354
1783695992499243500,3.001243408203125,0.32992467284202576,0.12803176045417786,-0.06438826024532318
1783695992509207600,3.01120751953125,0.30749353766441345,0.1403280794620514,-0.07444234937429428
1783695992519171600,3.021171630859375,0.2868889272212982,0.15832839906215668,-0.08434104919433594
1783695992529135400,3.03113525390625,0.27501311898231506,0.1587749868631363,-0.08726274967193604
1783695992539098600,3.0410986328125,0.2694082260131836,0.15438050031661987,-0.06982916593551636
1783695992549062400,3.0510625,0.2618895471096039,0.15031284093856812,-0.03718500956892967
1783695992559026400,3.0610263671875,0.2510869801044464,0.14785873889923096,-0.0030667181126773357
1783695992568990500,3.070990478515625,0.22923095524311066,0.15161511301994324,0.022379308938980103
1783695992578954500,3.08095458984375,0.20765402913093567,0.15748710930347443,0.038771599531173706
1783695992588918500,3.09091845703125,0.18903200328350067,0.15484176576137543,0.05848627910017967
1783695992598882600,3.100882568359375,0.17475318908691406,0.14005616307258606,0.0813220888376236
1783695992608845600,3.110845458984375,0.16979406774044037,0.10252983868122101,0.11312379688024521
1783695992618809300,3.120809326171875,0.1684851199388504,0.047884441912174225,0.15662306547164917
1783695992628773400,3.1307734375,0.17401525378227234,0.004903171677142382,0.20947740972042084
1783695992638737400,3.1407373046875,0.17986807227134705,-0.017236750572919846,0.25006958842277527
1783695992648701400,3.150701416015625,0.18564373254776,-0.028831373900175095,0.2600020170211792
1783695992658665500,3.16066552734375,0.18593907356262207,-0.02374526858329773,0.2332574725151062
1783695992668629500,3.17062939453125,0.17658686637878418,-0.0008915961952880025,0.17726540565490723
1783695992678592500,3.180592529296875,0.16602611541748047,0.014167248271405697,0.10624369233846664
1783695992688556500,3.190556640625,0.149389386177063,0.016172591596841812,0.05655485764145851
1783695992698520300,3.200520263671875,0.12515009939670563,0.0313187874853611,0.04806230217218399
1783695992708484400,3.210484375,0.12160921096801758,0.06441626697778702,0.07395797967910767
1783695992718448400,3.220448486328125,0.14508657157421112,0.07502496987581253,0.11204437911510468
1783695992728412400,3.230412353515625,0.1564328968524933,0.060205817222595215,0.1274995505809784
1783695992738375400,3.24037548828125,0.1423168182373047,0.05175347626209259,0.09792036563158035
1783695992748339500,3.25033935546875,0.1182737648487091,0.047880977392196655,0.029991012066602707
1783695992758303500,3.260303466796875,0.09374099224805832,0.04419409856200218,-0.05018904432654381
1783695992768267500,3.270267578125,0.0643150582909584,0.05379560589790344,-0.11376336961984634
1783695992778231300,3.280231201171875,0.027859851717948914,0.07354507595300674,-0.15067024528980255
1783695992788195300,3.2901953125,-0.008909180760383606,0.08954855054616928,-0.15040157735347748
1783695992798159400,3.300159423828125,-0.03622948378324509,0.11501342803239822,-0.12270735949277878
1783695992808123400,3.310123291015625,-0.047764770686626434,0.15064677596092224,-0.07925967872142792
1783695992818086400,3.32008642578125,-0.03366066887974739,0.20395472645759583,-0.03696149215102196
1783695992828050400,3.330050537109375,-0.009336237795650959,0.2567359209060669,-0.013696628622710705
1783695992838014500,3.340014404296875,0.013684659264981747,0.3017697036266327,-0.027865445241332054
1783695992847978200,3.349978271484375,0.03847770765423775,0.3253972828388214,-0.0711122676730156
1783695992857942300,3.3599423828125,0.0641026422381401,0.32781782746315,-0.12283006310462952
1783695992867906300,3.36990625,0.08083397150039673,0.3012961745262146,-0.1565120667219162
1783695992877869300,3.379869384765625,0.09336733818054199,0.2567516267299652,-0.14749139547348022
1783695992887833300,3.389833251953125,0.10490122437477112,0.20080366730690002,-0.09404735267162323
1783695992897797400,3.39979736328125,0.11779917776584625,0.13375858962535858,-0.018068969249725342
1783695992907761400,3.409761474609375,0.13224896788597107,0.07987194508314133,0.07430994510650635
1783695992917725400,3.419725341796875,0.15401364862918854,0.0609549805521965,0.174851194024086
1783695992927689500,3.429689453125,0.17977388203144073,0.05739671736955643,0.27133119106292725
1783695992937653500,3.439653564453125,0.2088388204574585,0.048970211297273636,0.35195785760879517
1783695992947616300,3.4496162109375,0.24160216748714447,0.04550385847687721,0.41404858231544495
1783695992957580500,3.45958056640625,0.26251065731048584,0.04391022399067879,0.4488140046596527
1783695992967544600,3.469544677734375,0.27808764576911926,0.0516645610332489,0.44627252221107483
1783695992977508600,3.479508544921875,0.28347522020339966,0.0783933773636818,0.4157593548297882
1783695992987472600,3.48947265625,0.28614330291748047,0.12243513762950897,0.3708842098712921
1783695992997436400,3.4994365234375,0.2851843237876892,0.16553813219070435,0.3105199337005615
1783695993007400400,3.509400390625,0.283542662858963,0.21022674441337585,0.24047431349754333
1783695993017363500,3.519363525390625,0.2866913080215454,0.24474956095218658,0.17628227174282074
1783695993027327500,3.529327392578125,0.2893751859664917,0.28347247838974,0.1193990707397461
1783695993037291500,3.53929150390625,0.2931736409664154,0.3218376934528351,0.0707995817065239
1783695993047255600,3.549255615234375,0.30539634823799133,0.355570912361145,0.013722643256187439
1783695993057219600,3.559219482421875,0.3227258026599884,0.3733309805393219,-0.05713794752955437
1783695993067183600,3.56918359375,0.34796589612960815,0.37803491950035095,-0.14038127660751343
1783695993077147400,3.5791474609375,0.38308340311050415,0.3783119022846222,-0.2247994840145111
1783695993087110400,3.5891103515625,0.41276079416275024,0.3856545090675354,-0.29836130142211914
1783695993097074400,3.599074462890625,0.44542020559310913,0.4015357196331024,-0.3468998074531555
1783695993107038500,3.60903857421875,0.4828792214393616,0.4271497428417206,-0.3680347800254822
1783695993117002500,3.61900244140625,0.5150861740112305,0.4627234637737274,-0.36471861600875854
1783695993126966500,3.628966552734375,0.5393351912498474,0.47507840394973755,-0.35731184482574463
1783695993136930600,3.6389306640625,0.566332995891571,0.4660630524158478,-0.3422969579696655
1783695993146894300,3.648894287109375,0.5943025946617126,0.44546961784362793,-0.3186084032058716
1783695993156857600,3.658857666015625,0.6242210865020752,0.4167215824127197,-0.28670960664749146
1783695993166821400,3.6688212890625,0.6546892523765564,0.3720846474170685,-0.2500952482223511
1783695993176785400,3.678785400390625,0.6856189370155334,0.31927627325057983,-0.21564139425754547
1783695993186749200,3.688749267578125,0.7117094397544861,0.25311562418937683,-0.18236957490444183
1783695993196713200,3.698713134765625,0.7345492839813232,0.1860644370317459,-0.1519802361726761
1783695993206677200,3.70867724609375,0.7503859400749207,0.12913300096988678,-0.13200195133686066
1783695993216641300,3.718641357421875,0.7639914751052856,0.07946530729532242,-0.12551502883434296
1783695993226604300,3.728604248046875,0.7843928933143616,0.04124944284558296,-0.1380034238100052
1783695993236568300,3.738568359375,0.7879735231399536,0.03763287141919136,-0.17024551331996918
1783695993246532000,3.748531982421875,0.7857283353805542,0.06585627049207687,-0.20615021884441376
1783695993256496000,3.75849609375,0.7778387069702148,0.11587470024824142,-0.24530029296875
1783695993266460200,3.768460205078125,0.7757176756858826,0.1836414933204651,-0.2847861647605896
1783695993276424200,3.778424072265625,0.7732998132705688,0.24937975406646729,-0.31217172741889954
1783695993286387200,3.78838720703125,0.775526762008667,0.3194504380226135,-0.3155320882797241
1783695993296351200,3.798351318359375,0.7776389122009277,0.4041280448436737,-0.2927575409412384
1783695993306315300,3.808315185546875,0.7824182510375977,0.48661309480667114,-0.2537601590156555
1783695993316279300,3.818279296875,0.7898428440093994,0.5444499850273132,-0.21348196268081665
1783695993326243000,3.8282431640625,0.8083481192588806,0.5672434568405151,-0.17480023205280304
1783695993336207000,3.83820703125,0.836260974407196,0.5635467171669006,-0.14123427867889404
1783695993346171100,3.848171142578125,0.8692073225975037,0.5360378623008728,-0.11065599322319031
1783695993356134100,3.858134033203125,0.9078188538551331,0.48921364545822144,-0.06481127440929413
1783695993366098200,3.86809814453125,0.9516992568969727,0.43446701765060425,0.0013907107058912516
1783695993376062200,3.878062255859375,0.9882082343101501,0.3752966523170471,0.08240193873643875
1783695993386026200,3.888026123046875,1.019885540008545,0.3132420480251312,0.16408422589302063
1783695993395990000,3.897989990234375,1.0510914325714111,0.24959570169448853,0.23407955467700958
1783695993405954000,3.9079541015625,1.0878392457962036,0.18478208780288696,0.2886996567249298
1783695993415918000,3.91791796875,1.1340807676315308,0.10825323313474655,0.3315938413143158
1783695993425881000,3.927881103515625,1.1847573518753052,0.05027170106768608,0.36752715706825256
1783695993435845000,3.93784521484375,1.2417266368865967,0.05572505667805672,0.40487876534461975
1783695993445809200,3.94780908203125,1.3144408464431763,0.10068456083536148,0.42720192670822144
1783695993455773200,3.957773193359375,1.405759334564209,0.14337635040283203,0.41673916578292847
1783695993465737200,3.9677373046875,1.4908359050750732,0.15949352085590363,0.36764299869537354
1783695993475701000,3.977700927734375,1.5518604516983032,0.17672976851463318,0.3023707866668701
1783695993485665000,3.9876650390625,1.5862116813659668,0.20639897882938385,0.24784007668495178
1783695993495628000,3.9976279296875,1.5870803594589233,0.23572836816310883,0.20752568542957306
1783695993505592000,4.007592041015625,1.5694377422332764,0.2622947096824646,0.2095625400543213
1783695993515556000,4.01755615234375,1.5499324798583984,0.34480583667755127,0.2725582718849182
1783695993525520100,4.02752001953125,1.5502418279647827,0.4874300956726074,0.37685427069664
1783695993535484400,4.037484375,1.5720999240875244,0.6394572257995605,0.49653032422065735
1783695993545448200,4.0474482421875,1.6163923740386963,0.7642553448677063,0.5860152840614319
1783695993555412200,4.057412109375,1.6924983263015747,0.8399285078048706,0.6205754280090332
1783695993565375000,4.067375,1.776956558227539,0.8583322763442993,0.6107668876647949
1783695993575339300,4.07733935546875,1.8344379663467407,0.8204312324523926,0.566683292388916
1783695993585303300,4.08730322265625,1.8700642585754395,0.7398679256439209,0.5074456930160522
1783695993595267300,4.097267333984375,1.8803080320358276,0.6515913009643555,0.4330143630504608
1783695993605231400,4.1072314453125,1.8710986375808716,0.594297468662262,0.3636016845703125
1783695993615195400,4.1171953125,1.8484793901443481,0.5817220211029053,0.31538331508636475
1783695993625159200,4.1271591796875,1.819397211074829,0.6096311211585999,0.2921014428138733
1783695993635122200,4.1371220703125,1.804459571838379,0.6597622036933899,0.2844139337539673
1783695993645086200,4.147086181640625,1.8038220405578613,0.7309836745262146,0.2791445553302765
1783695993655050200,4.15705029296875,1.8119444847106934,0.815019965171814,0.2600952088832855
1783695993665014300,4.16701416015625,1.8233107328414917,0.8845236301422119,0.2279662936925888
1783695993674978300,4.176978271484375,1.839964509010315,0.9467292428016663,0.19085514545440674
1783695993684942300,4.1869423828125,1.860219955444336,1.0068005323410034,0.1568223536014557
1783695993694905300,4.1969052734375,1.8814994096755981,1.072367548942566,0.12265320122241974
1783695993704869400,4.206869384765625,1.9014432430267334,1.1327733993530273,0.08518014848232269
1783695993714833200,4.216833251953125,1.9221309423446655,1.1972613334655762,0.05832536891102791
1783695993724797200,4.226797119140625,1.9455723762512207,1.2766538858413696,0.05057037994265556
1783695993734761200,4.23676123046875,1.966629981994629,1.3518322706222534,0.06499246507883072
1783695993744725200,4.246725341796875,1.9812556505203247,1.3899524211883545,0.08412520587444305
1783695993754689300,4.256689208984375,1.9976272583007812,1.4026954174041748,0.10092335939407349
1783695993764652300,4.26665234375,2.0124688148498535,1.3954415321350098,0.10579485446214676
1783695993774616300,4.2766162109375,2.0206406116485596,1.3578927516937256,0.09291314333677292
1783695993784580400,4.286580322265625,2.0197649002075195,1.3081034421920776,0.06472040712833405
1783695993794544000,4.296544189453125,2.005598783493042,1.242326259613037,0.029864691197872162
1783695993804508200,4.306508056640625,1.994421124458313,1.1611371040344238,-0.009557261131703854
1783695993814472200,4.31647216796875,1.9893406629562378,1.0898776054382324,-0.026633450761437416
1783695993824436200,4.326436279296875,1.979347586631775,1.0324920415878296,-0.02232564240694046
1783695993834399200,4.336399169921875,1.9626346826553345,0.9932671785354614,0.0012420008424669504
1783695993844363300,4.34636328125,1.9464083909988403,0.9734753966331482,0.022727081552147865
1783695993854327300,4.356327392578125,1.9228087663650513,0.9898120164871216,0.03711827099323273
1783695993864291000,4.366291015625,1.8999484777450562,1.0355890989303589,0.034796688705682755
1783695993874255000,4.376255126953125,1.8802943229675293,1.0884429216384888,0.02171257510781288
1783695993884219100,4.38621923828125,1.858898401260376,1.1306394338607788,0.0047798496671020985
1783695993894182100,4.39618212890625,1.843051552772522,1.158558964729309,-0.00858602300286293
1783695993904146200,4.406146240234375,1.8248804807662964,1.1718875169754028,-0.013663644902408123
1783695993914110200,4.416110107421875,1.8027905225753784,1.1721359491348267,-0.011762946844100952
1783695993924074200,4.42607421875,1.7801620960235596,1.1532349586486816,-0.007583080790936947
1783695993934038300,4.436038330078125,1.7560069561004639,1.1482516527175903,0.005089571699500084
1783695993944002000,4.446001953125,1.730773687362671,1.1502330303192139,0.02383992448449135
1783695993953966000,4.455966064453125,1.7060060501098633,1.145063877105713,0.04413800314068794
1783695993963929000,4.46592919921875,1.6830397844314575,1.1283708810806274,0.05723614990711212
1783695993973893000,4.47589306640625,1.6664276123046875,1.1138784885406494,0.06437208503484726
1783695993983857200,4.485857177734375,1.6472256183624268,1.0990068912506104,0.06535828113555908
1783695993993821200,4.4958212890625,1.62335205078125,1.0764880180358887,0.05849797651171684
1783695994003785200,4.50578515625,1.6043895483016968,1.0490872859954834,0.04304732009768486
1783695994013749200,4.515749267578125,1.5882819890975952,1.034306526184082,0.030790654942393303
1783695994023713000,4.525713134765625,1.575605869293213,1.019303321838379,0.027321990579366684
1783695994033676000,4.535676025390625,1.5603203773498535,1.0058404207229614,0.03306270390748978
1783695994043640000,4.54564013671875,1.5444883108139038,0.9859147667884827,0.037505242973566055
1783695994053604000,4.55560400390625,1.5218708515167236,0.9653812646865845,0.03494327887892723
1783695994063568100,4.565568115234375,1.500988483428955,0.9450927376747131,0.02831089310348034
1783695994073532200,4.5755322265625,1.4798059463500977,0.9405840635299683,0.02157922089099884
1783695994083496200,4.58549609375,1.4592453241348267,0.9610030055046082,0.010785810649394989
1783695994093459200,4.595459228515625,1.4356368780136108,0.9793564677238464,-0.0029957820661365986
1783695994103423200,4.60542333984375,1.4196182489395142,0.9922009110450745,-0.026256585493683815
1783695994113387000,4.615386962890625,1.413138508796692,1.0146656036376953,-0.047382377088069916
1783695994123351000,4.62535107421875,1.414704442024231,1.0378674268722534,-0.06709082424640656
1783695994133315000,4.635315185546875,1.422032356262207,1.0390630960464478,-0.08378031849861145
1783695994143279400,4.645279296875,1.4409923553466797,1.0302283763885498,-0.09281612932682037
1783695994153243400,4.655243408203125,1.460913896560669,1.0182465314865112,-0.08692042529582977
1783695994163206100,4.6652060546875,1.485138177871704,0.9905526041984558,-0.0735519602894783
1783695994173170200,4.675170166015625,1.5049934387207031,0.9527959227561951,-0.06436192244291306
1783695994183134200,4.68513427734375,1.5106502771377563,0.9064527153968811,-0.08062845468521118
1783695994193098000,4.695097900390625,1.499369740486145,0.8558289408683777,-0.11823335289955139
1783695994203062000,4.70506201171875,1.4804792404174805,0.8170242309570312,-0.16212552785873413
1783695994213026000,4.715026123046875,1.4515280723571777,0.809881865978241,-0.18362681567668915
1783695994222990000,4.724989990234375,1.4146281480789185,0.8254837393760681,-0.19040314853191376
1783695994232953000,4.734953125,1.3949739933013916,0.8550270199775696,-0.18099446594715118
1783695994242917000,4.744917236328125,1.3902771472930908,0.8856173753738403,-0.1688145399093628
1783695994252881200,4.754881103515625,1.3966530561447144,0.90095055103302,-0.15592749416828156
1783695994262845000,4.764844970703125,1.4050652980804443,0.8870899081230164,-0.1439533233642578
1783695994272809000,4.77480908203125,1.410254716873169,0.8510863780975342,-0.13391852378845215
1783695994282773000,4.78477294921875,1.401318073272705,0.8210715055465698,-0.1297345757484436
1783695994292736000,4.794736083984375,1.383919358253479,0.8143733739852905,-0.13812272250652313
1783695994302700000,4.804699951171875,1.3604704141616821,0.8299845457077026,-0.15623630583286285
1783695994312664000,4.8146640625,1.3313274383544922,0.8561525344848633,-0.1868320256471634
1783695994322628000,4.824628173828125,1.3010456562042236,0.8688209056854248,-0.22353477776050568
1783695994332592000,4.834592041015625,1.2794727087020874,0.8772058486938477,-0.24961352348327637
1783695994342556000,4.844555908203125,1.2611669301986694,0.8687279224395752,-0.2600584924221039
1783695994352520000,4.85452001953125,1.2465916872024536,0.8319536447525024,-0.24143341183662415
1783695994362483000,4.86448291015625,1.2340291738510132,0.7617874145507812,-0.2076774537563324
1783695994372447000,4.874447021484375,1.2207155227661133,0.6738168001174927,-0.15482409298419952
1783695994382411000,4.884410888671875,1.200250506401062,0.5959581732749939,-0.0904017761349678
1783695994392375000,4.894375,1.1599472761154175,0.5458382368087769,-0.02587737888097763
1783695994402339000,4.904339111328125,1.1171348094940186,0.5255066156387329,0.030646761879324913
1783695994412302800,4.914302734375,1.07413649559021,0.537837564945221,0.07578600943088531
1783695994422267000,4.924266845703125,1.039799690246582,0.5814082622528076,0.11630413681268692
1783695994432230000,4.93422998046875,1.0243360996246338,0.6595054268836975,0.14991696178913116
1783695994442194000,4.94419384765625,1.024520993232727,0.753085732460022,0.15552130341529846
1783695994452158000,4.954157958984375,1.0316444635391235,0.8406134247779846,0.12618204951286316
1783695994462122000,4.9641220703125,1.0511716604232788,0.9142234921455383,0.06430061161518097
1783695994472086300,4.974086181640625,1.073101282119751,0.9710577130317688,-0.010134204290807247
1783695994482050300,4.98405029296875,1.0927369594573975,1.001376748085022,-0.0778021365404129
1783695994492013000,4.994012939453125,1.101763129234314,0.9939904808998108,-0.13002271950244904
1783695994501977000,5.00397705078125,1.1066900491714478,0.9549930691719055,-0.16836762428283691
1783695994511940900,5.01394091796875,1.1192622184753418,0.9027535915374756,-0.18640866875648499
1783695994521905200,5.0239052734375,1.1334569454193115,0.8522225022315979,-0.183543860912323
1783695994531869200,5.033869140625,1.1421220302581787,0.8009760975837708,-0.18790532648563385
1783695994541833200,5.043833251953125,1.1451282501220703,0.7615079879760742,-0.2034943848848343
1783695994551797200,5.05379736328125,1.1438347101211548,0.7319010496139526,-0.22749371826648712
1783695994561760300,5.06376025390625,1.1431663036346436,0.7102868556976318,-0.2589116394519806
1783695994571724300,5.073724365234375,1.13722825050354,0.6933630108833313,-0.2826513350009918
1783695994581688000,5.08368798828125,1.1357104778289795,0.6850155591964722,-0.2974405884742737
1783695994591652000,5.093652099609375,1.1481064558029175,0.6897379159927368,-0.29412710666656494
1783695994601616100,5.1036162109375,1.1695526838302612,0.6907848119735718,-0.2802661955356598
1783695994611580200,5.113580078125,1.198164939880371,0.676728367805481,-0.2691059410572052
1783695994621543200,5.123543212890625,1.227049469947815,0.6498938798904419,-0.26106274127960205
1783695994631507200,5.133507080078125,1.2599952220916748,0.622532844543457,-0.2510758936405182
1783695994641471200,5.14347119140625,1.2878921031951904,0.5882256627082825,-0.2373533844947815
1783695994651435300,5.153435302734375,1.3128249645233154,0.5450621843338013,-0.22015629708766937
1783695994661399000,5.16339892578125,1.3342878818511963,0.5074294209480286,-0.19944746792316437
1783695994671363000,5.173363037109375,1.3510292768478394,0.4648001492023468,-0.17806175351142883
1783695994681327000,5.1833271484375,1.3620469570159912,0.42222845554351807,-0.16240645945072174
1783695994691290000,5.1932900390625,1.372449517250061,0.39885416626930237,-0.16195319592952728
1783695994701254100,5.203254150390625,1.374695062637329,0.40556052327156067,-0.17128151655197144
1783695994711218200,5.21321826171875,1.3734843730926514,0.4301052987575531,-0.19583240151405334
1783695994721182200,5.22318212890625,1.358083963394165,0.47635751962661743,-0.23437030613422394
1783695994731146000,5.23314599609375,1.3405177593231201,0.5355824828147888,-0.2762397229671478
1783695994741110000,5.243110107421875,1.3172290325164795,0.5855369567871094,-0.3107815682888031
1783695994751074000,5.253073974609375,1.2978074550628662,0.6115562915802002,-0.3289869427680969
1783695994761037000,5.263037109375,1.2849394083023071,0.6095762252807617,-0.3335704207420349
1783695994771001000,5.2730009765625,1.2751504182815552,0.5696724653244019,-0.3252198100090027
1783695994780965000,5.282965087890625,1.262003779411316,0.5146918296813965,-0.31313320994377136
1783695994790929200,5.29292919921875,1.2418441772460938,0.4509549140930176,-0.28603315353393555
1783695994800893200,5.30289306640625,1.20528244972229,0.39306947588920593,-0.2516520619392395
1783695994810857000,5.31285693359375,1.168686032295227,0.34709933400154114,-0.21585622429847717
1783695994820820000,5.322820068359375,1.1321728229522705,0.3195561468601227,-0.1840967983007431
1783695994830784000,5.332783935546875,1.1025534868240356,0.30284401774406433,-0.16013208031654358
1783695994840748000,5.342748046875,1.0748475790023804,0.2801070213317871,-0.14663256704807281
1783695994850712000,5.352712158203125,1.0482020378112793,0.25834977626800537,-0.14713484048843384
1783695994860676000,5.362676025390625,1.0210245847702026,0.2427942454814911,-0.16088183224201202
1783695994870640000,5.37264013671875,0.998190701007843,0.2325434684753418,-0.18061211705207825
1783695994880604000,5.38260400390625,0.9733068943023682,0.22036460041999817,-0.19816626608371735
1783695994890567200,5.392567138671875,0.9419846534729004,0.19456921517848969,-0.19374382495880127
1783695994900531000,5.402531005859375,0.9145262241363525,0.16197341680526733,-0.16042332351207733
1783695994910495000,5.412494873046875,0.892067015171051,0.1608911007642746,-0.09827021509408951
1783695994920459000,5.422458984375,0.870466411113739,0.1836305409669876,-0.031718652695417404
1783695994930423000,5.432423095703125,0.8441999554634094,0.209886372089386,0.02474435791373253
1783695994940387000,5.442386962890625,0.808707594871521,0.2440912276506424,0.061567049473524094
1783695994950350000,5.45235009765625,0.7645385265350342,0.2908286452293396,0.08627292513847351
1783695994960314000,5.462314208984375,0.7264008522033691,0.3332594633102417,0.09342699497938156
1783695994970278100,5.472278076171875,0.6890718340873718,0.36605337262153625,0.09009351581335068
1783695994980242000,5.482241943359375,0.655538022518158,0.376953661441803,0.08262476325035095
1783695994990206000,5.4922060546875,0.6185102462768555,0.3699572682380676,0.07716448605060577
1783695995000170000,5.502169921875,0.5852630734443665,0.3491888642311096,0.07452023029327393
1783695995010134000,5.512134033203125,0.5578692555427551,0.30786195397377014,0.0774686187505722
1783695995020097000,5.522096923828125,0.5325611233711243,0.24131913483142853,0.09260313957929611
1783695995030061000,5.53206103515625,0.5126055479049683,0.17088279128074646,0.13151590526103973
1783695995040025000,5.542025146484375,0.4885532259941101,0.10738690942525864,0.20174042880535126
1783695995049988900,5.55198876953125,0.4617287814617157,0.0554795041680336,0.2838853597640991
1783695995059953000,5.561952880859375,0.4329383075237274,0.011079799383878708,0.3601778745651245
1783695995069917000,5.5719169921875,0.41317203640937805,-0.025874756276607513,0.4146994352340698
1783695995079880000,5.5818798828125,0.39647483825683594,-0.04493336379528046,0.4320371747016907
1783695995089844000,5.591843994140625,0.39399784803390503,-0.03261943906545639,0.4099840521812439
1783695995099808000,5.60180810546875,0.39935460686683655,-0.0028293393552303314,0.3570835590362549
1783695995109772000,5.61177197265625,0.412060022354126,0.030426084995269775,0.2956518828868866
1783695995119736000,5.621736083984375,0.42602604627609253,0.06281518191099167,0.25220900774002075
1783695995129700000,5.6317001953125,0.4383231997489929,0.11964837461709976,0.23172475397586823
1783695995139664100,5.6416640625,0.452212929725647,0.20245052874088287,0.2182343751192093
1783695995149627000,5.651626953125,0.4677000045776367,0.2781663239002228,0.20357553660869598
1783695995159591000,5.6615908203125,0.47332441806793213,0.32081955671310425,0.17716152966022491
1783695995169555200,5.67155517578125,0.45510467886924744,0.31925439834594727,0.14759059250354767
1783695995179519200,5.681519287109375,0.4170801341533661,0.2800694704055786,0.12513922154903412
1783695995189483000,5.69148291015625,0.35991883277893066,0.22768534719944,0.11414755880832672
1783695995199447000,5.701447021484375,0.30074286460876465,0.18169549107551575,0.1134098619222641
1783695995209410800,5.711410888671875,0.25071537494659424,0.15361644327640533,0.1173689216375351
1783695995219373800,5.721373779296875,0.2152412086725235,0.15239620208740234,0.12905412912368774
1783695995229337900,5.731337890625,0.193161740899086,0.17530924081802368,0.1392098367214203
1783695995239302000,5.741302001953125,0.18911173939704895,0.21609793603420258,0.13630260527133942
1783695995249266000,5.751265869140625,0.1989012509584427,0.26152798533439636,0.1205177754163742
1783695995259230000,5.76122998046875,0.2097742259502411,0.29605162143707275,0.0941103845834732
1783695995269194000,5.771194091796875,0.22274301946163177,0.2947096526622772,0.06925137341022491
1783695995279157000,5.781156982421875,0.23078694939613342,0.26527559757232666,0.05690663680434227
1783695995289121000,5.79112109375,0.23338966071605682,0.22582858800888062,0.055126577615737915
1783695995299084800,5.801084716796875,0.231719508767128,0.19114331901073456,0.05766991898417473
1783695995309048800,5.811048828125,0.22633033990859985,0.1702020764350891,0.05336092412471771
1783695995319012900,5.821012939453125,0.2236478477716446,0.14903689920902252,0.04558056965470314
1783695995328977000,5.830976806640625,0.2255280464887619,0.13576078414916992,0.03967394307255745
1783695995338941000,5.84094091796875,0.23761644959449768,0.14364826679229736,0.05015261843800545
1783695995348904000,5.850904052734375,0.2577188014984131,0.17571644484996796,0.07688809186220169
1783695995358868000,5.860867919921875,0.2848726212978363,0.2298169881105423,0.11723805963993073
1783695995368832000,5.87083203125,0.31558847427368164,0.29174908995628357,0.17549045383930206
1783695995378795800,5.880795654296875,0.3511750400066376,0.3592928946018219,0.23370033502578735
1783695995388759800,5.890759765625,0.38815838098526,0.41102269291877747,0.27866142988204956
1783695995398723800,5.900723876953125,0.4232034385204315,0.43514159321784973,0.3083074688911438
1783695995408687900,5.91068798828125,0.45061907172203064,0.4018142819404602,0.3144929111003876
1783695995418651000,5.92065087890625,0.471345990896225,0.3234611749649048,0.3061259090900421
1783695995428615000,5.930614990234375,0.48623359203338623,0.2378101795911789,0.28512632846832275
1783695995438579000,5.940578857421875,0.49259433150291443,0.15797258913516998,0.25128495693206787
1783695995448542700,5.950542724609375,0.4938763678073883,0.07779361307621002,0.21259933710098267
1783695995458506800,5.9605068359375,0.49182194471359253,0.00422003073617816,0.1700333058834076
1783695995468470800,5.970470703125,0.4851219654083252,-0.05197612941265106,0.1268584132194519
1783695995478434800,5.980434814453125,0.4761560559272766,-0.09448229521512985,0.08784189820289612
1783695995488397800,5.990397705078125,0.4520757496356964,-0.12525777518749237,0.0485759861767292
1783695995498361900,6.00036181640625,0.4219852387905121,-0.14483819901943207,0.0028130998834967613
1783695995508326000,6.010325927734375,0.38669276237487793,-0.14904466271400452,-0.045213814824819565
1783695995518290000,6.0202900390625,0.34834402799606323,-0.1421092301607132,-0.08870196342468262
1783695995528253700,6.030253662109375,0.30849966406822205,-0.10734513401985168,-0.12681925296783447
1783695995538217700,6.0402177734375,0.2859412729740143,-0.03400697186589241,-0.14966411888599396
1783695995548180700,6.0501806640625,0.27661648392677307,0.09262500703334808,-0.1563664823770523
1783695995558144800,6.060144775390625,0.2781367003917694,0.2253369837999344,-0.1617916375398636
1783695995568108800,6.07010888671875,0.280405193567276,0.31696197390556335,-0.16855500638484955
1783695995578072800,6.08007275390625,0.2812473177909851,0.3651140332221985,-0.18044698238372803
1783695995588036900,6.090036865234375,0.2759087383747101,0.36555081605911255,-0.1898988038301468
1783695995598000600,6.100000732421875,0.25911176204681396,0.31706610321998596,-0.1980711668729782
1783695995607964700,6.109964599609375,0.23080343008041382,0.23772840201854706,-0.19761230051517487
1783695995617927700,6.119927734375,0.19813524186611176,0.1536572128534317,-0.17869368195533752
1783695995627891700,6.1298916015625,0.17169085144996643,0.09596914798021317,-0.1523297280073166
1783695995637855700,6.139855712890625,0.1481066644191742,0.06367883086204529,-0.1279669553041458
1783695995647819800,6.14981982421875,0.1327945590019226,0.06109503284096718,-0.10749895870685577
1783695995657783800,6.15978369140625,0.12340068817138672,0.08493062853813171,-0.09234482795000076
1783695995667747800,6.169747802734375,0.11490946263074875,0.11280141025781631,-0.0811113491654396
1783695995677711600,6.179711669921875,0.10921034216880798,0.12252187728881836,-0.0758349671959877
1783695995687675000,6.1896748046875,0.10558071732521057,0.12003076076507568,-0.07607544958591461
1783695995697638700,6.199638671875,0.09811234474182129,0.11558758467435837,-0.0826382264494896
1783695995707602700,6.209602783203125,0.08287426829338074,0.0913645401597023,-0.09147699177265167
1783695995717566700,6.219566650390625,0.06642020493745804,0.06138371676206589,-0.0981108695268631
1783695995727530800,6.22953076171875,0.043646190315485,0.05714050307869911,-0.10047069936990738
1783695995737494800,6.239494873046875,0.020607447251677513,0.07228513062000275,-0.10483776032924652
1783695995747458800,6.249458740234375,-0.0024318257346749306,0.09840727597475052,-0.10655603557825089
1783695995757421800,6.259421875,-0.026790278032422066,0.11636760085821152,-0.09951949864625931
1783695995767385600,6.269385498046875,-0.0478348433971405,0.11696574836969376,-0.08884768187999725
1783695995777349600,6.279349609375,-0.06137007474899292,0.09268522262573242,-0.06725314259529114
1783695995787314000,6.28931396484375,-0.07194256037473679,0.05011938139796257,-0.02760320156812668
1783695995797278000,6.29927783203125,-0.08154714852571487,-0.012567739933729172,0.028506727889180183
1783695995807242000,6.309241943359375,-0.09521662443876266,-0.09394355863332748,0.09195201098918915
1783695995817206000,6.3192060546875,-0.11150640994310379,-0.17375898361206055,0.15643581748008728
1783695995827169000,6.3291689453125,-0.13621735572814941,-0.23778298497200012,0.22210164368152618
1783695995837133000,6.339133056640625,-0.16649939119815826,-0.26493340730667114,0.27063101530075073
1783695995847096800,6.349096923828125,-0.20087069272994995,-0.2674351632595062,0.29691827297210693
1783695995857060900,6.359060791015625,-0.23140642046928406,-0.24859917163848877,0.29564470052719116
1783695995867025000,6.36902490234375,-0.2600726783275604,-0.20404741168022156,0.2754720449447632
1783695995876989000,6.378989013671875,-0.28684908151626587,-0.13314715027809143,0.24133358895778656
1783695995886953000,6.388952880859375,-0.309967964887619,-0.05032363906502724,0.19160784780979156
1783695995896916000,6.398916015625,-0.33192554116249084,0.015449527651071548,0.12840940058231354
1783695995906880000,6.4088798828125,-0.34952399134635925,0.03386874869465828,0.06354384869337082
1783695995916843800,6.41884375,-0.3737080693244934,-0.0012029469944536686,-0.0011350313434377313
1783695995926807800,6.428807861328125,-0.4078138470649719,-0.04801039770245552,-0.040374044328927994
1783695995936771800,6.438771728515625,-0.4468145966529846,-0.056329067796468735,-0.05598285794258118
1783695995946735900,6.44873583984375,-0.47957494854927063,-0.02417672425508499,-0.046037282794713974
1783695995956699000,6.458698974609375,-0.5009428858757019,0.02482651174068451,-0.027647294104099274
1783695995966663000,6.468662841796875,-0.5114165544509888,0.06954444944858551,-0.0015107642393559217
1783695995976627000,6.478626953125,-0.5131909251213074,0.1007782369852066,0.016191203147172928
1783695995986591000,6.488591064453125,-0.5110347867012024,0.11628369241952896,0.031330473721027374
1783695995996554800,6.4985546875,-0.5156936645507812,0.10185234248638153,0.035730451345443726
1783695996006518800,6.508518798828125,-0.5234221816062927,0.062100667506456375,0.02877028100192547
1783695996016482800,6.51848291015625,-0.5296827554702759,0.012142916209995747,0.014550839550793171
1783695996026445800,6.52844580078125,-0.5387193560600281,-0.05139904096722603,-0.017692318186163902
1783695996036409900,6.538409912109375,-0.5538180470466614,-0.14411936700344086,-0.06808659434318542
1783695996046374000,6.548373779296875,-0.5731747150421143,-0.24462999403476715,-0.13285866379737854
1783695996056338000,6.558337890625,-0.5962392687797546,-0.33388715982437134,-0.20239806175231934
1783695996066301700,6.5683017578125,-0.6153911352157593,-0.39360350370407104,-0.2509658634662628
1783695996076265700,6.578265625,-0.6310978531837463,-0.4231456518173218,-0.266990065574646
1783695996086229800,6.588229736328125,-0.6448003649711609,-0.4336076080799103,-0.24247674643993378
1783695996096192800,6.59819287109375,-0.6573612093925476,-0.44217851758003235,-0.18713629245758057
1783695996106156800,6.60815673828125,-0.6709230542182922,-0.4439828097820282,-0.1138913705945015
1783695996116120800,6.618120849609375,-0.6796471476554871,-0.4322321116924286,-0.03851473331451416
1783695996126084900,6.6280849609375,-0.688471794128418,-0.40525829792022705,0.030708547681570053
1783695996136049000,6.638048828125,-0.6903355121612549,-0.3689804673194885,0.07994821667671204
1783695996146012700,6.6480126953125,-0.7018856406211853,-0.3071618378162384,0.11014313995838165
1783695996155976000,6.657975830078125,-0.7331189513206482,-0.244826540350914,0.11871366202831268
1783695996165939700,6.667939697265625,-0.7675600051879883,-0.2054261416196823,0.12025217711925507
1783695996175903700,6.67790380859375,-0.7958171963691711,-0.18485960364341736,0.12679246068000793
1783695996185867800,6.68786767578125,-0.8175418972969055,-0.18891853094100952,0.14468544721603394
1783695996195832300,6.697832275390625,-0.8349300622940063,-0.22550049424171448,0.1612527072429657
1783695996205796400,6.70779638671875,-0.8459166884422302,-0.2833302319049835,0.16556011140346527
1783695996215760100,6.717760009765625,-0.8546127080917358,-0.3364470303058624,0.14152462780475616
1783695996225723400,6.727723388671875,-0.8659806251525879,-0.3869442939758301,0.08310392498970032
1783695996235687200,6.737687255859375,-0.8864068984985352,-0.4411398470401764,0.0096201216802001
1783695996245651200,6.747651123046875,-0.9144619703292847,-0.47320085763931274,-0.06722220033407211
1783695996255615200,6.757615234375,-0.9475869536399841,-0.46343985199928284,-0.1275731921195984
1783695996265579300,6.767579345703125,-0.9684571027755737,-0.43935874104499817,-0.16812248528003693
1783695996275543300,6.777543212890625,-0.9873557686805725,-0.41056036949157715,-0.20103797316551208
1783695996285507300,6.78750732421875,-0.9965649247169495,-0.3733682632446289,-0.22358988225460052
1783695996295470300,6.79747021484375,-0.9897451400756836,-0.33472391963005066,-0.23839253187179565
1783695996305434000,6.80743408203125,-0.9742639064788818,-0.30216196179389954,-0.24065916240215302
1783695996315398100,6.817398193359375,-0.9557210206985474,-0.28052353858947754,-0.22875496745109558
1783695996325362200,6.827362060546875,-0.9421833753585815,-0.2782398760318756,-0.20528452098369598
1783695996335326500,6.837326416015625,-0.9327443838119507,-0.2900390326976776,-0.1705278903245926
1783695996345290500,6.84729052734375,-0.9363961219787598,-0.27839407324790955,-0.11759091168642044
1783695996355253200,6.857253173828125,-0.9387289881706238,-0.2840212881565094,-0.06921719759702682
1783695996365217300,6.86721728515625,-0.9420192837715149,-0.2741580009460449,-0.0192355215549469
1783695996375181300,6.877181396484375,-0.9346102476119995,-0.25982728600502014,0.020483965054154396
1783695996385145300,6.887145263671875,-0.9320307374000549,-0.2689257264137268,0.04226622357964516
1783695996395109400,6.897109375,-0.9344282150268555,-0.31119483709335327,0.03794983774423599
1783695996405073400,6.907073486328125,-0.9347549676895142,-0.35062506794929504,0.015512172132730484
1783695996415037400,6.917037353515625,-0.9326716661453247,-0.3992677628993988,-0.012414113618433475
1783695996425000400,6.92700048828125,-0.9280209541320801,-0.46847987174987793,-0.04111393541097641
1783695996434964500,6.936964599609375,-0.9196437001228333,-0.5328777432441711,-0.05307816341519356
1783695996444928500,6.946928466796875,-0.9168870449066162,-0.5804966688156128,-0.049036551266908646
1783695996454892300,6.956892333984375,-0.911777675151825,-0.609246551990509,-0.035188764333724976
1783695996464856300,6.966856201171875,-0.9068753719329834,-0.6041279435157776,-0.02678808942437172
1783695996474820400,6.9768203125,-0.9052630066871643,-0.5761298537254333,-0.02114979550242424
1783695996484784400,6.986784423828125,-0.9032747149467468,-0.5196295976638794,-0.04165799915790558
1783695996494747400,6.996747314453125,-0.8942856192588806,-0.4323969781398773,-0.07542654871940613
1783695996504711400,7.00671142578125,-0.8885347843170166,-0.3318929970264435,-0.11609727889299393
1783695996514675500,7.016675537109375,-0.8670104742050171,-0.2621253430843353,-0.13835959136486053
1783695996524639500,7.026639404296875,-0.8410512804985046,-0.23245903849601746,-0.13439041376113892
1783695996534603300,7.036603271484375,-0.799057126045227,-0.20184390246868134,-0.09678530693054199
1783695996544567300,7.0465673828125,-0.7504483461380005,-0.1890825629234314,-0.03593181073665619
1783695996554531300,7.05653125,-0.7030160427093506,-0.1999937891960144,0.03339414298534393
1783695996564494300,7.066494384765625,-0.659432053565979,-0.22535640001296997,0.0965973511338234
1783695996574458400,7.076458251953125,-0.6186274886131287,-0.2698615491390228,0.1443978250026703
1783695996584422400,7.08642236328125,-0.5835211873054504,-0.3189169764518738,0.17554348707199097
1783695996594386400,7.096386474609375,-0.5622946619987488,-0.3434188663959503,0.2018025517463684
1783695996604350200,7.10635009765625,-0.5393291711807251,-0.36259201169013977,0.22599764168262482
1783695996614314200,7.116314208984375,-0.5194509029388428,-0.380387544631958,0.2519630491733551
1783695996624278300,7.1262783203125,-0.49986279010772705,-0.38583874702453613,0.27450165152549744
1783695996634241300,7.1362412109375,-0.4856695532798767,-0.38349518179893494,0.3008368909358978
1783695996644205300,7.146205322265625,-0.47351011633872986,-0.3674562871456146,0.32341277599334717
1783695996654169300,7.15616943359375,-0.44904038310050964,-0.3456322252750397,0.33774182200431824
1783695996664133400,7.16613330078125,-0.4317287802696228,-0.3595978319644928,0.3312775194644928
1783695996674097400,7.176097412109375,-0.41722485423088074,-0.38659030199050903,0.30308473110198975
1783695996684061200,7.186061279296875,-0.4006080627441406,-0.4115731418132782,0.25149714946746826
1783695996694025200,7.196025146484375,-0.3810228407382965,-0.4353029727935791,0.1870526224374771
1783695996703988200,7.20598828125,-0.37248554825782776,-0.4241397976875305,0.12419616430997849
1783695996713952300,7.2159521484375,-0.38272932171821594,-0.40239670872688293,0.058526333421468735
1783695996723916300,7.225916259765625,-0.41143739223480225,-0.42533716559410095,-0.012355029582977295
1783695996733880300,7.23588037109375,-0.4393022656440735,-0.4739116132259369,-0.06474602222442627
1783695996743844400,7.24584423828125,-0.4686356484889984,-0.49424511194229126,-0.0790511965751648
1783695996753808400,7.255808349609375,-0.4970801770687103,-0.4899992346763611,-0.06777241826057434
1783695996763772200,7.265772216796875,-0.518132209777832,-0.46208107471466064,-0.05285898596048355
1783695996773735200,7.275735107421875,-0.5309504270553589,-0.41615617275238037,-0.054858461022377014
1783695996783699200,7.28569921875,-0.5356359481811523,-0.33143889904022217,-0.07581460475921631
1783695996793663200,7.295663330078125,-0.5375951528549194,-0.2056005299091339,-0.10506557673215866
1783695996803627300,7.305627197265625,-0.526428759098053,-0.10844361037015915,-0.12324857711791992
1783695996813591300,7.31559130859375,-0.5283112525939941,-0.037708744406700134,-0.10816007852554321
1783695996823555300,7.325555419921875,-0.5433179140090942,-0.0013970762956887484,-0.05492747947573662
1783695996833519000,7.33551904296875,-0.5544278621673584,0.0069428738206624985,0.02254469133913517
1783695996843483100,7.345483154296875,-0.5388047099113464,-0.01338902860879898,0.0975174680352211
1783695996853446100,7.355446044921875,-0.515086829662323,-0.038068268448114395,0.15757526457309723
1783695996863410200,7.36541015625,-0.483893483877182,-0.05956476926803589,0.20084230601787567
1783695996873374200,7.375374267578125,-0.4571307897567749,-0.09202206134796143,0.2299860715866089
1783695996883338200,7.385338134765625,-0.4188084304332733,-0.13281236588954926,0.25478115677833557
1783695996893302500,7.395302490234375,-0.38143372535705566,-0.16345520317554474,0.2827616035938263
1783695996903266300,7.405266357421875,-0.34959110617637634,-0.17963017523288727,0.2987064719200134
1783695996913230300,7.415230224609375,-0.32744908332824707,-0.19926221668720245,0.29409435391426086
1783695996923193300,7.425193359375,-0.30815476179122925,-0.2247270941734314,0.26547709107398987
1783695996933157000,7.4351572265625,-0.2868210971355438,-0.24761483073234558,0.21966667473316193
1783695996943121400,7.445121337890625,-0.264541357755661,-0.270897775888443,0.172197163105011
1783695996953085400,7.45508544921875,-0.23696927726268768,-0.2876570522785187,0.14043761789798737
1783695996963049500,7.465049560546875,-0.21591992676258087,-0.3026650547981262,0.1319623738527298
1783695996973013500,7.475013427734375,-0.19661088287830353,-0.33335021138191223,0.13207198679447174
1783695996982977300,7.484977294921875,-0.1787021905183792,-0.3676341474056244,0.12986794114112854
1783695996992940500,7.4949404296875,-0.17237895727157593,-0.42147961258888245,0.1067035123705864
1783695997002904300,7.504904296875,-0.17123833298683167,-0.48816701769828796,0.06703599542379379
1783695997012868400,7.514868408203125,-0.18710298836231232,-0.5396485328674316,0.01759112998843193
1783695997022832400,7.524832275390625,-0.18680737912654877,-0.5353770852088928,-0.04310870170593262
1783695997032796400,7.53479638671875,-0.18739503622055054,-0.460265576839447,-0.09383044391870499
1783695997042760400,7.544760498046875,-0.1850178986787796,-0.33044901490211487,-0.1325078010559082
1783695997052724500,7.554724365234375,-0.17551618814468384,-0.17792735993862152,-0.1652420610189438
1783695997062687500,7.5646875,-0.16080142557621002,-0.02374524436891079,-0.18208815157413483
1783695997072651300,7.5746513671875,-0.13117118179798126,0.09428123384714127,-0.1775093525648117
1783695997082615300,7.584615234375,-0.09983190149068832,0.1506691426038742,-0.16699732840061188
1783695997092579300,7.594579345703125,-0.07274559140205383,0.16274552047252655,-0.13917337357997894
1783695997102543400,7.60454345703125,-0.05045705661177635,0.12586979568004608,-0.10796859860420227
1783695997112507400,7.61450732421875,-0.042839083820581436,0.06293024867773056,-0.07986718416213989
1783695997122471400,7.624471435546875,-0.04279008135199547,0.0007355830166488886,-0.04929516091942787
1783695997132434400,7.634434326171875,-0.050842318683862686,-0.06631456315517426,-0.03300589695572853
1783695997142398500,7.6443984375,-0.06779920309782028,-0.13445314764976501,-0.031162992119789124
1783695997152362200,7.6543623046875,-0.08510937541723251,-0.1879080981016159,-0.03859025612473488
1783695997162326300,7.664326171875,-0.10059832036495209,-0.2198585718870163,-0.04833396524190903
1783695997172290300,7.674290283203125,-0.11532455682754517,-0.2293700873851776,-0.049416832625865936
1783695997182254300,7.68425439453125,-0.13098473846912384,-0.22581130266189575,-0.04313470050692558
1783695997192218400,7.69421826171875,-0.14225967228412628,-0.2361462116241455,-0.0391380712389946
1783695997202181000,7.70418115234375,-0.16333167254924774,-0.2540746331214905,-0.03720994293689728
1783695997212145200,7.714145263671875,-0.18086683750152588,-0.2542663812637329,-0.02739175222814083
1783695997222109400,7.724109375,-0.20285522937774658,-0.25194624066352844,-0.013913493603467941
1783695997232073200,7.7340732421875,-0.2321418821811676,-0.2588112950325012,0.004016041290014982
1783695997242037200,7.744037353515625,-0.2665714919567108,-0.26068830490112305,0.02779487334191799
1783695997252001300,7.754001220703125,-0.29938334226608276,-0.23826822638511658,0.05386102944612503
1783695997261965300,7.76396533203125,-0.33329176902770996,-0.20304259657859802,0.0795738473534584
1783695997271928300,7.77392822265625,-0.36551833152770996,-0.1886519193649292,0.09537413716316223
1783695997281892400,7.783892333984375,-0.3885192573070526,-0.19436359405517578,0.10279183834791183
1783695997291856400,7.7938564453125,-0.41184231638908386,-0.21286536753177643,0.11029212921857834
1783695997301820200,7.803820068359375,-0.4285203814506531,-0.23640663921833038,0.12314561009407043
1783695997311784200,7.8137841796875,-0.4408990740776062,-0.2668628692626953,0.13299614191055298
1783695997321748200,7.823748291015625,-0.44734179973602295,-0.29467320442199707,0.1501207947731018
1783695997331712300,7.833712158203125,-0.4511288106441498,-0.2986346483230591,0.17675720155239105
1783695997341675300,7.84367529296875,-0.45039111375808716,-0.28655746579170227,0.2075316309928894
1783695997351639300,7.853639404296875,-0.45343273878097534,-0.26620104908943176,0.23153065145015717
1783695997361603300,7.863603271484375,-0.457191526889801,-0.23032879829406738,0.23880773782730103
1783695997371567400,7.8735673828125,-0.45943883061408997,-0.1718369871377945,0.236669659614563
1783695997381531100,7.88353125,-0.4550184905529022,-0.11682885885238647,0.22272855043411255
1783695997391495200,7.8934951171875,-0.45030611753463745,-0.13380788266658783,0.1945830136537552
1783695997401459200,7.903459228515625,-0.4652560353279114,-0.19632558524608612,0.16955462098121643
1783695997411422200,7.913422119140625,-0.49443134665489197,-0.2339823842048645,0.15492355823516846
1783695997421386200,7.92338623046875,-0.5150617957115173,-0.2366950809955597,0.1496068239212036
1783695997431350300,7.933350341796875,-0.5251325368881226,-0.2302853763103485,0.13705970346927643
1783695997441314300,7.943314208984375,-0.5347137451171875,-0.19798283278942108,0.1137692853808403
1783695997451278300,7.9532783203125,-0.5539683103561401,-0.15849165618419647,0.08257951587438583
1783695997461242000,7.9632421875,-0.5564740896224976,-0.11313507705926895,0.05710397660732269
1783695997471206100,7.9732060546875,-0.5509436726570129,-0.06545250117778778,0.03548509255051613
1783695997481169200,7.983169189453125,-0.5460205078125,-0.05289090424776077,0.023259054869413376
1783695997491133200,7.99313330078125,-0.5425369143486023,-0.08181016147136688,0.010427639819681644
1783695997501097200,8.00309716796875,-0.5423105359077454,-0.14271745085716248,-0.001606386504136026
1783695997511061200,8.013061279296876,-0.542707085609436,-0.1867583990097046,-0.01671934872865677
1783695997521025300,8.023025390625,-0.549271285533905,-0.21891632676124573,-0.029942743480205536
1783695997530989000,8.032989013671875,-0.5540183782577515,-0.2339208871126175,-0.04170706495642662
1783695997540953000,8.042953125,-0.5628790259361267,-0.24057959020137787,-0.054011400789022446
1783695997550916000,8.052916015625,-0.5649532079696655,-0.2491929978132248,-0.06133280694484711
1783695997560880000,8.062880126953125,-0.5660432577133179,-0.2587028741836548,-0.05731889232993126
1783695997570844200,8.07284423828125,-0.5642468929290771,-0.26932039856910706,-0.041726190596818924
1783695997580808200,8.08280810546875,-0.5625712275505066,-0.287963330745697,-0.017963871359825134
1783695997590772200,8.092772216796876,-0.5593982338905334,-0.28885602951049805,0.02099005877971649
1783695997600736300,8.102736328125,-0.5608221888542175,-0.27405551075935364,0.07155203819274902
1783695997610700000,8.112699951171875,-0.5708189010620117,-0.2550588846206665,0.11414629966020584
1783695997620663000,8.1226630859375,-0.5946890711784363,-0.24320434033870697,0.14790266752243042
1783695997630627000,8.132626953125,-0.6173564195632935,-0.25453853607177734,0.1743408590555191
1783695997640591000,8.142591064453125,-0.6370220184326172,-0.2651030123233795,0.20058685541152954
1783695997650555100,8.15255517578125,-0.6587486863136292,-0.2524644434452057,0.22395668923854828
1783695997660519200,8.162519287109374,-0.673121988773346,-0.23409663140773773,0.23258478939533234
1783695997670483200,8.172483154296875,-0.6767953634262085,-0.2199142575263977,0.2246028035879135
1783695997680447000,8.182447021484375,-0.6755325198173523,-0.20158478617668152,0.20829492807388306
1783695997690410200,8.19241015625,-0.6788501739501953,-0.1748485267162323,0.17909564077854156
1783695997700374000,8.2023740234375,-0.6828691363334656,-0.1631689816713333,0.12794190645217896
1783695997710338000,8.212338134765625,-0.683514416217804,-0.1803676337003708,0.055215224623680115
1783695997720302000,8.222302001953125,-0.6920077800750732,-0.2159637212753296,-0.02477787807583809
1783695997730266000,8.23226611328125,-0.7076184153556824,-0.26623091101646423,-0.10981707274913788
1783695997740230100,8.242230224609376,-0.7351890206336975,-0.3301060199737549,-0.18979021906852722
1783695997750194400,8.2521943359375,-0.7568060755729675,-0.3822357654571533,-0.257403165102005
1783695997760157200,8.2621572265625,-0.775151252746582,-0.40669822692871094,-0.3022952675819397
1783695997770121200,8.272121337890624,-0.7848741412162781,-0.40624362230300903,-0.32059934735298157
1783695997780085000,8.2820849609375,-0.7845391035079956,-0.3907272517681122,-0.3170354962348938
1783695997790049300,8.29204931640625,-0.7698813080787659,-0.3704121708869934,-0.2917804718017578
1783695997800013300,8.302013427734375,-0.7441400289535522,-0.36209163069725037,-0.24952328205108643
1783695997809977300,8.311977294921874,-0.7139235734939575,-0.3678011894226074,-0.18448150157928467
1783695997819941400,8.32194140625,-0.6885987520217896,-0.38836267590522766,-0.10168009251356125
1783695997829904400,8.331904296875,-0.6689355373382568,-0.4198470711708069,-0.013966446742415428
1783695997839868400,8.341868408203124,-0.6613112092018127,-0.4559081196784973,0.04751182720065117
1783695997849832200,8.351832275390626,-0.6497842073440552,-0.49827343225479126,0.08640393614768982
1783695997859796200,8.361796142578125,-0.6505434513092041,-0.5196916460990906,0.1108458936214447
1783695997869760300,8.37176025390625,-0.6671915054321289,-0.5258398056030273,0.12396847456693649
1783695997879724300,8.381724365234374,-0.6914150714874268,-0.5348899960517883,0.12939466536045074
1783695997889688300,8.391688232421876,-0.7146660089492798,-0.5476630926132202,0.1277686357498169
1783695997899651300,8.4016513671875,-0.7336847186088562,-0.5582110285758972,0.11475056409835815
1783695997909615400,8.411615478515625,-0.7451539039611816,-0.5581881403923035,0.08651462197303772
1783695997919579400,8.421579345703124,-0.7502306699752808,-0.5199211835861206,0.055013686418533325
1783695997929543200,8.431543212890626,-0.75617915391922,-0.4600464403629303,0.025837669149041176
1783695997939507200,8.441507080078125,-0.7558897137641907,-0.3937140107154846,-0.00010871165432035923
1783695997949471200,8.45147119140625,-0.7520257234573364,-0.3337899446487427,-0.02367248386144638
1783695997959434200,8.461434326171876,-0.7444301247596741,-0.2719329595565796,-0.046565812081098557
1783695997969398300,8.471398193359375,-0.7354209423065186,-0.20607486367225647,-0.06397073715925217
1783695997979362300,8.4813623046875,-0.7249137163162231,-0.16634343564510345,-0.07591821253299713
1783695997989326300,8.491326416015625,-0.7171685099601746,-0.141275092959404,-0.07454773038625717
1783695997999290000,8.5012900390625,-0.7111082077026367,-0.1337178498506546,-0.061744049191474915
1783695998009254100,8.511254150390625,-0.6998807787895203,-0.145859494805336,-0.035830963402986526
1783695998019218200,8.52121826171875,-0.6819920539855957,-0.17171666026115417,-0.007313834503293037
1783695998029181200,8.53118115234375,-0.6519982218742371,-0.20752926170825958,0.024721922352910042
1783695998039145200,8.541145263671876,-0.6210157871246338,-0.25397586822509766,0.06271670758724213
1783695998049109200,8.551109130859375,-0.5939228534698486,-0.30157583951950073,0.10732478648424149
1783695998059073300,8.5610732421875,-0.5640608668327332,-0.3454357087612152,0.15876878798007965
1783695998069037300,8.571037353515624,-0.5370739698410034,-0.38210156559944153,0.21175344288349152
1783695998079001000,8.5810009765625,-0.5240132808685303,-0.40841174125671387,0.24966461956501007
1783695998088965000,8.590965087890625,-0.5242980718612671,-0.4223763048648834,0.26611199975013733
1783695998098928000,8.60092822265625,-0.5343323349952698,-0.4116322994232178,0.26568856835365295
1783695998108892200,8.61089208984375,-0.5521821975708008,-0.38322967290878296,0.25693535804748535
1783695998118856200,8.620856201171875,-0.5664093494415283,-0.36050093173980713,0.24785663187503815
1783695998128820200,8.6308203125,-0.5786386728286743,-0.3409264087677002,0.2529909610748291
1783695998138784300,8.6407841796875,-0.5821647047996521,-0.32718104124069214,0.27312684059143066
1783695998148748000,8.650748046875,-0.583501935005188,-0.3026575744152069,0.30132371187210083
1783695998158712000,8.660712158203125,-0.5806001424789429,-0.29616186022758484,0.32006916403770447
1783695998168675000,8.670675048828125,-0.5839791893959045,-0.3056805431842804,0.31667354702949524
1783695998178639000,8.68063916015625,-0.5981818437576294,-0.3214981257915497,0.2913293242454529
1783695998188603100,8.69060302734375,-0.6352880597114563,-0.33693331480026245,0.24984151124954224
1783695998198567400,8.7005673828125,-0.6917888522148132,-0.3647923767566681,0.1950501650571823
1783695998208531500,8.710531494140625,-0.7584587931632996,-0.38950300216674805,0.14295312762260437
1783695998218495500,8.72049560546875,-0.8404748439788818,-0.4111531674861908,0.11127270013093948
1783695998228459300,8.730459228515626,-0.9293187856674194,-0.4122850298881531,0.11722363531589508
1783695998238422300,8.74042236328125,-0.9973724484443665,-0.39183276891708374,0.1536940187215805
1783695998248386300,8.75038623046875,-1.0312777757644653,-0.34311556816101074,0.21167482435703278
1783695998258350300,8.760350341796874,-1.042149305343628,-0.2865454852581024,0.27260610461235046
1783695998268314400,8.770314453125,-1.0384732484817505,-0.27834030985832214,0.3104991614818573
1783695998278278400,8.7802783203125,-1.0129849910736084,-0.3135094940662384,0.3069894015789032
1783695998288242400,8.790242431640625,-0.9939916729927063,-0.3685748279094696,0.2783186733722687
1783695998298206200,8.800206298828124,-0.9978694915771484,-0.41131162643432617,0.24311648309230804
1783695998308169500,8.81016943359375,-1.0157673358917236,-0.4220718741416931,0.21543505787849426
1783695998318133200,8.82013330078125,-1.0363057851791382,-0.4044340252876282,0.22003033757209778
1783695998328097300,8.83009716796875,-1.0597834587097168,-0.373137891292572,0.23106659948825836
1783695998338061300,8.840061279296876,-1.0828629732131958,-0.3684028089046478,0.23930135369300842
1783695998348025300,8.850025390625,-1.092475175857544,-0.391973614692688,0.23133637011051178
1783695998357989400,8.8599892578125,-1.0925300121307373,-0.4247533977031708,0.21529161930084229
1783695998367952400,8.869952392578124,-1.0827505588531494,-0.4663831293582916,0.20349380373954773
1783695998377916400,8.87991650390625,-1.06185781955719,-0.4932307302951813,0.20153477787971497
1783695998387880400,8.88988037109375,-1.0434993505477905,-0.5152508616447449,0.22415505349636078
1783695998397844200,8.89984423828125,-1.0322704315185547,-0.5362693071365356,0.26312777400016785
1783695998407808300,8.909808349609374,-1.0206102132797241,-0.581616222858429,0.3115011751651764
1783695998417772300,8.919772216796876,-1.0093687772750854,-0.614933967590332,0.35885006189346313
1783695998427736300,8.929736328125,-0.9991149306297302,-0.6414305567741394,0.39133745431900024
1783695998437699300,8.93969921875,-0.9928133487701416,-0.6575853228569031,0.4033651053905487
1783695998447663400,8.949663330078126,-0.9901411533355713,-0.688520073890686,0.3897353708744049
1783695998457627400,8.95962744140625,-0.9784975647926331,-0.7235246300697327,0.3524135649204254
1783695998467591200,8.969591064453125,-0.9664337038993835,-0.7792968153953552,0.29933151602745056
1783695998477555200,8.97955517578125,-0.9491950869560242,-0.8488964438438416,0.24664248526096344
1783695998487519200,8.989519287109376,-0.9352421164512634,-0.9205538034439087,0.19241610169410706
1783695998497483300,8.999483154296875,-0.9279807209968567,-0.9848153591156006,0.1435670703649521
1783695998507446300,9.0094462890625,-0.9328106641769409,-1.0379103422164917,0.10007557272911072
1783695998517410300,9.019410400390624,-0.9588997960090637,-1.0930705070495605,0.04899641126394272
1783695998527374300,9.029374267578126,-0.9964156150817871,-1.1477081775665283,-0.0025556469336152077
1783695998537338400,9.03933837890625,-1.0398166179656982,-1.1791231632232666,-0.048539381474256516
1783695998547302100,9.04930224609375,-1.0942350625991821,-1.16693115234375,-0.09364218264818192
1783695998557266200,9.05926611328125,-1.1478564739227295,-1.119490385055542,-0.14225898683071136
1783695998567229200,9.069229248046875,-1.1850546598434448,-1.0363036394119263,-0.1935999095439911
1783695998577193200,9.079193115234375,-1.2116942405700684,-0.9224615097045898,-0.2310308963060379
1783695998587157200,9.0891572265625,-1.2225569486618042,-0.8060885667800903,-0.24913881719112396
1783695998597121300,9.099121337890624,-1.2210512161254883,-0.7165469527244568,-0.2535138726234436
1783695998607085300,9.109085205078125,-1.2151942253112793,-0.6576172709465027,-0.23789505660533905
1783695998617049300,9.11904931640625,-1.2137556076049805,-0.6247216463088989,-0.2003958821296692
1783695998627012400,9.129012451171874,-1.2187888622283936,-0.6213504076004028,-0.14909745752811432
1783695998636976000,9.13897607421875,-1.236306071281433,-0.6473053097724915,-0.09486217796802521
1783695998646940200,9.148940185546875,-1.257534384727478,-0.7013003826141357,-0.05261828005313873
1783695998656904200,9.158904296875,-1.2798545360565186,-0.7771314978599548,-0.01697826199233532
1783695998666868200,9.1688681640625,-1.3050018548965454,-0.8576105237007141,0.001939259236678481
1783695998676832500,9.17883251953125,-1.3294014930725098,-0.9478360414505005,0.012182042934000492
1783695998686796500,9.188796630859375,-1.362426519393921,-1.0398496389389038,0.011300517246127129
1783695998696759300,9.19875927734375,-1.398201823234558,-1.1200435161590576,-0.007510455325245857
1783695998706723300,9.208723388671874,-1.4324167966842651,-1.1872471570968628,-0.03898336738348007
1783695998716687400,9.218687255859376,-1.4678215980529785,-1.222004771232605,-0.07599997520446777
1783695998726651400,9.2286513671875,-1.4997302293777466,-1.2273443937301636,-0.10951687395572662
1783695998736615400,9.238615478515625,-1.5241780281066895,-1.2141090631484985,-0.13194815814495087
1783695998746579500,9.248579345703124,-1.5473707914352417,-1.172911286354065,-0.13792119920253754
1783695998756543500,9.25854345703125,-1.573716640472412,-1.1115357875823975,-0.12361175566911697
1783695998766506500,9.268506591796875,-1.6079225540161133,-1.0375816822052002,-0.11305112391710281
1783695998776470500,9.278470458984375,-1.6415011882781982,-0.9758957028388977,-0.10257691144943237
1783695998786434300,9.288434326171876,-1.6726431846618652,-0.9436389803886414,-0.08843972533941269
1783695998796398300,9.2983984375,-1.6957330703735352,-0.9481484889984131,-0.07318593561649323
1783695998806362400,9.3083623046875,-1.7082748413085938,-0.9591726660728455,-0.050283096730709076
1783695998816326400,9.318326416015625,-1.7131644487380981,-0.9776267409324646,-0.03190808743238449
1783695998826289400,9.328289306640626,-1.7150217294692993,-1.0039981603622437,-0.022750845178961754
1783695998836253400,9.33825341796875,-1.7206846475601196,-1.020390510559082,-0.01731373555958271
1783695998846217500,9.348217529296875,-1.7227210998535156,-1.0144708156585693,-0.00814142357558012
1783695998856181500,9.358181396484374,-1.725162148475647,-0.9805333614349365,0.01207729522138834
1783695998866145300,9.368145263671876,-1.7164182662963867,-0.9314531683921814,0.04121473804116249
1783695998876109300,9.378109375,-1.696208119392395,-0.9469431638717651,0.05299177020788193
1783695998886072300,9.388072265625,-1.6798183917999268,-1.0199058055877686,0.039997756481170654
1783695998896036400,9.398036376953126,-1.6663047075271606,-1.0947014093399048,0.010771958157420158
1783695998906000400,9.40800048828125,-1.6605829000473022,-1.1689424514770508,-0.02587936446070671
1783695998915964400,9.41796435546875,-1.6773006916046143,-1.2246320247650146,-0.07805974781513214
1783695998925928400,9.427928466796875,-1.7087451219558716,-1.2307662963867188,-0.13741828501224518
1783695998935892200,9.437892333984376,-1.7456586360931396,-1.1690057516098022,-0.197503462433815
1783695998945856300,9.447856201171875,-1.765106201171875,-1.0577876567840576,-0.23889246582984924
1783695998955819300,9.4578193359375,-1.7667832374572754,-0.9232738018035889,-0.2533917725086212
1783695998965783300,9.467783203125,-1.7514259815216064,-0.7929482460021973,-0.24560099840164185
1783695998975747300,9.477747314453126,-1.7217985391616821,-0.6970571279525757,-0.2123732715845108
1783695998985711400,9.48771142578125,-1.680717945098877,-0.647782027721405,-0.15731380879878998
1783695998995675400,9.49767529296875,-1.6353964805603027,-0.6524409651756287,-0.0906389057636261
1783695999005639400,9.507639404296874,-1.5992860794067383,-0.7069209814071655,-0.032370127737522125
1783695999015603200,9.517603271484376,-1.5757006406784058,-0.7710599899291992,0.01707412302494049
1783695999025566500,9.52756640625,-1.5641251802444458,-0.8144694566726685,0.04764951020479202
1783695999035530200,9.5375302734375,-1.559196949005127,-0.8237838745117188,0.05790294334292412
1783695999045494300,9.547494384765624,-1.556209683418274,-0.8107408285140991,0.05116948485374451
1783695999055458300,9.557458251953125,-1.539462924003601,-0.799471914768219,0.02514614351093769
1783695999065422300,9.56742236328125,-1.5086315870285034,-0.7830621004104614,-0.00971121434122324
1783695999075386400,9.577386474609375,-1.4707200527191162,-0.7645736336708069,-0.049974214285612106
1783695999085349400,9.587349365234376,-1.4396545886993408,-0.7642961144447327,-0.09178158640861511
1783695999095313400,9.5973134765625,-1.4234035015106201,-0.7886661887168884,-0.13399533927440643
1783695999105277200,9.607277099609375,-1.4139906167984009,-0.8215572834014893,-0.16329781711101532
1783695999115241200,9.6172412109375,-1.4136886596679688,-0.8621633052825928,-0.17000791430473328
1783695999125205200,9.627205322265626,-1.4305925369262695,-0.920287013053894,-0.15412801504135132
1783695999135169300,9.637169189453125,-1.455898642539978,-0.9915087819099426,-0.11667758971452713
1783695999145133300,9.64713330078125,-1.4766308069229126,-1.049916386604309,-0.05883369222283363
1783695999155096300,9.657096435546874,-1.4946675300598145,-1.077410101890564,0.00745478505268693
1783695999165060400,9.667060302734376,-1.5093799829483032,-1.0658583641052246,0.07740090787410736
1783695999175024400,9.6770244140625,-1.527092695236206,-1.0389870405197144,0.14203530550003052
1783695999184988200,9.68698828125,-1.5424168109893799,-1.01951265335083,0.1908876895904541
1783695999194951400,9.696951416015626,-1.541787028312683,-1.0157331228256226,0.22863426804542542
1783695999204915500,9.70691552734375,-1.5376899242401123,-1.0277700424194336,0.26007023453712463
1783695999214878500,9.71687841796875,-1.525978684425354,-1.0617560148239136,0.27615171670913696
1783695999224842500,9.726842529296874,-1.506961464881897,-1.0906001329421997,0.26459527015686035
1783695999234806500,9.736806640625,-1.491700291633606,-1.0831148624420166,0.23533299565315247
1783695999244770600,9.7467705078125,-1.488398551940918,-1.0407814979553223,0.1933886706829071
1783695999254734600,9.756734619140625,-1.4931930303573608,-0.9666033983230591,0.13926763832569122
1783695999264698600,9.76669873046875,-1.502453327178955,-0.8821939826011658,0.08237271755933762
1783695999274661600,9.77666162109375,-1.52047598361969,-0.8079168200492859,0.02326359786093235
1783695999284625400,9.78662548828125,-1.5349791049957275,-0.7479841709136963,-0.03733401000499725
1783695999294589400,9.79658935546875,-1.5502017736434937,-0.7193453311920166,-0.08783552795648575
1783695999304553500,9.806553466796874,-1.5647482872009277,-0.7122373580932617,-0.12105561792850494
1783695999314517500,9.816517578125,-1.5780843496322632,-0.7067749500274658,-0.12888690829277039
1783695999324481500,9.8264814453125,-1.5884902477264404,-0.6896077990531921,-0.11424616724252701
1783695999334444500,9.836444580078124,-1.5973050594329834,-0.6709164381027222,-0.08921032398939133
1783695999344408600,9.84640869140625,-1.6055047512054443,-0.6465585827827454,-0.06515441834926605
1783695999354372600,9.85637255859375,-1.604362964630127,-0.6250519156455994,-0.053950235247612
1783695999364336400,9.86633642578125,-1.5887787342071533,-0.6063039898872375,-0.06258343905210495
1783695999374300400,9.876300537109374,-1.572833776473999,-0.6111435294151306,-0.0759623572230339
1783695999384264400,9.886264404296876,-1.5548875331878662,-0.6306318044662476,-0.07788477838039398
1783695999394228500,9.896228515625,-1.5258920192718506,-0.6570721864700317,-0.07083432376384735
1783695999404191500,9.90619140625,-1.487962245941162,-0.671477735042572,-0.06323206424713135
1783695999414155500,9.916155517578124,-1.4506667852401733,-0.6863387227058411,-0.054139502346515656
1783695999424119600,9.92611962890625,-1.4113160371780396,-0.6875871419906616,-0.04444421827793121
1783695999434083600,9.93608349609375,-1.3773086071014404,-0.6717227101325989,-0.03035210259258747
1783695999444047600,9.946047607421875,-1.3486424684524536,-0.6674095392227173,-0.01711846888065338
1783695999454011600,9.95601171875,-1.3085554838180542,-0.6575086712837219,0.0026666875928640366
1783695999463974400,9.965974365234375,-1.2756314277648926,-0.6253275871276855,0.03579933941364288
1783695999473938400,9.9759384765625,-1.2558456659317017,-0.5906180739402771,0.08546489477157593
1783695999483902700,9.98590283203125,-1.2321035861968994,-0.5550113320350647,0.13075296580791473
1783695999493866800,9.99586669921875,-1.198288083076477,-0.5053247213363647,0.16784892976284027
1783695999503830800,10.005830810546875,-1.1584721803665161,-0.44541609287261963,0.19103223085403442
1783695999513794600,10.015794677734375,-1.11978280544281,-0.39413079619407654,0.18951769173145294
1783695999523758600,10.025758544921874,-1.0824402570724487,-0.35742875933647156,0.16939157247543335
1783695999533721600,10.0357216796875,-1.0468318462371826,-0.3209415674209595,0.14403347671031952
1783695999543685600,10.045685546875,-1.015036702156067,-0.30122140049934387,0.12616340816020966
1783695999553649700,10.055649658203125,-0.9852197170257568,-0.2941938638687134,0.13190971314907074
1783695999563613700,10.06561376953125,-0.9574357867240906,-0.30885589122772217,0.15344803035259247
1783695999573577700,10.07557763671875,-0.9244546294212341,-0.3231101930141449,0.1837231069803238
1783695999583541500,10.08554150390625,-0.8887802958488464,-0.3243086040019989,0.21211226284503937
1783695999593504800,10.0955048828125,-0.854892373085022,-0.33031216263771057,0.2342335432767868
1783695999603468500,10.105468505859376,-0.8186372518539429,-0.33095499873161316,0.23920787870883942
1783695999613432600,10.1154326171875,-0.7816323637962341,-0.3204919695854187,0.24326306581497192
1783695999623396600,10.125396728515625,-0.7506243586540222,-0.30414286255836487,0.24637719988822937
1783695999633360600,10.135360595703125,-0.725849449634552,-0.283515602350235,0.24907365441322327
1783695999643324700,10.14532470703125,-0.7075455784797668,-0.2510053515434265,0.2526112496852875
1783695999653288700,10.155288818359375,-0.6841779351234436,-0.23465965688228607,0.25577083230018616
1783695999663251700,10.165251708984375,-0.6635743975639343,-0.18628251552581787,0.2646216154098511
1783695999673215700,10.1752158203125,-0.6444563865661621,-0.11195263266563416,0.29108092188835144
1783695999683179500,10.185179443359376,-0.6202736496925354,-0.05721990764141083,0.3210022747516632
1783695999693143600,10.1951435546875,-0.5985377430915833,-0.06753459572792053,0.3640882074832916
1783695999703107600,10.205107666015625,-0.5724472403526306,-0.13400810956954956,0.3941654860973358
1783695999713071600,10.215071533203124,-0.5881559252738953,-0.18557250499725342,0.5124177932739258
1783695999723034600,10.22503466796875,-0.6210371255874634,-0.46681299805641174,0.5572230815887451
1783695999732998700,10.23499853515625,-0.6156386733055115,-0.6707613468170166,0.5717093348503113
1783695999742962700,10.244962646484375,-0.6521161794662476,-0.7633160352706909,0.5909528732299805
1783695999752926500,10.254926513671874,-0.7161958813667297,-0.7529648542404175,0.5732505917549133
1783695999762890500,10.264890380859375,-0.7609182596206665,-0.6879269480705261,0.5001009106636047
1783695999772854500,10.2748544921875,-0.772396445274353,-0.537824273109436,0.3847232162952423
1783695999782818600,10.284818603515625,-0.7784633636474609,-0.3931664824485779,0.2598148286342621
1783695999792781600,10.294781494140626,-0.76179438829422,-0.2684762179851532,0.16593919694423676
1783695999802745600,10.30474560546875,-0.7410762906074524,-0.21626493334770203,0.08888830989599228
