time,seconds_elapsed,z,y,x
1783696005212846300,0.065846435546875,-0.35888007365465163,-0.24807576615810392,0.3676264938857406
1783696005222810400,0.075810302734375,-0.1069090536236763,-0.3961670172587037,0.3429042136266827
1783696005232774100,0.085774169921875,0.22302198892235756,-0.4905202484309673,0.3852560394048691
1783696005242737400,0.0957373046875,0.4962281046837568,-0.5544555449858307,0.5247342143304645
1783696005252701200,0.105701171875,0.5458353084176778,-0.6020841421231627,0.7009143725790083
1783696005262665200,0.115665283203125,0.517481320592761,-0.5630462631985544,0.8079287862733006
1783696005272629200,0.125629150390625,0.5405448007941246,-0.49895840643048284,0.9202914291277527
1783696005282593300,0.13559326171875,0.5940893439769744,-0.4626385542929172,1.0279356651581824
1783696005292557300,0.145557373046875,0.5688444280833006,-0.45650428932160136,1.0887597708899528
1783696005302520300,0.155520263671875,0.4044938238382339,-0.41968613227307794,1.0395819715492427
1783696005312484400,0.165484375,0.20444646779000758,-0.3514227433860302,0.8933201278328895
1783696005322448100,0.1754482421875,0.051500470134615894,-0.3470855909645557,0.7207639322351664
1783696005332412200,0.185412109375,-0.009530044889450072,-0.37024580953866243,0.4985205264698714
1783696005342376200,0.195376220703125,-0.011167875224351882,-0.43755292061418294,0.36469065962955355
1783696005352339200,0.205339111328125,-0.07210662031173706,-0.5276005635470151,0.22460158626399934
1783696005362303200,0.21530322265625,0.05015957691967487,-0.5590957720071077,0.021349808151274918
1783696005372267300,0.225267333984375,0.2615641932845115,-0.5462839289680123,-0.05150711907111108
1783696005382231300,0.235231201171875,0.47841129296422,-0.5926233630776405,0.044684433444216846
1783696005392195300,0.2451953125,0.6464268494576215,-0.6673372432783246,0.11501060007996856
1783696005402158300,0.255158447265625,0.7489525734305381,-0.6763000096738339,0.11070603475384413
1783696005412122400,0.265122314453125,0.7592261301636696,-0.6399056309953332,0.18633520316854119
1783696005422086100,0.275086181640625,0.6672603786498308,-0.6518816077321767,0.31371267899908123
1783696005432050200,0.28505029296875,0.6445008498311042,-0.6410241136312484,0.34781375910863277
1783696005442014200,0.29501416015625,0.6417220327675343,-0.6388833022102713,0.41073388727158305
1783696005451978200,0.304978271484375,0.6186842715293168,-0.6868003609001636,0.5051043618395924
1783696005461941200,0.314941162109375,0.5711018516212701,-0.7297291097834706,0.5266918512042612
1783696005471905300,0.3249052734375,0.5522457599818706,-0.8044725083395838,0.4726278872571885
1783696005481869300,0.334869384765625,0.5409241555005312,-0.8364879412814974,0.4140123244203627
1783696005491833000,0.3448330078125,0.52990416431427,-0.870191181179881,0.3110368839185685
1783696005501797000,0.354797119140625,0.5815957731068134,-0.9144351043149829,0.3114006757296622
1783696005511760100,0.364760009765625,0.632723902797699,-0.9433844276845454,0.42271541696637865
1783696005521724200,0.37472412109375,0.6362707816243172,-0.8993813275679945,0.4981240014329552
1783696005531688200,0.384688232421875,0.47978141227364535,-0.7304673609301447,0.4609207175243646
1783696005541652200,0.39465234375,0.15992811162769793,-0.5547685564577579,0.4352614486761391
1783696005551616300,0.4046162109375,-0.15792378606796265,-0.4160176728934049,0.4048946597240865
1783696005561580300,0.414580322265625,-0.41970834410488606,-0.2947413634821772,0.3583151332482695
1783696005571543300,0.424543212890625,-0.6007955636173486,-0.25827596539407965,0.3592727262340486
1783696005581507300,0.43450732421875,-0.6641296794086694,-0.2675602188289165,0.37931576263569294
1783696005591471000,0.44447119140625,-0.5140507616221904,-0.25412878258675337,0.3675648268263787
1783696005601435100,0.45443505859375,-0.2830640774309635,-0.3227820475742221,0.3594552431941032
1783696005611399200,0.464399169921875,-0.04115735529661178,-0.33500381576567884,0.3218865600392222
1783696005621363200,0.47436328125,0.1552805780827999,-0.3825321673989296,0.31294658999741076
1783696005631326200,0.484326171875,0.23165011653602122,-0.46885494458973404,0.31089564881697296
1783696005641290200,0.494290283203125,0.26886136455535886,-0.44811406211704014,0.43680655922628936
1783696005651254300,0.504254150390625,0.07487550050318241,-0.6178516200974583,0.7688305554635823
1783696005661218000,0.514218017578125,-0.165584529954195,-0.8299863043025135,1.1785896794188766
1783696005671182000,0.52418212890625,-0.24107728557288646,-0.9823132932767271,1.3906357354924082
1783696005681145000,0.53414501953125,-0.15017828650772572,-1.0153861263170838,1.268256141014397
1783696005691109000,0.544109130859375,0.03978723598718643,-0.8941144930809736,1.0084235207628458
1783696005701073200,0.5540732421875,0.11763912195265293,-0.774652539615333,0.6047106181692332
1783696005711037200,0.564037109375,0.030925299617648123,-0.6373036318033933,0.2231411583226174
1783696005721001200,0.574001220703125,-0.09901976167857646,-0.2766816829174757,-0.1639494760982692
1783696005730965200,0.58396533203125,-0.2368055996030569,0.09701777420639991,-0.36612339584641157
1783696005740928300,0.59392822265625,-0.40583062539994713,0.40648908930867905,-0.25371567174121734
1783696005750892300,0.603892333984375,-0.4787479775726795,0.6739490626335144,-0.036082170924171805
1783696005760856000,0.61385595703125,-0.4578770389795303,0.8032026345342397,0.10615253616794944
1783696005770820000,0.623820068359375,-0.3897895911812782,0.8245742161259054,0.19689890195466578
1783696005780784400,0.633784423828125,-0.3744716105401516,0.7568728450357913,0.2318807834867388
1783696005790747100,0.6437470703125,-0.3681014909863472,0.6980895244166254,0.28617833699397743
1783696005800711200,0.653711181640625,-0.4146072215735912,0.6521461038872599,0.3377699194781482
1783696005810675200,0.66367529296875,-0.42674423409104345,0.6075064594328403,0.3349855494566262
1783696005820639500,0.673639404296875,-0.36148411867320535,0.6021481472700834,0.32475853527896104
1783696005830603300,0.683603271484375,-0.30623686322569843,0.7406216751977801,0.4438070125728845
1783696005840567300,0.6935673828125,-0.31768297086954117,0.9514934998601674,0.767848631754145
1783696005850530000,0.703530029296875,-0.35804712996184823,0.6725283821806312,0.8861096849974245
1783696005860494000,0.713494140625,-0.34781098262965676,0.43099107788056135,0.6779233000267296
1783696005870458400,0.723458251953125,-0.38611879371404645,0.506339748853445,0.3310840119734406
1783696005880422400,0.73342236328125,-0.4806909283339977,0.6200833246722817,0.1552940220862627
1783696005890386400,0.743386474609375,-0.6581856763124465,0.7821735827699303,0.04109298482351005
1783696005900349200,0.75334912109375,-0.9021160132288932,0.945738881856203,-0.04660758352652192
1783696005910313500,0.7633134765625,-1.0474386763989925,1.0324155870512128,-0.16338994251936673
1783696005920277200,0.77327734375,-1.038524717581272,0.9497127539232373,-0.28032018555030225
1783696005930241300,0.7832412109375,-0.8764081559985876,0.7423410463362932,-0.40444121686816215
1783696005940205300,0.793205322265625,-0.6920499519914388,0.5272647557213902,-0.4425091547820717
1783696005950169300,0.80316943359375,-0.5246440518289804,0.3798237852230668,-0.4646501133110374
1783696005960132400,0.81313232421875,-0.38981004944741726,0.3290586436256766,-0.5160404010694474
1783696005970096400,0.823096435546875,-0.2886684733092785,0.22629940315783023,-0.5960870206002146
1783696005980060400,0.833060302734375,-0.1477168648302555,0.24619126758575438,-0.4943715170316398
1783696005990024400,0.8430244140625,0.028121932634711265,0.26956951282471414,-0.3363032809916883
1783696005999988200,0.85298828125,0.3390957612544298,0.13504384573996067,-0.21586678340546786
1783696006009951200,0.862951171875,0.5882330191642046,0.07708645455092192,-0.17155659010112284
1783696006019915300,0.872915283203125,0.7552513813138008,-0.014413140755891798,-0.10276026338115334
1783696006029879300,0.88287939453125,0.8562199389725923,-0.017548223911225794,-0.0019521569810807705
1783696006039843300,0.89284326171875,0.8814917428731918,0.0466094832226634,0.055882338480651376
1783696006049807400,0.902807373046875,0.8317956918120384,0.06366612422466278,0.10577727311477064
1783696006059771400,0.912771484375,0.7399731481611729,0.05092413155138492,0.1664417313054204
1783696006069734400,0.922734375,0.634426615062356,0.07498129896521567,0.1792076893761754
1783696006079698400,0.932698486328125,0.5142448228895664,0.11335662232786416,0.12573109686300157
1783696006089662200,0.942662109375,0.348248789525032,0.13108020280599594,0.07538754167854786
1783696006099626200,0.952626220703125,0.09319967722296714,0.191418643912673,0.020108722048997878
1783696006109590300,0.96259033203125,-0.1686000783830881,0.25185557695776223,0.017597762141376733
1783696006119553300,0.97255322265625,-0.4049234474271536,0.2888771476238966,0.005465279668569564
1783696006129517300,0.982517333984375,-0.5456061758369207,0.2769058470621705,0.002161269687116146
1783696006139481300,0.9924814453125,-0.6143424429327249,0.21592150926738976,0.02723199805766344
1783696006149445400,1.0024453125,-0.6193272456079721,0.15671002636402845,0.020030980637669563
1783696006159409400,1.012409423828125,-0.5306324785888195,0.09390168801248074,-0.026920155629515646
1783696006169372400,1.022372314453125,-0.4017068234682083,0.051505146309733386,-0.01931442986615002
1783696006179336200,1.032336181640625,-0.25849954501688477,-0.017322013939917086,0.030116540518030522
1783696006189300200,1.04230029296875,-0.024509587356448172,-0.056875148910284036,0.06389204193502664
1783696006199264800,1.0522646484375,0.2430833646982908,-0.17524813809543846,0.03319236776679754
1783696006209228800,1.062228759765625,0.5301116695851087,-0.31152211015224457,-0.01209719196371734
1783696006219192800,1.07219287109375,0.7882955727815627,-0.41582536519169805,-0.046567178450897334
1783696006229155800,1.08215576171875,0.8521849843680858,-0.47127311164736746,-0.02933320812061429
1783696006239120000,1.092119873046875,0.7778776391416787,-0.4503776231348514,-0.08283025889992714
1783696006249083600,1.102083740234375,0.6275427007675171,-0.4150508736878633,-0.15952479152381419
1783696006259047700,1.112047607421875,0.49274961491823194,-0.3879600376665592,-0.195825646699965
1783696006269011700,1.12201171875,0.40955110722780225,-0.38265024082064625,-0.18479849512055516
1783696006278974700,1.131974609375,0.3417489061117172,-0.3729617904990911,-0.13680785973779858
1783696006288938800,1.141938720703125,0.3788058403521776,-0.3902385039925575,-0.09649038933143018
1783696006298902800,1.15190283203125,0.37767011432051656,-0.36070027481913564,-0.07508446707874536
1783696006308866800,1.16186669921875,0.31882921829521654,-0.2633843944489956,-0.03172777510695159
1783696006318830800,1.171830810546875,0.25663550471067426,-0.15207155290842056,-0.02637107037939131
1783696006328795000,1.181794921875,0.12966799792051314,-0.11908932076096534,0.00423091556802392
1783696006338757600,1.191757568359375,-0.08752338515222072,-0.09543371988534927,0.00535655859708786
1783696006348721700,1.2017216796875,-0.24275895504951475,-0.024930443117022513,-0.02485094814002514
1783696006358685700,1.211685791015625,-0.3759726627528667,0.0039472763210535045,-0.023544176390394567
1783696006368649700,1.221649658203125,-0.487976993688941,0.07971417270600795,-0.0644912499371916
1783696006378614000,1.231614013671875,-0.5772258874595165,0.15539572889506817,-0.10436989053487777
1783696006388576800,1.24157666015625,-0.6470879437148571,0.20808453203141689,-0.055068976271152495
1783696006398540800,1.251540771484375,-0.582433977496624,0.2842658544361591,-0.02532236504405737
1783696006408504800,1.2615048828125,-0.5276876573085785,0.3307809373736381,-0.023710984324663877
1783696006418468900,1.27146875,-0.45346214514672756,0.30681144824326034,0.08381978139393031
1783696006428433000,1.281432861328125,-0.3907271642923355,0.023247604596614835,0.3619578005995601
1783696006438395600,1.291395751953125,-0.25631869384646416,-0.27550387130975723,0.6246544319801032
1783696006448359700,1.301359619140625,-0.06293371829688549,-0.4487883081167936,0.7854754738595336
1783696006458324000,1.311323974609375,0.06605564970970153,-0.6223065536797047,0.8349128739845008
1783696006468288000,1.3212880859375,0.05519289491176605,-0.7394102535814047,0.7507203137554228
1783696006478252000,1.331251953125,-0.09117255530953407,-0.8175093923062086,0.503842379079759
1783696006488215800,1.3412158203125,-0.3377279800325632,-0.8046621856927871,0.22556845853477714
1783696006498178800,1.3511787109375,-0.6252443606972694,-0.7324597037911414,-0.0076150781136006115
1783696006508142800,1.361142822265625,-0.8925012126654386,-0.5982704290539026,-0.17750461178533733
1783696006518107000,1.37110693359375,-1.0155477466195821,-0.40031098519563674,-0.22866094465740025
1783696006528071000,1.38107080078125,-0.8957014700114726,-0.12927929086387158,-0.20029994256980715
1783696006538035000,1.391034912109375,-0.5848240875035524,0.10735270573794842,-0.11468991675823927
1783696006547998000,1.400998046875,-0.2507394324094057,0.28072072917520996,0.016472484438493848
1783696006557962000,1.4109619140625,-0.006476502537727356,0.43177579851746556,0.10096738861501216
1783696006567926000,1.420926025390625,0.06388531993329524,0.5067138428628445,0.13466237214170396
1783696006577889800,1.430889892578125,-0.06599778204262256,0.5169534973263741,0.09461962702348828
1783696006587853800,1.440853759765625,-0.27731238203644754,0.5672790784627199,-0.018246581438928842
1783696006597817900,1.45081787109375,-0.43016251810193057,0.6411030240863561,-0.18605397507436572
1783696006607780900,1.46078076171875,-0.40810032389760015,0.7721674448013305,-0.2809940662238747
1783696006617745000,1.470744873046875,-0.32608898016512394,0.8832581680238246,-0.3141233056265861
1783696006627709000,1.480708984375,-0.1679115115970373,1.0086042110919953,-0.29616759689301253
1783696006637673000,1.4906728515625,0.040400399449467654,1.101726146903634,-0.2460044397767633
1783696006647637000,1.500636962890625,0.24520401011407375,1.0748761339008808,-0.11716317500397562
1783696006657600000,1.51060009765625,0.4442787217378616,1.0163824438780547,0.04408317961543798
1783696006667564000,1.52056396484375,0.5789508115559816,0.9487275422781706,0.20376725335419177
1783696006677527800,1.53052783203125,0.6648831281244755,0.8151444167405366,0.3741270348861813
1783696006687491800,1.540491943359375,0.7653057423382997,0.648121378415823,0.4812802725292742
1783696006697455900,1.550455810546875,0.8937766394287348,0.44829964781701565,0.5078665200293064
1783696006707419000,1.5604189453125,1.0628963577717543,0.21858897491097448,0.5541080467224121
1783696006717383000,1.5703828125,1.1679144830822943,-0.04784720832407474,0.6772064569942653
1783696006727347000,1.580346923828125,1.0433528683900832,-0.31400515913963317,0.7700507449083029
1783696006737311000,1.59031103515625,0.7847755819618701,-0.43466567474007606,0.7566039649665355
1783696006747274800,1.600274658203125,0.4759931259065866,-0.40986031930744643,0.6572210690639912
1783696006757238800,1.61023876953125,0.16127952623665331,-0.3540039920508861,0.5576165663000195
1783696006767201800,1.620201904296875,-0.05734042833447456,-0.28406360986232754,0.4345577573861927
1783696006777165800,1.630165771484375,-0.19177286417782305,-0.1657639781743288,0.2600998198203742
1783696006787129900,1.6401298828125,-0.2182791783094406,0.0016547814697027206,0.026776509375125167
1783696006797094000,1.650093994140625,-0.246639595875144,0.1606172629356384,-0.14564254277423022
1783696006807058000,1.660057861328125,-0.4688426696300506,0.3143693162769079,-0.2509101128011942
1783696006817021000,1.67002099609375,-0.7937678667128085,0.47892508770525455,-0.36333113477937873
1783696006826985000,1.67998486328125,-1.0819634618133307,0.6649731444954872,-0.4085038631971925
1783696006836949000,1.689948974609375,-1.2988316042810677,0.8137216904610395,-0.33853732365407047
1783696006846912800,1.699912841796875,-1.460122236433625,0.8947101208865642,-0.24893472107499837
1783696006856876800,1.709876708984375,-1.4828180523663759,0.9428858305126429,-0.16317907624766229
1783696006866839800,1.71983984375,-1.2778338244378566,0.9735866737246512,-0.12410071918219327
1783696006876803800,1.729803955078125,-0.8885147733777761,0.8808867627173662,-0.06945880921669303
1783696006886767900,1.739767822265625,-0.42455987578928467,0.7235796472430229,-0.020606661633774635
1783696006896732000,1.74973193359375,-0.06271335354447365,0.5445025985091925,0.06089271398857236
1783696006906696000,1.759696044921875,0.1577379081070423,0.3636912733286619,0.13786226416155695
1783696006916659000,1.769658935546875,0.32152561777234073,0.21686112820506095,0.13804660775251687
1783696006926623000,1.779623046875,0.47727147527933117,0.07826689650714397,0.10605857427418232
1783696006936586800,1.789586669921875,0.5590484257340431,-0.08303425703942775,0.07746887799724936
1783696006946550800,1.79955078125,0.6403805550307035,-0.2273638175189495,0.03678396251797676
1783696006956514800,1.809514892578125,0.737328186610341,-0.32919746757447715,-0.02440831893905997
1783696006966478800,1.819478759765625,0.8136784358412027,-0.4679162024348974,-0.027911358623951672
1783696006976441900,1.82944189453125,0.8752917191892862,-0.530804912546277,-0.0106981388207525
1783696006986406000,1.839406005859375,0.8666337809592485,-0.5016454535573721,0.03263466081880033
1783696006996370000,1.849369873046875,0.8052747646331787,-0.424695484867692,0.07622311571985482
1783696007006334000,1.859333984375,0.7225520577609539,-0.37746962331235406,0.06741561295129359
1783696007016297700,1.869297607421875,0.5817804820239544,-0.3852022633910179,0.07768003652989863
1783696007026260700,1.8792607421875,0.429469859662652,-0.4007552218317985,0.021767814367637035
1783696007036224800,1.889224853515625,0.32757892646193504,-0.3355412836432457,-0.08480404319092631
1783696007046188800,1.899188720703125,0.26772914565503597,-0.3333393896847963,-0.15672880412973464
1783696007056152800,1.90915283203125,0.2163280442416668,-0.33303660734593865,-0.18511530598476528
1783696007066116900,1.919116943359375,0.2526426356822252,-0.31874621618688104,-0.1654028897769749
1783696007076079900,1.929079833984375,0.3092892365336418,-0.2568435945034027,-0.08127630745619535
1783696007086044000,1.9390439453125,0.3047574383229017,-0.19146306757628917,0.04814896774962544
1783696007096008000,1.949008056640625,0.2142886473685503,-0.08562953422963619,0.13800620267689226
1783696007105971700,1.9589716796875,0.08470832773149013,0.021883915027976035,0.11947532440386711
1783696007115935700,1.968935791015625,-0.0005833528459072112,0.05610182645022869,0.08763751305118203
1783696007125899800,1.978899658203125,-0.03464052074849605,0.03477028460800648,0.04050013349689543
1783696007135862800,1.98886279296875,-0.11814239529967308,0.010150807136297225,0.005539002491906285
1783696007145826800,1.998826904296875,-0.24457506456077097,0.021755904734134673,-0.05128076296932995
1783696007155790800,2.008790771484375,-0.37910453103780745,0.053495443344116204,-0.10268493312261998
1783696007165755000,2.0187548828125,-0.5079302329152822,-0.026199440139532088,-0.025629092905670402
1783696007175719000,2.028718994140625,-0.5547884302020073,-0.2030290022075176,0.18334625048562883
1783696007185682000,2.038681884765625,-0.5012269358843565,-0.42817748176455495,0.402802217489481
1783696007195645700,2.048645751953125,-0.38611061040759087,-0.6307184081941842,0.48422136748246847
1783696007205609700,2.058609619140625,-0.27467443474829195,-0.7787158435314894,0.4845578328952193
1783696007215573800,2.06857373046875,-0.22680735267996788,-0.8459750238120556,0.43238114399947225
1783696007225537800,2.078537841796875,-0.2634878548234701,-0.9237146815747022,0.3478542372494936
1783696007235500800,2.088500732421875,-0.3957277490586042,-0.9101257166832685,0.23778123970218001
1783696007245464800,2.09846484375,-0.6107026251256465,-0.761918437987566,0.04491897285245359
1783696007255428900,2.108428955078125,-0.8055997588038444,-0.5470914459586144,-0.1385761115193367
1783696007265393000,2.118392822265625,-0.9219114315450191,-0.3062877166301012,-0.2096516352176666
1783696007275356700,2.128356689453125,-0.890674581760168,-0.037737902241945266,-0.18858648922666907
1783696007285319700,2.138319580078125,-0.7847054393351077,0.1956435681313276,-0.07599288716055452
1783696007295283700,2.14828369140625,-0.7086123797357082,0.3806318867355585,0.08103555750288069
1783696007305247700,2.158247802734375,-0.6668219872325658,0.5203735349029303,0.2018792476505041
1783696007315211800,2.168211669921875,-0.5457096362113952,0.5810901616722345,0.2542068893242627
1783696007325175800,2.17817578125,-0.29777883148193357,0.5522381611973047,0.24477131778523326
1783696007335140000,2.18814013671875,-0.10240648150742053,0.43874271492064,0.19344116271622477
1783696007345102800,2.198102783203125,0.03144844670891762,0.3588227905094623,0.1095115642722696
1783696007355067000,2.20806689453125,0.0493786556750536,0.3485363742947578,0.017136062913760543
1783696007365030700,2.21803076171875,-0.06644318772256375,0.4086199638575315,-0.03772431210801005
1783696007374995000,2.227994873046875,-0.23537644358277318,0.5217781410038471,-0.10754662087485194
1783696007384959000,2.237958984375,-0.4233294572114944,0.6418781001120806,-0.10299772539883852
1783696007394921700,2.247921630859375,-0.5154904390364885,0.7251677932173013,-0.11377155980430542
1783696007404885800,2.2578857421875,-0.5222025038957595,0.7776362316012382,-0.11582023596242069
1783696007414850000,2.26785009765625,-0.4783779752165079,0.8378063304036856,-0.14340528524145482
1783696007424814000,2.27781396484375,-0.43591538254022594,0.8359007890433072,-0.1489374926663935
1783696007434777900,2.28777783203125,-0.3983277024239301,0.8113140447974204,-0.20608217923305927
1783696007444740900,2.297740966796875,-0.33567338559031484,0.7140437571346759,-0.35145569580756125
1783696007454704600,2.30770458984375,-0.3161468473434448,0.5809340943276882,-0.5002094294048846
1783696007464669000,2.3176689453125,-0.2676180864959955,0.47245326134264465,-0.5842671842731535
1783696007474633000,2.327633056640625,-0.3665817340731621,0.38287352818250653,-0.5140189051792026
1783696007484597000,2.337596923828125,-0.47279345308244225,0.35535832926928995,-0.44158334517404435
1783696007494559700,2.347559814453125,-0.48068391407132144,0.35142332790791986,-0.34962343887910247
1783696007504524000,2.35752392578125,-0.3760702779084444,0.3123714204579592,-0.20761559934541582
1783696007514488000,2.367488037109375,-0.21882219914495943,0.2948532994240522,-0.07639218867644668
1783696007524452000,2.3774521484375,-0.07082534832954407,0.24774375772476195,-0.028139614421874282
1783696007534416000,2.387415771484375,0.020510873109102247,0.1752227113932371,-0.106381814879179
1783696007544379000,2.39737890625,0.0919160671532154,0.1312421153694391,-0.30657252492085096
1783696007554343000,2.407343017578125,0.15950725586712358,0.12701426854133605,-0.5000498549290001
1783696007564307000,2.417306884765625,0.20282500406801698,0.14314882626235484,-0.5503120154403149
1783696007574271000,2.42727099609375,0.2609481072127819,0.1866600512087345,-0.5683939078368246
1783696007584235000,2.437235107421875,0.31965631676912304,0.2565998488754034,-0.5228675436757505
1783696007594199000,2.447198974609375,0.4277262308657169,0.3103711865514517,-0.45855566889345645
1783696007604162000,2.457162109375,0.5211345824033021,0.34078386047184467,-0.4106953088268637
1783696007614126000,2.4671259765625,0.5441325961530208,0.33350539390146733,-0.3977178999625146
1783696007624089900,2.47708984375,0.4836287353515625,0.2656529239028692,-0.3568080896861851
1783696007634054000,2.487053955078125,0.38516543851196766,0.19790274523496626,-0.28605449141860007
1783696007644018000,2.497017822265625,0.32069325860142706,0.07245850248932838,-0.2809079223103821
1783696007653981000,2.50698095703125,0.23524901781082153,-0.10139350507259369,-0.24957389576137065
1783696007663945000,2.516945068359375,0.2047942583143711,-0.272277895000577,-0.21687106507718562
1783696007673909000,2.526908935546875,0.25186346800327297,-0.4196943155795336,-0.24572189650833606
1783696007683873000,2.536873046875,0.38052608827352524,-0.5782932244300842,-0.3055249155640602
1783696007693836800,2.5468369140625,0.5136603009998798,-0.7941898915171622,-0.3328450302965939
1783696007703800000,2.556800048828125,0.6225567290484905,-0.9071411479145288,-0.35590982567220925
1783696007713763800,2.566763916015625,0.7018488769501448,-0.9529057047456503,-0.37619492720142006
1783696007723728000,2.576727783203125,0.7613274863570928,-0.9272785115361213,-0.39733796073421834
1783696007733692000,2.58669189453125,0.7968903826475143,-0.8878823206931352,-0.4519051249630749
1783696007743656000,2.596656005859375,0.7969728002339601,-0.8605097451210022,-0.5096930048041045
1783696007753619000,2.606618896484375,0.723075789374113,-0.7871867347568273,-0.5052219968698919
1783696007763583000,2.6165830078125,0.6481365759849548,-0.6725736826270818,-0.547613277875632
1783696007773547000,2.626547119140625,0.5569938312917947,-0.5413321517795324,-0.5786686336137354
1783696007783511000,2.636510986328125,0.4927238959550857,-0.37246436237096786,-0.4712997073933482
1783696007793474800,2.646474853515625,0.44963118868172164,-0.2505301735728979,-0.39303105732053517
1783696007803438800,2.65643896484375,0.4096101439386606,-0.15019757573008535,-0.28635610471367834
1783696007813401900,2.66640185546875,0.3627624680459499,-0.07352174780666827,-0.2054734727501869
1783696007823366000,2.676365966796875,0.35357086133062837,-0.01939677438735962,-0.19193755322024225
1783696007833330000,2.686329833984375,0.35678339363634587,-0.0338935017734766,-0.04975479551106691
1783696007843294000,2.6962939453125,0.2740297071039676,-0.0862830297023058,0.05298822447434067
1783696007853258000,2.706258056640625,0.1168950255870819,-0.0806266113758087,0.09145882490500808
1783696007863221000,2.716220947265625,0.027796353942155835,-0.05265606991052627,0.1375096513316035
1783696007873185000,2.72618505859375,0.031048633736371994,-0.05808101756870746,0.17155001422986388
1783696007883148800,2.736148681640625,0.06527531298696994,-0.052449733683466906,0.19669892240315676
1783696007893112800,2.74611279296875,0.031796237233281135,-0.041270752543210984,0.19655410710498689
1783696007903076900,2.756076904296875,-0.07704875288903713,0.009362287107110023,0.18512772707492112
1783696007913040000,2.766039794921875,-0.2114472864627838,0.10502572409510612,0.16971213127821683
1783696007923004000,2.77600390625,-0.358196767565608,0.12734276984333992,0.20245807045176625
1783696007932968000,2.785968017578125,-0.46306817788183685,0.13042436924576759,0.17881386775299907
1783696007942932000,2.795931884765625,-0.5541115538537502,0.038840310525894164,0.08767419179975985
1783696007952896000,2.80589599609375,-0.64784723764956,-0.09749649763405323,-0.022703122456371783
1783696007962859000,2.81585888671875,-0.7077016946315765,-0.26118951475322244,-0.0003876841433346271
1783696007972822800,2.82582275390625,-0.7973691060751676,-0.5172931045442819,0.11656520911082625
1783696007982786800,2.835786865234375,-0.8299655537754297,-0.8002753489106893,0.20693813847526907
1783696007992750800,2.845750732421875,-0.7643570633113383,-0.9719511814773082,0.20974647389426826
1783696008002715000,2.85571484375,-0.653600686609745,-0.9754045368015766,0.04580298914536834
1783696008012678000,2.865677978515625,-0.5880500638127326,-0.8281932834058999,-0.19093714400604367
1783696008022642000,2.875641845703125,-0.6595534575343132,-0.6454594657301902,-0.44607028132975096
1783696008032606000,2.88560595703125,-0.8442015843987465,-0.5066279181450605,-0.6887567556649447
1783696008042570000,2.895570068359375,-1.0715835220962762,-0.3448661613494158,-0.905408332772553
1783696008052533800,2.90553369140625,-1.2962550317913293,-0.17049334478378295,-1.089427660214156
1783696008062497000,2.9154970703125,-1.4185545467704535,0.039218496188521385,-1.2264185483686625
1783696008072460800,2.925460693359375,-1.4314707269668578,0.20622809050977228,-1.3122095567703247
1783696008082424800,2.9354248046875,-1.3512187941223381,0.40029695667028425,-1.333871791871637
1783696008092388900,2.945388916015625,-1.2299164734870194,0.5438239685952663,-1.3063514783918857
1783696008102353000,2.955352783203125,-1.0861188279271126,0.6296282748699188,-1.2510263354025781
1783696008112316000,2.96531591796875,-0.914056041869521,0.6575035392671823,-1.2100341075398027
1783696008122280000,2.975280029296875,-0.7308318103283643,0.6393897904276847,-1.1876385897278785
1783696008132244000,2.985243896484375,-0.511164392530918,0.6106301444113255,-1.2543528494767844
1783696008142207700,2.995207763671875,-0.3211398333251476,0.5945873566269875,-1.345819127035886
1783696008152171800,3.005171875,-0.20259996314048767,0.600188829895854,-1.398732971099764
1783696008162135800,3.0151357421875,-0.054959670677781104,0.6636416036307812,-1.548821241236478
1783696008172098800,3.025098876953125,0.06347147843539715,0.7244616907745599,-1.5621974401600658
1783696008182062800,3.035062744140625,0.2104185279369354,0.8578589383512735,-1.455831699632853
1783696008192027000,3.04502685546875,0.23305121550559996,0.9754676651656627,-1.2212598504312335
1783696008201990400,3.054990478515625,0.0888747997611761,1.1638771903902292,-0.9988428416647016
1783696008211954400,3.064954345703125,-0.10010638787150382,1.358524733221531,-0.8664837049640715
1783696008221917400,3.07491748046875,-0.3736655548542738,1.40891870341897,-0.6453402232646942
1783696008231881500,3.084881591796875,-0.6527361787348985,1.436272574290633,-0.4411841167233884
1783696008241845200,3.09484521484375,-0.9039315382182598,1.3557190281510352,-0.2406960311703384
1783696008251809300,3.104809326171875,-1.0040145452141762,1.2429080570071935,-0.10830591480955482
1783696008261773300,3.114773193359375,-0.9511416176825761,1.1001923614650964,0.0028645956508815285
1783696008271736300,3.124736328125,-0.8853899193555116,0.9453466676682233,0.11674787220135331
1783696008281700400,3.134700439453125,-0.8450655077517032,0.7583329807162285,0.16054785096123814
1783696008291664400,3.144664306640625,-0.8140472691535949,0.5902139638483525,0.17090630949884653
1783696008301628400,3.15462841796875,-0.7221785482734442,0.426907315698266,0.13406009539961813
1783696008311592400,3.164592529296875,-0.5605681826472282,0.3024661125153303,0.01876929013878107
1783696008321555500,3.174555419921875,-0.4155874647825956,0.23371873950362204,-0.0936274011157453
1783696008331519500,3.18451953125,-0.3991518782883882,0.21090835728049276,-0.21729528183862565
1783696008341483300,3.194483154296875,-0.4397311414361,0.27804595700800416,-0.3797676711216569
1783696008351447300,3.204447265625,-0.4278530721157789,0.3692839787691831,-0.48153161694183944
1783696008361411300,3.214411376953125,-0.3992214363932609,0.4707575633406639,-0.5457236647367477
1783696008371374300,3.224374267578125,-0.4520347426921129,0.6160708741605282,-0.6014636721372604
1783696008381338400,3.23433837890625,-0.5757622446477413,0.7974035928666591,-0.5821649512968957
1783696008391302400,3.244302490234375,-0.8788707467198371,0.8639788825362921,-0.513690550007671
1783696008401266400,3.254266357421875,-1.1948036590516566,1.0218155748426914,-0.5661142724670469
1783696008411230200,3.264230224609375,-1.3151719137072562,1.1433943743318318,-0.6953156757891178
1783696008421194200,3.2741943359375,-1.2794675631195307,1.1053729789733886,-0.7393089851640164
1783696008431157200,3.2841572265625,-1.070011742734909,1.0382686969935893,-0.6867953193988651
1783696008441121300,3.294121337890625,-0.6943114671826363,0.9523907409608363,-0.5810321478746832
1783696008451085300,3.304085205078125,-0.3454740641146898,0.8198568322151899,-0.4930005209393799
1783696008461049300,3.31404931640625,-0.021011223846673963,0.7277876203268766,-0.46243872087188065
1783696008471013400,3.324013427734375,0.22182839522361755,0.5957464635342359,-0.44246034720428284
1783696008480976400,3.333976318359375,0.420831210654974,0.4173649958491325,-0.42592086194418366
1783696008490940400,3.3439404296875,0.5357926378309726,0.17368366525769233,-0.38021117710545654
1783696008500904400,3.353904541015625,0.516112370327115,-0.0025426702201366423,-0.2788987013798207
1783696008510868200,3.3638681640625,0.47878889410495756,-0.036675241446495054,-0.23120383407324552
1783696008520832300,3.373832275390625,0.3415706269353628,-0.056747723138332366,-0.2234794503662735
1783696008530795300,3.383795166015625,0.12243220144808292,-0.03148527158796787,-0.18612587126679717
1783696008540759300,3.39375927734375,-0.13451719151735306,0.03444295234978199,-0.16346315388604998
1783696008550723300,3.403723388671875,-0.4382365189641714,0.13386603413224218,-0.1549977425534278
1783696008560687400,3.413687255859375,-0.714955611282587,0.19864391899108885,-0.17779278107695282
1783696008570651400,3.4236513671875,-0.8842822503745555,0.2768541168749332,-0.2556877024665475
1783696008580614400,3.433614501953125,-0.9906213951557874,0.3419482280761003,-0.29090017788410183
1783696008590578400,3.443578369140625,-1.0481991393774748,0.3699076636254787,-0.3755854900661856
1783696008600542200,3.453542236328125,-1.0253805738478898,0.36061727271080013,-0.4312763976279646
1783696008610506200,3.46350634765625,-0.9330518342405557,0.4159235648691654,-0.475561091164872
1783696008620470300,3.47347021484375,-0.7687795559287071,0.5021352829009295,-0.45287769632227715
1783696008630433300,3.483433349609375,-0.5571756175994873,0.5502209761559963,-0.3186062231943011
1783696008640397300,3.493397216796875,-0.4238315615147352,0.5443371788144111,-0.1281345047429204
1783696008650361300,3.503361328125,-0.48162148718237874,0.563485531398654,-0.07530527022257447
1783696008660325400,3.513325439453125,-0.6935469125509262,0.5869727899700403,-0.06668755440507083
1783696008670289200,3.5232890625,-0.9058692282825708,0.6136971307665109,-0.1736011015407741
1783696008680253200,3.533253173828125,-0.9644026657938957,0.6152350078582763,-0.31566096352264283
1783696008690216200,3.54321630859375,-0.7790805851906537,0.5356044217824936,-0.5434338002339005
1783696008700180200,3.55318017578125,-0.5374421586036682,0.42459670066833494,-0.6590485767520964
1783696008710144300,3.563144287109375,-0.33952480032145976,0.3766635676264763,-0.749413103614375
1783696008720108300,3.5731083984375,-0.18298925374150274,0.3124532535225153,-0.8271303303495049
1783696008730072300,3.583072265625,-0.07553893284797668,0.19077099365890024,-0.8030322464033961
1783696008740035300,3.593035400390625,0.032956513184309005,-0.03785305305421352,-0.6104647247165441
1783696008749999400,3.602999267578125,0.07430325357317924,-0.28037878386974335,-0.3689745474938303
1783696008759963400,3.61296337890625,0.0867184985101223,-0.3678682667523622,-0.33206710472665724
1783696008769927200,3.62292724609375,0.031792730101943015,-0.37319092307984825,-0.38638635860905046
1783696008779891500,3.632891357421875,-0.11592238116264343,-0.32725919298827644,-0.48819092870056624
1783696008789854200,3.642854248046875,-0.3072936788022518,-0.18944763610064982,-0.6938516676511615
1783696008799818200,3.652818359375,-0.49572015516161916,0.02705108853280544,-0.9965155677609145
1783696008809782300,3.6627822265625,-0.5802595560669899,0.215590962138772,-1.1719063291974365
1783696008819746600,3.67274658203125,-0.6542080048531294,0.33159926801919937,-1.2102978730425238
1783696008829710600,3.682710693359375,-0.697277331250906,0.5522545278102159,-1.1085347309399396
1783696008839673300,3.69267333984375,-0.7060556809902191,0.79846508461833,-0.9970844536900519
1783696008849637400,3.702637451171875,-0.5719686975836753,1.0339181005686522,-0.9306085327416658
1783696008859601400,3.712601318359375,-0.2634346633315086,1.2070102296739815,-0.9193255067050456
1783696008869565400,3.7225654296875,0.04315291302800178,1.1931348490566014,-0.9507219309657812
1783696008879529500,3.732529541015625,0.2154565221041441,1.1276964544624088,-1.0617385660387575
1783696008889493500,3.742493408203125,0.23882746081948278,1.0826952832192183,-1.2233764041937887
1783696008899456300,3.752456298828125,0.15531214226484297,1.0955243696540593,-1.3459683262482285
1783696008909420500,3.762420654296875,-0.03885959974825382,1.1268950749516486,-1.3845010321296751
1783696008919384600,3.772384521484375,-0.22305472214818,1.1446779844015835,-1.395412448374927
1783696008929348400,3.782348388671875,-0.3512298511624336,1.1588707604050636,-1.3793655689373612
1783696008939312400,3.7923125,-0.3842787188053131,1.1638035406321285,-1.420628284304589
1783696008949275400,3.802275390625,-0.4262707713603973,1.1135720675200222,-1.4632617035031317
1783696008959239400,3.812239501953125,-0.5332856234461069,1.0514145942926407,-1.5290911432415246
1783696008969203500,3.822203369140625,-0.6337474006265401,1.0808487785696983,-1.5648434246242044
1783696008979167500,3.83216748046875,-0.7117495087176561,1.107476088732481,-1.5764445766992865
1783696008989131500,3.842131591796875,-0.7716372834473848,1.0532792191207407,-1.5865458456054329
1783696008999094500,3.852094482421875,-0.86866382548213,1.0580366427809,-1.5761748198471963
1783696009009058600,3.86205859375,-1.0298661948293446,1.132176230224967,-1.5448052835933863
1783696009019022600,3.872022705078125,-1.288782503953576,1.2665952220648526,-1.503774915677309
1783696009028986400,3.881986328125,-1.480728971132636,1.430468856447935,-1.480043765347451
1783696009038950400,3.891950439453125,-1.5147954913854598,1.5432687216758727,-1.4002109346978366
1783696009048914400,3.90191455078125,-1.3871329880684613,1.5590584114819763,-1.3251079090490936
1783696009058877400,3.91187744140625,-1.1834493213444948,1.4943226121991873,-1.2593424744576216
1783696009068841500,3.921841552734375,-1.0569833343356847,1.3742436958789825,-1.193591506782919
1783696009078805500,3.931805419921875,-0.9752835407704115,1.283746847873926,-1.1602309428423643
1783696009088769500,3.94176953125,-0.8969593611180782,1.2081214057862757,-1.2403278312556445
1783696009098733300,3.9517333984375,-0.8469967680752277,1.0916267776936293,-1.403083421394229
1783696009108696600,3.961696533203125,-0.7870189769744873,1.020488125631213,-1.5274562355160712
1783696009118660400,3.971660400390625,-0.6820715788125992,0.8988105419427156,-1.63079371426329
1783696009128624400,3.981624267578125,-0.6012392157316208,0.7529431043714284,-1.7182620082274078
1783696009138588400,3.99158837890625,-0.4784861117660999,0.7050584866464138,-1.7633339066192506
1783696009148552400,4.001552490234375,-0.4549982686728239,0.7131225506365299,-1.708426404520124
1783696009158515500,4.011515380859375,-0.7528864057481288,0.7650584895789623,-1.586484909198433
1783696009168479500,4.0214794921875,-1.215924188491702,0.9010603666961192,-1.5547596913747488
1783696009178443500,4.031443603515625,-1.5575661270976067,1.0794237142026424,-1.4668670345187187
1783696009188407300,4.0414072265625,-1.6580740815073252,1.1855857488512993,-1.3183824001863598
1783696009198371300,4.051371337890625,-1.5744599787533282,1.230764030227065,-1.158305966129154
1783696009208336100,4.061336181640625,-1.3702140019714832,1.1783242334157227,-1.0112903814360499
1783696009218299100,4.071299072265625,-1.0486953984618186,1.057596497797966,-0.8246699315853416
1783696009228263200,4.08126318359375,-0.7095885312914848,0.8965180470913648,-0.6887658157542348
1783696009238227200,4.091227294921875,-0.5230664272487163,0.6773731918632984,-0.5906028170354664
1783696009248191200,4.101191162109375,-0.4795797522217035,0.5558078363776207,-0.5408828005768358
1783696009258155000,4.111155029296875,-0.49970951705873007,0.5434861149430275,-0.47971229256018993
1783696009268118000,4.121117919921875,-0.5617097538977861,0.5407394465833902,-0.3407578492477536
1783696009278082000,4.13108203125,-0.591494066786766,0.5240893405556678,-0.20394509413912892
1783696009288046000,4.141046142578125,-0.5411439357310533,0.4743202242583036,-0.06697700233832002
1783696009298010000,4.151010009765625,-0.5186217227995396,0.428218398296833,0.03464797340258956
1783696009307974100,4.16097412109375,-0.4373614896953106,0.43415538713037966,0.10320230806022881
1783696009317937200,4.170937255859375,-0.3518786704599857,0.43711774406731124,0.2000681065753102
1783696009327901200,4.180901123046875,-0.26052374432086944,0.39972470974028107,0.2924336710616946
1783696009337865200,4.190865234375,-0.1856838996529579,0.3507306694686413,0.28384061476141215
1783696009347829000,4.2008291015625,-0.17340777092576026,0.30908231578469275,0.24955183006003498
1783696009357793000,4.21079296875,-0.16268647042512893,0.2771785265237093,0.274431858164072
1783696009367757000,4.220757080078125,-0.14832944377064705,0.21433482459783554,0.24727716312631964
1783696009377720000,4.230719970703125,-0.21958383116722105,0.1750567071765661,0.2096859758786857
1783696009387684000,4.24068408203125,-0.33685061267614363,0.19224661916941405,0.2086570712223649
1783696009397648100,4.250648193359375,-0.479593780747056,0.2461272624388337,0.2172261621251702
1783696009407612200,4.260612060546875,-0.5988438450276852,0.313309870351851,0.26533859725669023
1783696009417576200,4.270576171875,-0.7020400156080723,0.30727701992839573,0.3388615141071379
1783696009427539200,4.280539306640625,-0.7801438305079936,0.3123056617453694,0.3952368968017399
1783696009437503000,4.2905029296875,-0.823912829607725,0.2899821862563491,0.4308417325377464
1783696009447467000,4.300467041015625,-0.8634890531927346,0.27854718452841043,0.4466035114236176
1783696009457431000,4.31043115234375,-0.8623392986357211,0.3100231037661433,0.4214844138666987
1783696009467395000,4.32039501953125,-0.7743675851941109,0.26931027736663815,0.4636990231312811
1783696009477359000,4.330359130859375,-0.6479425147175788,0.1674199286878109,0.5420671880558133
1783696009487322000,4.340322021484375,-0.4997101015806198,0.024004560443758965,0.6673445498019457
1783696009497286100,4.3502861328125,-0.4255120619475841,-0.08014934925287961,0.7632077471457421
1783696009507250200,4.360250244140625,-0.5076818111121654,-0.098972123144567,0.777954649900645
1783696009517214000,4.3702138671875,-0.6386112072706223,-0.048047407071292396,0.680382310551405
1783696009527178000,4.380177978515625,-0.7568985639989375,-0.04141571397185325,0.541872980657965
1783696009537141000,4.39014111328125,-0.7738350857526064,-0.011187748968601226,0.3627233050793409
1783696009547105000,4.40010498046875,-0.7139385431945323,-0.013679565784335136,0.27880276672467585
1783696009557069000,4.410069091796875,-0.6172212132394314,-0.02369534836411476,0.2556266199290752
1783696009567033000,4.420033203125,-0.4946633395850658,0.11472995650768279,0.23356091859340666
1783696009576997000,4.4299970703125,-0.318216639354825,0.226527366694808,0.2725290932826698
1783696009586960100,4.439960205078125,-0.07809680063724517,0.2891319991677999,0.39391456215679643
1783696009596924200,4.449924072265625,0.28319734842181205,0.2150678150475025,0.4643421433404088
1783696009606888000,4.459887939453125,0.6538789190292358,0.08206745783388614,0.5746133668735623
1783696009616852000,4.46985205078125,0.9044014938175677,-0.08253975152075291,0.7106020922482014
1783696009626816000,4.47981591796875,1.0293670131355523,-0.2492494861125946,0.7802674568876624
1783696009636779000,4.489779052734375,0.9874825126081704,-0.3190957602769136,0.7643084018640219
1783696009646743000,4.499742919921875,0.751668262130022,-0.2444517304420471,0.7081175819560885
1783696009656707000,4.50970703125,0.36170974412262435,-0.05735737946927547,0.5992286065615713
1783696009666671000,4.519671142578125,-0.03356383142769336,0.22160569238364694,0.4791374152816832
1783696009676635100,4.52963525390625,-0.31982699716091156,0.49799043818116184,0.40302492032945153
1783696009686598100,4.53959814453125,-0.40618952184021473,0.6797761613518,0.29291984714344144
1783696009696562200,4.549562255859375,-0.39207799437940116,0.8241483919292688,0.27035766752772034
1783696009706526000,4.55952587890625,-0.3000052753597498,0.9391682712942361,0.33048407331891355
1783696009716490000,4.569489990234375,-0.28185996233820915,1.0248924980700016,0.5022895966798067
1783696009726454000,4.5794541015625,-0.37923546394109725,1.0618097315788269,0.6249154210038482
1783696009736418300,4.589418212890625,-0.5287661001950502,1.0827613341927527,0.6560302518442273
1783696009746381000,4.599381103515625,-0.5544833097755909,1.0009230089396237,0.6043574938826263
1783696009756345000,4.609344970703125,-0.40134792702794075,0.7497153744965791,0.5535634184516967
1783696009766309000,4.61930908203125,-0.1983113260358572,0.39399756426513194,0.5319883501771837
1783696009776273000,4.62927294921875,-0.02864507972598076,0.08400514789819717,0.4648919592428952
1783696009786237200,4.6392373046875,0.11736731927394867,-0.1477875919789076,0.46539581711180505
1783696009796200000,4.649199951171875,0.23872458496689794,-0.2684849324584007,0.4915248954288661
1783696009806164000,4.6591640625,0.289564545366168,-0.33424130696058274,0.45020014767609534
1783696009816128000,4.6691279296875,0.23512217656075954,-0.35134500197470186,0.3875757875893265
1783696009826092300,4.67909228515625,0.1012573114722967,-0.28025135809779167,0.2234353920288384
1783696009836056300,4.689056396484375,-0.14894669888615608,-0.21427520336508749,0.10628047339655458
1783696009846019000,4.69901904296875,-0.4786860182523727,-0.058764908179640765,0.023313874765858052
1783696009855983000,4.708983154296875,-0.7204606384396552,0.13626432744562625,-0.08080357537791133
1783696009865947100,4.718947021484375,-0.765724844533205,0.273687761798501,-0.15675503454953432
1783696009875911200,4.7289111328125,-0.7040151150733233,0.3802215523689985,-0.16300116239748894
1783696009885875200,4.738875244140625,-0.5314870495915412,0.44354573128819463,-0.14881956537514923
1783696009895839200,4.748839111328125,-0.35377135233879087,0.5341290885329246,-0.0882630976036191
1783696009905802000,4.758802001953125,-0.2240349653571844,0.5910229421436787,-0.04169898789264261
1783696009915766300,4.768766357421875,-0.04247311407029628,0.566223431929946,-0.030297011651471254
1783696009925730300,4.778730224609375,0.1207335808366537,0.47424072928130623,-0.06763115539811551
1783696009935694300,4.7886943359375,0.1948117934823036,0.34834932729005813,-0.16581147057786583
1783696009945658000,4.798658203125,0.29377953271269797,0.2148988882213831,-0.298417713907361
1783696009955621000,4.80862109375,0.4017547542631626,0.10513035351336002,-0.32553872587122024
1783696009965585200,4.818585205078125,0.5367074145883322,0.011837152788043022,-0.28639877481162546
1783696009975549200,4.828549072265625,0.6114315239220858,-0.05769874025285244,-0.17287512535378335
1783696009985513200,4.83851318359375,0.6551718814492226,-0.05100245748460293,-0.027790070331841707
1783696009995477200,4.848477294921875,0.6566361087828875,-0.08246843985021114,0.11026318635717033
1783696010005440300,4.858440185546875,0.5833984386146068,-0.1298141283929348,0.18968729007542132
1783696010015404300,4.868404296875,0.5520289023607969,-0.15145195970535277,0.2132848040882498
1783696010025368300,4.878368408203125,0.5557295104444027,-0.231609492264688,0.20826909481808542
1783696010035332000,4.88833203125,0.5279799182534217,-0.31426205651015043,0.19010661146603525
1783696010045296000,4.898296142578125,0.44932606825530524,-0.3921113121271133,0.1335709967084229
1783696010055259100,4.908259033203125,0.3777098618090153,-0.443845298756659,0.018500994591414927
1783696010065223200,4.91822314453125,0.25057576628029343,-0.5091352247908711,-0.045782677009701726
1783696010075187200,4.928187255859375,0.1049959134787321,-0.5172185780033469,-0.028407909969240426
1783696010085151200,4.938151123046875,-0.03190788091421127,-0.45008594671189783,0.06800386116802692
1783696010095115300,4.948115234375,-0.11656477071940899,-0.4326853145778179,0.24252324659749863
1783696010105078300,4.958078369140625,-0.13461422215104102,-0.35714521268606186,0.3392755748007446
1783696010115042300,4.968042236328125,-0.18156009772121906,-0.30739070943593977,0.379506755163148
1783696010125006000,4.978006103515625,-0.21909458634555337,-0.2602934426963329,0.35797837557457385
1783696010134970000,4.98797021484375,-0.2867804676055908,-0.26498218503445387,0.30535898441262543
1783696010144934100,4.99793408203125,-0.42199966991245746,-0.271735166426003,0.27820385098345574
1783696010154898200,5.007898193359375,-0.5286871897399426,-0.22489625836163757,0.25613639608211813
1783696010164861200,5.017861083984375,-0.6208516786962747,-0.20005846196413038,0.22195750149600207
1783696010174825200,5.0278251953125,-0.6809077957302332,-0.1757102026492357,0.23649178441353141
1783696010184789200,5.037789306640625,-0.7767056727528572,-0.10465367591232061,0.25670484361983836
1783696010194753300,5.047753173828125,-0.8757529069602489,0.02792114936560392,0.275419919353351
1783696010204716800,5.057716796875,-0.944504371625185,0.15659546007364988,0.29238267152681946
1783696010214679800,5.0676796875,-0.9779051214456558,0.2359299858123064,0.3054918170120567
1783696010224643600,5.0776435546875,-0.9887766440719366,0.22769348786473273,0.3868278918314725
1783696010234607600,5.087607666015625,-0.9181950413703918,0.11538462102413177,0.6355592723540961
1783696010244571600,5.097571533203125,-0.6706149497747421,-0.13028905242830513,0.8349257334660738
1783696010254535700,5.10753564453125,-0.3008464023590088,-0.264472774207592,0.7761186666451394
1783696010264498700,5.117498779296875,-0.08374445113539696,-0.30282296312898394,0.5771409125898033
1783696010274462700,5.127462646484375,-0.11340776799321174,-0.41452831111848354,0.47323082158640023
1783696010284426800,5.1374267578125,-0.22887013042867183,-0.4496136530250311,0.3854744313959032
1783696010294390800,5.147390869140625,-0.30996611288189885,-0.41987376379966734,0.32810360792316495
1783696010304354600,5.1573544921875,-0.2845452558994293,-0.3087222503006458,0.2355053306594491
1783696010314317800,5.16731787109375,-0.23400164809823035,-0.22446341990232466,0.26524660812430084
1783696010324281600,5.177281494140625,-0.1922071639418602,-0.19578619147241114,0.4011377183433622
1783696010334245600,5.18724560546875,-0.12872750220000742,-0.16231237641572951,0.48446438245810564
1783696010344209700,5.197209716796875,-0.06370645623505115,-0.12439853308498859,0.5077289381895214
1783696010354173700,5.207173583984375,0.01257657297849655,-0.08891805438101291,0.48205827116444705
1783696010364136700,5.21713671875,0.12539865003824233,-0.1136708028435707,0.40188429892696437
1783696010374100700,5.227100830078125,0.297125336009264,-0.08284837907850742,0.3092091570347547
1783696010384064800,5.237064697265625,0.35966625559628007,-0.010255436554551123,0.18234642579331992
1783696010394028500,5.247028564453125,0.3326262729793787,0.12685118693411349,0.02392996083758771
1783696010403992600,5.25699267578125,0.21416823585927486,0.3189356012791395,-0.15447532611452042
1783696010413955600,5.26695556640625,0.05918050324320793,0.5720704043924808,-0.26587358091622587
1783696010423919600,5.276919677734375,-0.1054185228049755,0.8111141383111476,-0.34536563530415293
1783696010433883600,5.286883544921875,-0.2786930227398872,0.984702526500821,-0.3916525355089456
1783696010443847700,5.29684765625,-0.36740415637195106,1.1129022054344415,-0.43049920271039005
1783696010453811700,5.306811767578125,-0.28659517416656016,1.163834520292282,-0.4031288190953433
1783696010463774700,5.316774658203125,-0.0755026924908161,1.0759376256525517,-0.34348230577558275
1783696010473738800,5.32673876953125,0.18727029206156728,0.888464504495263,-0.26591793151460585
1783696010483702800,5.336702880859375,0.4419605079233646,0.6453758790999651,-0.23405966189578173
1783696010493666600,5.34666650390625,0.6795639799058437,0.37989597367644307,-0.2608653973653912
1783696010503630600,5.356630615234375,0.8248504027187824,0.13606909713447093,-0.336932884132117
1783696010513593600,5.366593505859375,0.8737398135721683,-0.04643091178536415,-0.4688262299519032
1783696010523557600,5.3765576171875,0.8353998537838458,-0.19396482126414774,-0.5950986671499907
1783696010533521700,5.386521728515625,0.7313935358643532,-0.3036123599410057,-0.6902424641780555
1783696010543485700,5.396485595703125,0.5475678312987089,-0.30025428168475626,-0.7067239356406032
1783696010553449700,5.40644970703125,0.33808278481960297,-0.18337796079814433,-0.6898495924029499
1783696010563413500,5.41641357421875,0.126719669508934,-0.03155892134606838,-0.646469665686041
1783696010573376800,5.426376708984375,-0.03842997615933418,0.11081541341245174,-0.5658902544528246
1783696010583340500,5.436340576171875,-0.15552315466701983,0.18607494479715822,-0.4199992898754775
1783696010593304600,5.4463046875,-0.14515724347531794,0.26066753670573234,-0.2672826439965516
1783696010603268600,5.4562685546875,-0.0429781409829855,0.35224750377237796,-0.19567491311766205
1783696010613231600,5.466231689453125,0.022525135540962218,0.37812428782880303,-0.14018763836920262
1783696010623195600,5.476195556640625,0.05461304919719696,0.3451701127320528,-0.20095541080385446
1783696010633159700,5.48615966796875,0.06664777038395404,0.27113457018435,-0.2838604885056615
1783696010643123700,5.496123779296875,0.06546177546977996,0.2153863794773817,-0.3266188492581248
1783696010653087500,5.50608740234375,0.04954173728227615,0.13147709316909312,-0.3863001416303217
1783696010663051500,5.516051513671875,0.045694998726248735,0.06131576170623302,-0.42412981380894776
1783696010673014500,5.5260146484375,0.1226420448064804,-0.02103109759092331,-0.397160412210226
1783696010682978600,5.535978515625,0.23476269559860227,-0.11358721621334553,-0.342527927660197
1783696010692942600,5.545942626953125,0.3294441358119249,-0.22694237723648547,-0.28060250962302086
1783696010702906600,5.55590673828125,0.37499943380653855,-0.3496428742319345,-0.23192893347740173
1783696010712870700,5.56587060546875,0.34606384670138357,-0.4809352584838867,-0.24294322557523845
1783696010722833700,5.575833740234375,0.2769377035051584,-0.5502899497389793,-0.29417452337965366
1783696010732797700,5.585797607421875,0.20708792220950126,-0.6305617563277482,-0.3400798038557172
1783696010742761700,5.59576171875,0.17235796961188316,-0.702061058396101,-0.3930637905463576
1783696010752725500,5.6057255859375,0.13904898972809313,-0.7167804886221886,-0.46342634366974234
1783696010762688500,5.6156884765625,0.0869230811715126,-0.6951315513938665,-0.49443742187470197
1783696010772652500,5.625652587890625,0.051435003682971,-0.6468132184267044,-0.5102424553804099
1783696010782616600,5.635616455078125,-0.0245867442458868,-0.5770534535020589,-0.454588664958626
1783696010792580600,5.64558056640625,-0.04120353252589702,-0.41558454217314716,-0.3859090964861214
1783696010802544600,5.655544677734375,-0.05839958199858665,-0.28395079713761806,-0.35653321826755996
1783696010812507600,5.665507568359375,-0.057840779072046274,-0.21503975799679756,-0.3152909611664712
1783696010822471700,5.6754716796875,0.005368249034881592,-0.17457681470513342,-0.2982955488324165
1783696010832435700,5.685435791015625,0.07399462601542472,-0.15270225202739238,-0.23009163504764435
1783696010842399500,5.6953994140625,0.1250946986556053,-0.1556511649608612,-0.14640958162397144
1783696010852363500,5.705363525390625,0.1889168902248144,-0.1494593245834112,-0.08528349727094173
1783696010862327600,5.71532763671875,0.21772855868935584,-0.18919746073186397,-0.06054433894231915
1783696010872290600,5.72529052734375,0.28106208995878695,-0.19848843616843223,-0.09583367898836731
1783696010882254600,5.735254638671875,0.28632570957541464,-0.23452888684272766,-0.11586100636422633
1783696010892218600,5.745218505859375,0.22168869449198245,-0.2503478027433157,-0.1639763641051948
1783696010902182700,5.7551826171875,0.14837854360938071,-0.25007015484571454,-0.24200389889851212
1783696010912145700,5.765145751953125,0.01912088005542755,-0.2745154447942972,-0.2952672870524227
1783696010922109700,5.775109619140625,-0.11322890429496764,-0.2278431254684925,-0.36505174802690743
1783696010932073500,5.785073486328125,-0.19417524914443493,-0.18854454978108404,-0.4595215913161635
1783696010942037500,5.79503759765625,-0.19254267950654028,-0.20811609621345994,-0.5356522064469754
1783696010952001500,5.80500146484375,-0.2725719095110893,-0.2545598674803972,-0.5519023533716797
1783696010961964500,5.814964599609375,-0.36763971869349477,-0.2604074244648218,-0.5932818269863724
1783696010971928600,5.824928466796875,-0.37916239870488644,-0.28679332708716393,-0.5892804823905229
1783696010981892600,5.834892578125,-0.3503109827518463,-0.4128033870220184,-0.44810997046381235
1783696010991856600,5.844856689453125,-0.2352285595446825,-0.6800479640305042,-0.1897857820138335
1783696011001820700,5.854820556640625,0.012473112604022025,-0.8272492805540561,-0.14438772040754555
1783696011011784400,5.864784423828125,0.17673837665319442,-0.8253612748503685,-0.23306728985756633
1783696011021747700,5.874747802734375,0.12822539789676665,-0.8469932609438896,-0.264150118124485
1783696011031711500,5.88471142578125,-0.08307458904981613,-0.9740706578493118,-0.30902430198714137
1783696011041675500,5.894675537109375,-0.2045288853764534,-1.0321592742025851,-0.47786461886689063
1783696011051639600,5.9046396484375,-0.20303952360153196,-1.017163365122676,-0.6480771008826792
1783696011061602600,5.9146025390625,-0.29147827003300186,-0.9113689947426319,-0.778270730112493
1783696011071566600,5.924566650390625,-0.4547638753950596,-0.6601309651613235,-0.8473609252125024
1783696011081530600,5.934530517578125,-0.6284411109119653,-0.3027607115477323,-0.7796914105653763
1783696011091494700,5.94449462890625,-0.7832990796685219,0.035734161204099654,-0.6348100614219904
1783696011101458400,5.95445849609375,-0.8773422219783067,0.32927170185446736,-0.505133003412187
1783696011111421700,5.964421630859375,-0.8516302730947732,0.5085071560204029,-0.39280119408741593
1783696011121385500,5.974385498046875,-0.7546323726326227,0.5511269850850105,-0.24791911429166794
1783696011131349500,5.984349609375,-0.5913251399606466,0.49986792249083517,-0.13679112779870628
1783696011141313500,5.9943134765625,-0.3711936117827892,0.38706045847833154,-0.09366729473471641
1783696011151277600,6.004277587890625,-0.14923545269966124,0.24467560232579708,-0.08879676608890294
1783696011161240600,6.014240478515625,0.022704583761096,0.0774725312590599,-0.0813799139611423
1783696011171204600,6.02420458984375,0.1098281559407711,0.007169160977005958,-0.11850465274080633
1783696011181168600,6.034168701171875,0.08171265304684638,0.014171148693561553,-0.18337766853719947
1783696011191132700,6.044132568359375,-0.0004945055186748505,0.12446516858041286,-0.23014964884519576
1783696011201096400,6.054096435546875,-0.11050620133280753,0.2751771235734224,-0.21734394328594206
1783696011211059200,6.06405908203125,-0.20514146431684493,0.4617378060609102,-0.15319690367653965
1783696011221023200,6.074023193359375,-0.24628537560999392,0.6829974614858627,-0.07819456192329526
1783696011230987300,6.0839873046875,-0.3162123137950897,0.9002245003938675,0.006191401986032724
1783696011240951300,6.093951416015625,-0.32122984969615936,1.0639134258598089,0.07543401116877793
1783696011250915300,6.103915283203125,-0.27800211786627765,1.0876374157965183,0.1819553806491196
1783696011260878300,6.11387841796875,-0.1720984418928623,1.0353028329253195,0.27052725194096566
1783696011270842400,6.12384228515625,-0.1609393344968557,0.9354811072140932,0.3126085902146995
1783696011280806400,6.133806396484375,-0.20070903482735156,0.867932588598132,0.3371199311368167
1783696011290770200,6.143770263671875,-0.2862491372078657,0.797331112152338,0.34813963006213305
1783696011300734200,6.153734130859375,-0.36557635642290115,0.6992196974903345,0.37776451460570093
1783696011310697200,6.163697265625,-0.3932862011253834,0.6026134266942739,0.43162806060984726
1783696011320661200,6.1736611328125,-0.39473756897747514,0.48850598599910733,0.5051366566739977
1783696011330625300,6.183625244140625,-0.3527776651263237,0.4179840045303106,0.5132492359809577
1783696011340589300,6.19358935546875,-0.2637047124445438,0.40825697576403613,0.4812269349068403
1783696011350553300,6.20355322265625,-0.22953706990480421,0.43046237783133984,0.3726347505018115
1783696011360516400,6.213516357421875,-0.2591442726612091,0.4670920265704393,0.2086982800155878
1783696011370480400,6.22348046875,-0.253252876535058,0.4943208097577095,0.04204107932858169
1783696011380444400,6.2334443359375,-0.32139410034716126,0.44961189945936203,-0.1196465893175453
1783696011390408200,6.243408203125,-0.4329021721988916,0.44827685146331786,-0.3413507005743682
1783696011400372200,6.253372314453125,-0.5019727858155966,0.44480362239480015,-0.4908638011716306
1783696011410335200,6.263335205078125,-0.47520460587739943,0.49977381446659563,-0.57421888766326
1783696011420299300,6.27329931640625,-0.4071580746114254,0.4942980134040117,-0.5944696485314518
1783696011430263300,6.28326318359375,-0.25206512805521486,0.4422212046861648,-0.5099914762940257
1783696011440227300,6.293227294921875,-0.018161095112562177,0.4101537492960691,-0.35330256578326225
1783696011450191400,6.30319140625,0.21457506309449673,0.3832014449626207,-0.19569829399324953
1783696011460154400,6.313154296875,0.4025900360435247,0.3061246350228786,-0.08487579325288534
1783696011470118400,6.323118408203125,0.5491542237073183,0.19047931723594663,-0.05784150972440839
1783696011480082200,6.333082275390625,0.6622521950989961,0.04643500343859196,-0.018018764032423494
1783696011490046200,6.343046142578125,0.700382311528921,-0.1504623641461134,-0.006380787078291177
1783696011500010200,6.35301025390625,0.7115764902383088,-0.28591712877452374,-0.038152182131260634
1783696011509973200,6.36297314453125,0.7071160036981106,-0.42075230019986626,-0.054767655237019056
1783696011519937300,6.372937255859375,0.6621417204618454,-0.5174480028450489,-0.0444701331064105
1783696011529901300,6.3829013671875,0.6022399172067642,-0.547933157479763,-0.054317427251487964
1783696011539865300,6.392865234375,0.5344821397542954,-0.5142202729701996,-0.051621320035308595
1783696011549829000,6.4028291015625,0.4105260897397995,-0.4191331745654344,0.017972586803138256
1783696011559792400,6.41279248046875,0.23838439322710037,-0.3043792526602745,0.03421827674843371
1783696011569756200,6.422756103515625,0.07937807261943816,-0.17952245441377163,0.01650996690467
1783696011579720200,6.43272021484375,-0.03098199824094772,-0.09288052827119826,-0.0118734662104398
1783696011589684200,6.442684326171875,-0.02440729602575302,-0.0692465547055006,-0.024255831791087985
1783696011599648300,6.452648193359375,-0.010996610310673713,-0.09096914169192313,-0.04840191959738731
1783696011609611300,6.462611328125,0.0863829829454422,-0.12194587923586368,-0.07130027236491442
1783696011619575300,6.4725751953125,0.1512204890370369,-0.15443769751787184,-0.07317256904281676
1783696011629539300,6.482539306640625,0.21831658771038054,-0.12906769393980502,-0.09715177584961056
1783696011639503400,6.49250341796875,0.2547767251014709,-0.08792202908098697,-0.08022526403330266
1783696011649467100,6.502467041015625,0.23403555036783216,-0.021864625805616378,-0.012557649082317948
1783696011659430100,6.51243017578125,0.2010650086581707,0.027169161954522132,0.06368205244615674
1783696011669394200,6.522394287109375,0.1161024139046669,0.060766311129927635,0.12950323581285775
1783696011679358200,6.532358154296875,0.0789846893876791,0.15115736067295074,0.17890147297121584
1783696011689322200,6.542322265625,0.17283026329874993,0.20755963137447833,0.19556239265389738
1783696011699286300,6.552286376953125,0.33585692546367646,0.19868308195769785,0.2843069901641458
1783696011709249300,6.562249267578125,0.45807577642202374,0.17783903137147425,0.3540213085118681
1783696011719213300,6.57221337890625,0.4405705148696899,0.16175240444540975,0.29869492341354487
1783696011729177300,6.58217724609375,0.3398889574587345,0.1283843878507614,0.21590660395920275
1783696011739141000,6.59214111328125,0.16646248183250426,0.09064122491180897,0.16035897732563315
1783696011749105200,6.602105224609375,0.004352349990606308,0.056365445822477336,0.12499825254380702
1783696011759068200,6.612068115234375,-0.11454875472187995,-0.06110007312893867,0.1522130072057247
1783696011769032200,6.6220322265625,-0.14116320540308952,-0.3032096243590116,0.2866002887330949
1783696011778996200,6.631996337890625,-0.015940496453642844,-0.6153542503237724,0.42346323965899646
1783696011788960300,6.641960205078125,0.20532851132154464,-0.8135036637961864,0.4478722161851823
1783696011798924300,6.65192431640625,0.3506739708453417,-0.8897884465754031,0.3793311063352972
1783696011808887300,6.66188720703125,0.35630759281814095,-0.8406687340974808,0.23438443687073884
1783696011818851300,6.671851318359375,0.22807108900547027,-0.7231535307854413,0.11518442227691411
1783696011828815000,6.681815185546875,0.03951309522092342,-0.5572960291087627,-0.023562734960392115
1783696011838779100,6.691779052734375,-0.10431786808669566,-0.33417350242137905,-0.22445611337870358
1783696011848743200,6.7017431640625,-0.2540297061264515,-0.16676467964947222,-0.3746921214230358
1783696011858706200,6.7117060546875,-0.41030572498738765,-0.04819616789221763,-0.4455823516823351
1783696011868670200,6.721670166015625,-0.5003986683666706,0.028708208090066908,-0.45454855214394624
1783696011878634200,6.73163427734375,-0.5051011469691992,0.09602700960338115,-0.4090032640866935
1783696011888598300,6.741598388671875,-0.47945466453731056,0.15460779338777064,-0.4407373228039592
1783696011898562300,6.751562255859375,-0.47463118990361686,0.15699147365391253,-0.42515974137857554
1783696011908525300,6.761525390625,-0.4469418034672737,0.08322714926302432,-0.4265611326090991
1783696011918489300,6.7714892578125,-0.4511854323863983,0.01621346817612648,-0.35459070589765906
1783696011928453000,6.781453125,-0.4526993440806865,0.01580605641901493,-0.3564671672940254
1783696011938417200,6.791417236328125,-0.45472120529711246,0.1605126335173845,-0.4072451683729887
1783696011948381200,6.801381103515625,-0.452105469840765,0.3082867814928293,-0.48732262143343685
1783696011958344200,6.81134423828125,-0.44067455976605413,0.4918137953728437,-0.5479127722788601
1783696011968308200,6.82130810546875,-0.4308826490700245,0.6894827318519353,-0.6437533193994313
1783696011978272300,6.831272216796875,-0.3892103299885988,0.8572340844511985,-0.8721273368742316
1783696011988236300,6.841236328125,-0.3096148152261972,0.9605138416618109,-1.0931450733020902
1783696011998200000,6.851199951171875,-0.28529812009334565,0.9991384636104106,-1.2637379329375922
1783696012008163300,6.861163330078125,-0.3046060471534729,0.93129066978693,-1.4367891455106436
1783696012018127000,6.871127197265625,-0.363517670327425,0.8786655795365571,-1.5680530343204735
1783696012028091100,6.881091064453125,-0.38446751937568185,0.8198065633326769,-1.622006742826104
1783696012038055200,6.89105517578125,-0.3284732449531555,0.7540525269180536,-1.610207291699946
1783696012048019200,6.901019287109375,-0.15758184076249598,0.662433396884799,-1.5934635160394013
1783696012057983200,6.910983154296875,0.07662146738767624,0.5814221701055765,-1.5565196867845952
1783696012067946200,6.9209462890625,0.282550282689929,0.47003158715367316,-1.5137985893025994
1783696012077910300,6.93091015625,0.3843009306371212,0.31369068636298175,-1.44280577545166
1783696012087874000,6.9408740234375,0.37857787681519983,0.19087620759904383,-1.3661911761961876
1783696012097838000,6.950838134765625,0.3435591704040766,0.16983984931111334,-1.3608609210841356
1783696012107802000,6.960802001953125,0.3276186739504337,0.137822078281641,-1.2928053297288715
1783696012117765000,6.97076513671875,0.2955968112677336,0.09930237801223993,-1.226482115124166
1783696012127729200,6.980729248046875,0.3146481332182884,0.12848171074539422,-1.2594874358862638
1783696012137693200,6.990693115234375,0.34795126788318154,0.1788560994595289,-1.2594359979599714
1783696012147657200,7.0006572265625,0.4124555964976549,0.24405513233989476,-1.2459139608249068
1783696012157621200,7.010621337890625,0.45369595390260214,0.31985271612405775,-1.2158671976074575
1783696012167584300,7.020584228515625,0.4188783230215311,0.4084221031978726,-1.1701217838682234
1783696012177548300,7.03054833984375,0.3349351344436407,0.4835775896862149,-1.1264948235876857
1783696012187512000,7.040511962890625,0.1934445967823267,0.4700450311571359,-1.044065985095501
1783696012197476000,7.05047607421875,0.13503157078027725,0.4336588357850909,-0.962372913531959
1783696012207440100,7.060440185546875,0.1648439407199621,0.3506087966546416,-0.8741234060622751
1783696012217403100,7.070403076171875,0.220941675516963,0.24087533325999974,-0.7307771575316786
1783696012227367200,7.0803671875,0.30187632992863656,0.12162731480598449,-0.587369534202665
1783696012237331200,7.090331298828125,0.41206922752857206,0.030360943733155725,-0.458040851239115
1783696012247295200,7.100295166015625,0.5094307006061077,-0.09095891255885362,-0.31843101275786756
1783696012257259000,7.110259033203125,0.5787088194936514,-0.23508915107399223,-0.22129443447738883
1783696012267222300,7.12022216796875,0.5573299313783645,-0.36323943790793417,-0.1510882409594953
1783696012277186000,7.13018603515625,0.47813247602283954,-0.4575207728877663,-0.13352160460874438
1783696012287150000,7.140150146484375,0.379560458111763,-0.4896545715123415,-0.1399748724013567
1783696012297114000,7.150114013671875,0.3255933056026697,-0.4926236504510045,-0.11978402502685785
1783696012307078100,7.160078125,0.23640111045539378,-0.4872214991465211,-0.10328158384151756
1783696012317042200,7.170042236328125,0.040111645635962485,-0.5092360548168421,-0.07306501701511442
1783696012327005200,7.180005126953125,-0.242678291028738,-0.4572787808254361,-0.03984481139332056
1783696012336969200,7.18996923828125,-0.4709703293085098,-0.3584329144090414,0.026688100439310074
1783696012346933200,7.199933349609375,-0.5684352627605199,-0.2706003171771765,0.11993205519542097
1783696012356897000,7.20989697265625,-0.4666670791566372,-0.21404314817488193,0.18081797411702571
1783696012366861000,7.219861083984375,-0.343875396746397,-0.19376345347315072,0.2824803592588752
1783696012376824000,7.229823974609375,-0.23309914630055426,-0.19417671044915913,0.33573125325739384
1783696012386788000,7.2397880859375,-0.15829729555547237,-0.25542437535524365,0.2458665656760335
1783696012396752100,7.249752197265625,-0.050067806982994074,-0.34249124891161914,0.11926540798023343
1783696012406716200,7.259716064453125,0.03307809373736381,-0.4101908664360642,0.0032664544500410554
1783696012416680200,7.26968017578125,0.10514905821382999,-0.46291211053729053,-0.10244082216843962
1783696012426643200,7.279643310546875,0.10353870040774345,-0.46257250331938266,-0.1450157891780138
1783696012436607200,7.289607177734375,0.0071843585461378095,-0.446441452729702,-0.15470350884720682
1783696012446571000,7.299571044921875,-0.05069967514574528,-0.37207214818298817,-0.19738200929649172
1783696012456535000,7.30953515625,-0.06798574098944664,-0.3634577568337321,-0.25105229775086046
1783696012466499300,7.319499267578125,-0.02681669525504112,-0.3066705784678459,-0.33730062146596607
1783696012476462000,7.329462158203125,0.043616438886523244,-0.2761325246021151,-0.3796070737324655
1783696012486426000,7.339426025390625,0.0773936208039522,-0.276593420112133,-0.44488582078553734
1783696012496390100,7.34939013671875,-0.004033785560727119,-0.3095700993016362,-0.532087572767958
1783696012506354200,7.359354248046875,-0.14180150330662727,-0.2964931755855679,-0.5936269140969962
1783696012516318200,7.369318115234375,-0.29876725799739356,-0.25374796657562254,-0.6393529655486345
1783696012526281200,7.37928125,-0.4166676612347364,-0.21464754380881784,-0.7123079463180154
1783696012536245000,7.389244873046875,-0.5747136123776435,-0.4043450630173087,-0.8581563869278878
1783696012546209000,7.399208984375,-0.6779325793117285,-0.5150219447419047,-0.8625119517888873
1783696012556173300,7.40917333984375,-0.7467085938960313,-0.7154924946382641,-0.6802358147528023
1783696012566137300,7.419137451171875,-0.6255658477365971,-0.951087841668725,-0.49376909415908155
1783696012576101400,7.429101318359375,-0.3941442792594433,-1.0819634618133307,-0.4549340443301946
1783696012586064100,7.439064208984375,-0.36373628151416776,-1.2034005147442222,-0.39500666824243963
1783696012596028400,7.4490283203125,-0.4822130233347416,-1.2399579750299452,-0.39358978718183935
1783696012605992200,7.4589921875,-0.6423492247551679,-1.1157964655712247,-0.5808891592074186
1783696012615956200,7.468956298828125,-0.8760112656354904,-0.9851347804382443,-0.7813727147158235
1783696012625920300,7.478920166015625,-1.1290987224757671,-0.8926502657473087,-0.8724868909016251
1783696012635883300,7.48888330078125,-1.3678729918032884,-0.6641340633228421,-0.9531221970405429
1783696012645847300,7.498847412109375,-1.5285603973656892,-0.3242930366590619,-1.107301097491756
1783696012655811300,7.508811279296875,-1.5699235043674706,0.0027998598515987395,-1.177235049939528
1783696012665775400,7.518775390625,-1.506331614422798,0.2474482819095254,-1.1163332027964292
1783696012675739400,7.528739501953125,-1.4012608821421861,0.45057957544773813,-0.9199442231252789
1783696012685702400,7.538702392578125,-1.2756798612743616,0.6777347186520696,-0.7193051117289812
1783696012695666400,7.54866650390625,-1.1426076078683136,0.8418944765001535,-0.5732312648653983
1783696012705630200,7.558630126953125,-0.9507716153264045,0.9533867662608623,-0.47989882810823614
1783696012715594200,7.56859423828125,-0.672899845841527,1.0107572974726557,-0.4274508479904383
1783696012725558300,7.578558349609375,-0.3090904990911484,0.9853846635460853,-0.3610436814293265
1783696012735521300,7.588521240234375,0.057736149653792375,0.9911170697182417,-0.26054420258700844
1783696012745485300,7.5984853515625,0.34550796638429165,0.95161011197716,-0.19132804301977158
1783696012755449300,7.608449462890625,0.5439239218384028,0.9554989361092447,-0.1161868773177266
1783696012765413400,7.618413330078125,0.6655728639543056,0.958562707594037,-0.010310089351236819
1783696012775377200,7.628377197265625,0.7808166152030229,0.8612889127999543,0.04606894660517573
1783696012785341200,7.638341064453125,0.8642097686827183,0.6728136288627982,0.08674933203980326
1783696012795304200,7.64830419921875,0.836578249913454,0.5092296250760555,0.13069134961888193
1783696012805268200,7.658268310546875,0.7758265518307685,0.36363369792252775,0.08653861189857125
1783696012815232300,7.668232177734375,0.6837824743837118,0.1883247695505619,0.0867070272680372
1783696012825196300,7.6781962890625,0.5125695831537247,-0.002001110689342022,0.1648621339637786
1783696012835160300,7.688160400390625,0.3043874359667301,-0.12978168742805718,0.19188735740296542
1783696012845123300,7.698123291015625,0.12107494162023066,-0.19340368025004862,0.168133556849882
1783696012855087400,7.70808740234375,-0.07299041740894317,-0.12538871316611766,0.06768902306519449
1783696012865051400,7.718051513671875,-0.3138379858791828,0.06013415070623159,-0.10531995780132711
1783696012875015200,7.72801513671875,-0.5941513032972813,0.2586190797433257,-0.3710578565739095
1783696012884979200,7.737979248046875,-0.8442758186787367,0.42486061230152844,-0.658795113447681
1783696012894942200,7.747942138671875,-1.104184061449766,0.5519295336395502,-0.841568897807598
1783696012904906200,7.75790625,-1.340437872388959,0.7002534244522451,-0.9087032826647162
1783696012914870300,7.767870361328125,-1.5369079544723032,0.8262076625466346,-0.9040687547318637
1783696012924834300,7.777834228515625,-1.6474217545896768,0.9859665550872683,-0.8321093608710914
1783696012934798300,7.78779833984375,-1.5646961251080036,1.1226648900359868,-0.7167973666917532
1783696012944761300,7.79776123046875,-1.2681716776013374,1.1814707147479058,-0.5243840126533061
1783696012954725400,7.807725341796875,-0.8660048354059457,1.1503048843726515,-0.27516316811330616
1783696012964689200,7.817689208984375,-0.3456523432910442,1.0675976673305034,-0.04928235569372773
1783696012974653200,7.827653076171875,0.15459025773108004,0.8963502893090247,0.1268641194809228
1783696012984617200,7.8376171875,0.5792787283360957,0.7000090943023562,0.15197605664469302
1783696012994580200,7.847580322265625,0.9069155224651098,0.4814215806961059,0.12582615473531186
1783696013004544300,7.857544189453125,1.0538964742362498,0.21941578112393617,0.12305888197906314
1783696013014508300,7.86750830078125,1.1697013664990663,-0.04204290595948696,0.1543517728000879
1783696013024472300,7.877472412109375,1.2265408595740794,-0.18966361693888903,0.12884506416507063
1783696013034436400,7.887436279296875,1.1943769580721855,-0.2564259536132216,0.05360642943792045
1783696013044400000,7.897400146484375,1.0435346546977757,-0.3215560129106045,-0.020700842723250387
1783696013054363100,7.907363037109375,0.8181102808088063,-0.36910920672416686,-0.0575445726044476
1783696013064327200,7.9173271484375,0.56257893794775,-0.39082010327279565,-0.07948737821280956
1783696013074291200,7.927291259765625,0.272102538433671,-0.4334025229364633,-0.137526456335932
1783696013084255200,7.937255126953125,0.04635200133025646,-0.4029442563086748,-0.28304347303435207
1783696013094219300,7.94721923828125,-0.15851590674221513,-0.352786432954669,-0.41625590209607033
1783696013104182300,7.957182373046875,-0.35058278543055055,-0.3316574279472232,-0.5402666779724881
1783696013114146300,7.967146240234375,-0.4402624718338251,-0.31799685912430287,-0.6320492184065282
1783696013124110300,7.9771103515625,-0.44066462289392944,-0.29432956781089303,-0.6378583430767059
1783696013134074000,7.98707421875,-0.4355465492278337,-0.2878390367478132,-0.6059423884538934
1783696013144038100,7.9970380859375,-0.4462964913010597,-0.229324888458848,-0.5525421491125598
1783696013154001200,8.007001220703126,-0.4191214841276407,-0.1644192855671048,-0.4750206641452387
1783696013163965200,8.016965087890625,-0.3869844706326723,-0.12950754666179418,-0.4150896347956732
1783696013173929200,8.02692919921875,-0.3792249425470829,-0.14192220707684755,-0.3459858130291104
1783696013183893200,8.036893310546875,-0.3908440686702728,-0.12585603841692208,-0.28452384778521955
1783696013193857300,8.046857177734376,-0.3718436001241207,-0.12121376556903123,-0.2541881846237928
1783696013203820300,8.0568203125,-0.3697124333143234,-0.13749591506719588,-0.2146876200908795
1783696013213784600,8.06678466796875,-0.3293143719524145,-0.1232218905210495,-0.17658453779835254
1783696013223748400,8.076748291015624,-0.31080899344682694,-0.09188976366817951,-0.14157642584647984
1783696013233712400,8.08671240234375,-0.2947662056624889,-0.09461480471789836,-0.15553247048463673
1783696013243676400,8.096676513671875,-0.24858897637724875,-0.06418196479231118,-0.23990652476046234
1783696013253639400,8.106639404296875,-0.1693710627555847,-0.0046682840719819065,-0.34663499765284356
1783696013263603500,8.116603515625,-0.12851356718838214,-0.00834463449716568,-0.41651020565070207
1783696013273567500,8.1265673828125,-0.1533458106279373,0.017435411186516283,-0.4203188041534275
1783696013283531500,8.136531494140625,-0.17541268100738525,-0.0129448217689991,-0.33230146147180345
1783696013293495300,8.146495361328125,-0.2663122645944357,-0.16898878543972967,-0.14568459181766957
1783696013303459300,8.156459228515626,-0.36740532541573045,-0.33305005134940147,-0.03186696438193321
1783696013313422300,8.16642236328125,-0.40772213823497294,-0.3407394368082285,-0.1414602155882865
1783696013323386400,8.176386474609375,-0.5307651650577784,-0.2929755228534341,-0.33226898397430776
1783696013333350400,8.186350341796874,-0.642429304254055,-0.22495208020210264,-0.5006011686688289
1783696013343314400,8.196314453125,-0.6600438713997602,-0.19528905560523271,-0.5752127940714359
1783696013353278500,8.206278564453125,-0.6558914278954268,-0.16975129424482582,-0.5988804872436448
1783696013363241500,8.216241455078125,-0.5645294874936342,-0.06784837834537029,-0.6350128174524754
1783696013373205500,8.22620556640625,-0.4937848031848669,0.015546528699994086,-0.6087112686453386
1783696013383169500,8.23616943359375,-0.4501783011704683,0.021045126116275785,-0.5953066108122468
1783696013393133300,8.24613330078125,-0.41423195852041245,0.013043605968356131,-0.5987643865833059
1783696013403097300,8.256097412109375,-0.34993747326433655,-0.0202756030485034,-0.6065744027471169
1783696013413060400,8.266060302734376,-0.3705184890002012,-0.03515519227236509,-0.6366105349726975
1783696013423024400,8.2760244140625,-0.4431546861439943,-0.0215150817155838,-0.6625640375271439
1783696013432988400,8.285988525390625,-0.45872985641658304,0.018203472949564457,-0.6982808092050254
1783696013442952400,8.295952392578124,-0.4447825796067714,0.02224398051202297,-0.7412069277398288
1783696013452916500,8.30591650390625,-0.3962766151130199,0.12487404164224862,-0.8080089388374239
1783696013462880300,8.31588037109375,-0.2899479917258024,0.24450462967306374,-0.9376339743990451
1783696013472843500,8.325843505859375,-0.1618552802979946,0.3844418004125357,-1.0051874614510685
1783696013482807300,8.335807373046874,-0.12423135982453823,0.4854354925125837,-1.0763248714044689
1783696013492771300,8.345771240234376,-0.133879478135705,0.5783098833039403,-1.1672972279667853
1783696013502735400,8.3557353515625,-0.14664777429401873,0.7012874436751008,-1.2887559082075952
1783696013512699400,8.365699462890625,-0.1412900466531515,0.8336375202864408,-1.352821260882914
1783696013522662400,8.375662353515626,-0.14987667321264742,0.8651262990057468,-1.3612033047810197
1783696013532626400,8.38562646484375,-0.16188275282680986,0.9121355952009558,-1.4242228016652165
1783696013542590500,8.395590576171875,-0.16873685650527476,0.9599854338735342,-1.4914968872539698
1783696013552554500,8.405554443359375,-0.2032821001857519,0.981047218863666,-1.5490663020387292
1783696013562518300,8.415518310546876,-0.29824644899368286,0.9970800697758794,-1.6732802723370492
1783696013572481300,8.425481201171875,-0.33809213716983794,1.075358656720817,-1.7796692476093767
1783696013582445300,8.4354453125,-0.35740649397075175,1.0857768826216458,-1.8219401171058416
1783696013592409300,8.445409423828124,-0.3947077583611011,1.0447270793527363,-1.7526351102113722
1783696013602373400,8.455373291015626,-0.4520061011195183,1.0369646286576986,-1.6428803117677568
1783696013612337400,8.46533740234375,-0.3429705568611622,0.9908481896489858,-1.5188544113874434
1783696013622300400,8.475300537109375,-0.14457330610752106,0.8484273854002357,-1.4135120225585995
1783696013632264400,8.485264404296874,0.18443886802792547,0.6799786981865763,-1.29547060341537
1783696013642228500,8.495228515625,0.5759229881674051,0.4216542174756527,-1.2089110217940062
1783696013652192300,8.505192138671875,0.8856634755998849,0.14894494532048702,-1.1679472163081168
1783696013662156300,8.51515625,1.1040203953206538,-0.03668663962334394,-1.2656846830911934
1783696013672119300,8.525119384765626,1.0983259830713272,-0.13520195891112088,-1.4738279595725237
1783696013682083300,8.535083251953125,0.8375701835602521,-0.14689853418469428,-1.6349734841659664
1783696013692047400,8.54504736328125,0.452536262473464,-0.04735971706807613,-1.7353510901942848
1783696013702011400,8.555011474609374,0.10231880322396755,0.06384031174778938,-1.714381513532251
1783696013711975700,8.5649755859375,-0.17714111223518847,0.12013999885767697,-1.6634003910966217
1783696013721939500,8.574939453125,-0.284292157921195,0.1970753545001149,-1.6144260784387587
1783696013731902500,8.58490234375,-0.31385435249209404,0.2935974541440606,-1.621680871872604
1783696013741866200,8.5948662109375,-0.3408569257080555,0.3142603029444814,-1.5673004623875022
1783696013751830500,8.60483056640625,-0.38385786304473873,0.34384470934718847,-1.487799347910285
1783696013761794600,8.614794677734375,-0.4017798887044191,0.3295695157572627,-1.4182117246821522
1783696013771758600,8.624758544921875,-0.36863691303730006,0.30137773275673385,-1.364668496673554
1783696013781721300,8.634721435546876,-0.28881401925981043,0.25981910318285223,-1.3293302029192446
1783696013791685600,8.644685546875,-0.22007132242321967,0.135073071834445,-1.3442792041175067
1783696013801649700,8.654649658203125,-0.2083680251479149,-0.008965104483067988,-1.3216226972818375
1783696013811613400,8.664613525390624,-0.14049042070806025,-0.11702829657793044,-1.3134437747403978
1783696013821577500,8.674577392578126,-0.026415713238716124,-0.17341273936182258,-1.291991382997483
1783696013831540200,8.684540283203125,0.07161796001195907,-0.223627261339128,-1.2072461573217064
1783696013841504500,8.69450439453125,0.1266454352289438,-0.25762568479180337,-1.1353940232276916
1783696013851468500,8.704468505859374,0.14927520018815993,-0.24913521208316086,-1.0731119737725705
1783696013861432600,8.7144326171875,0.11615151374340056,-0.26204437801688907,-1.0225471039876342
1783696013871396600,8.724396728515625,0.11569383310377597,-0.2629287596359849,-1.0108816545046866
1783696013881360600,8.734360595703125,0.17060674203038215,-0.287550282934308,-0.9536850185550749
1783696013891323600,8.74432373046875,0.2043196265399456,-0.2819812506303191,-0.8921529837496578
1783696013901287700,8.75428759765625,0.2579056707769632,-0.2470297642365098,-0.8324005989026277
1783696013911251500,8.76425146484375,0.30722119808793064,-0.25359014566540716,-0.7517869931388645
1783696013921215500,8.774215576171875,0.3213888396501541,-0.2507651513725519,-0.636391339264065
1783696013931179500,8.784179443359376,0.2401473112463951,-0.23586159675121307,-0.4953146796332672
1783696013941142500,8.794142578125,0.17583938198685645,-0.15678981360197067,-0.4116630578804761
1783696013951106600,8.8041064453125,0.12489537669122218,-0.03146130619049072,-0.32850937571246175
1783696013961070600,8.814070556640624,0.08109072175621986,0.06976268753409386,-0.2211569622354582
1783696013971034600,8.82403466796875,0.018971242451667786,0.15876549758911132,-0.15888547070696948
1783696013980998400,8.833998291015625,-0.07901625356972217,0.22971125742793083,-0.18353943497017025
1783696013990961700,8.843961669921875,-0.2027899327546358,0.2936968228653073,-0.20886530714556573
1783696014000925400,8.853925537109374,-0.32197862223684787,0.33493659574836493,-0.1989284350208938
1783696014010889500,8.863889404296875,-0.480485176628828,0.3443196333825588,-0.24703444041162728
1783696014020853500,8.873853515625,-0.563293223696947,0.40241818660795686,-0.31406583981830627
1783696014030817500,8.883817626953125,-0.6083896720081567,0.4359130444526672,-0.3665123220987618
1783696014040780500,8.893780517578126,-0.6305272695362567,0.4477791310742497,-0.39945002098474647
1783696014050744600,8.90374462890625,-0.6112099901258945,0.42271220209598537,-0.3928274610398337
1783696014060708600,8.91370849609375,-0.55504445078969,0.24019115038812158,-0.2816276879522949
1783696014070672600,8.923672607421874,-0.4470061008751392,-0.16229893241226673,0.05944258824549615
1783696014080636400,8.933636474609376,-0.1673094540506601,-0.5434571811094879,0.44113972959239034
1783696014090600400,8.943600341796875,0.22822540278434753,-0.7690908138349651,0.5050040067376569
1783696014100563500,8.9535634765625,0.46234687786996365,-0.8767384108662605,0.18035550770442932
1783696014110527500,8.963527587890624,0.5076718742400408,-0.8267635428637266,-0.3018603286419064
1783696014120491500,8.973491455078126,0.40915421686470504,-0.7471271115690469,-0.6912273835621774
1783696014130455600,8.98345556640625,0.18819968186616898,-0.657207478930056,-1.0575092579059302
1783696014140419600,8.993419677734375,-0.21468319964408875,-0.46856619077622885,-1.3731981323488056
1783696014150382600,9.003382568359376,-0.6355132412552833,-0.08116992447227239,-1.4641148132011295
1783696014160346600,9.0133466796875,-0.8995569763958453,0.41457916452288623,-1.3968211461290716
1783696014170310400,9.023310302734375,-1.0136240850806235,0.8639812206238507,-1.2937000866115091
1783696014180274400,9.0332744140625,-1.0028115991652011,1.235850247450173,-1.2162387343335896
1783696014190238500,9.043238525390626,-0.8911340159654617,1.4499474638998509,-1.052656191851571
1783696014200201500,9.053201416015625,-0.72882573120296,1.6267591980502007,-0.9777109140478074
1783696014210166800,9.063166748046875,-0.6046633449614047,1.6957590845182537,-0.8862941747188567
1783696014220130600,9.073130615234374,-0.5291092145442963,1.6231190879821777,-0.7978595930058509
1783696014230094600,9.083094482421876,-0.45647594000995156,1.5207815800577402,-0.7724860092312097
1783696014240058600,9.09305859375,-0.4298217418402433,1.3751447363719342,-0.7309440385311842
1783696014250021600,9.103021728515625,-0.37917525818645953,1.238733109410107,-0.7039034713923931
1783696014259985700,9.112985595703124,-0.29713468835949897,1.1018912743374705,-0.6625657180275768
1783696014269949700,9.12294970703125,-0.28928105224967,0.9828668355062603,-0.5834462963443249
1783696014279913700,9.132913818359375,-0.3581155190229416,0.8496282856225967,-0.5089140197882428
1783696014289877800,9.142877685546875,-0.5108861601114273,0.7306500240206718,-0.42699104845896363
1783696014299840800,9.1528408203125,-0.6095651455283164,0.6305208397954702,-0.37040556667763735
1783696014309804800,9.1628046875,-0.6201110894620419,0.5178723657369614,-0.2863935506472364
1783696014319768600,9.1727685546875,-0.5856897644221782,0.39781916837990283,-0.2841558912556618
1783696014329732600,9.182732666015625,-0.532252188745141,0.3533934589371085,-0.3735962159451097
1783696014339696600,9.192696533203126,-0.5941308450311422,0.4045341558486223,-0.5584530171241611
1783696014349660700,9.20266064453125,-0.7580348745524883,0.5001747964829206,-0.7305143418770284
1783696014359623700,9.212623779296875,-0.9655085812091827,0.577942803557217,-0.8671022021885961
1783696014369587700,9.222587646484374,-1.1410001726716756,0.7071335393548012,-0.9755579737976193
1783696014379551700,9.2325517578125,-1.2524556375533342,0.8413570086225867,-1.078759843466431
1783696014389515500,9.242515625,-1.2292138781756161,0.9643608724787831,-1.1341872777864337
1783696014399479800,9.252479736328125,-1.1046668765306473,1.108499878822267,-1.0792855478409678
1783696014409442600,9.262442626953124,-0.8600567406564951,1.239846915870905,-0.9878671280115843
1783696014419406600,9.272406494140625,-0.6031231297820806,1.2748039552226662,-0.8617126911699772
1783696014429370600,9.28237060546875,-0.3987526498377323,1.2485834722951055,-0.7232061377555131
1783696014439335000,9.2923349609375,-0.2225134548783302,1.1058268602207302,-0.6208661456130444
1783696014449299000,9.302298828125,-0.05243921228945255,0.9579889993593096,-0.5700713395297528
1783696014459261700,9.31226171875,0.10605857427418232,0.7862968001797794,-0.5070726662378758
1783696014469225700,9.322225830078125,0.2497065822303295,0.5618775116801261,-0.4263388316279277
1783696014479189800,9.332189697265624,0.3233306213676929,0.37198330085575576,-0.3489466721286997
1783696014489153800,9.34215380859375,0.32811727112233635,0.2392953705921769,-0.24283812123294918
1783696014499117800,9.352117919921875,0.31915596603155133,0.21589579030424355,-0.15669102940261362
1783696014509080600,9.36208056640625,0.2713373992800712,0.2043479758515954,-0.1282486691744998
1783696014519044600,9.372044677734374,0.16868015788197516,0.16626315986812112,-0.07962284116074442
1783696014529009000,9.3820087890625,-0.024915830069780348,0.14604250187724827,-0.01585168565902859
1783696014538973000,9.391972900390625,-0.21766484580338,0.17138094127327202,-0.023449520376883446
1783696014548937000,9.40193701171875,-0.3195452576100826,0.2626476046070456,-0.003589293196238577
1783696014558899700,9.411899658203126,-0.35741117014586926,0.34439620575010776,0.06376567560900002
1783696014568863700,9.42186376953125,-0.39793899536728855,0.42990649751424787,0.13764708704091608
1783696014578827800,9.431827880859375,-0.476865232565999,0.5347472204312682,0.1902710813127458
1783696014588791800,9.441791748046874,-0.5356833322376012,0.6353595119982958,0.21457206741981208
1783696014598755800,9.451755859375,-0.5902472815960645,0.7057865086600184,0.19964049228038638
1783696014608718800,9.46171875,-0.654313218793273,0.7702882069259882,0.1977517559243366
1783696014618683000,9.471682861328125,-0.7208838322877883,0.8286328438669442,0.17954663900695741
1783696014628647000,9.48164697265625,-0.7403723766118288,0.9063996818974613,0.20428572427034378
1783696014638611000,9.49161083984375,-0.6701391489565373,0.9342831296011805,0.2655024825815111
1783696014648574700,9.50157470703125,-0.5624374836504459,0.9149541597530245,0.3825541235024109
1783696014658538800,9.511538818359375,-0.4999357270300388,0.920686273664236,0.5737614992845803
1783696014668501800,9.521501708984376,-0.4142781357496977,0.9381091176301241,0.5975835793009028
1783696014678465800,9.5314658203125,-0.3009510317772627,0.8900582034274935,0.6307874548424035
1783696014688429800,9.541429931640625,-0.17121756740510463,0.819906808836758,0.6991903252653777
1783696014698393900,9.551393798828125,-0.09871464125216006,0.7690306080803274,0.7685306226689368
1783696014708356900,9.56135693359375,-0.0762485424220562,0.7114888119548559,0.7674548101309686
1783696014718321000,9.57132080078125,-0.07792378215789794,0.6572460573747754,0.6551315494388341
1783696014728285000,9.581284912109375,-0.0770370624512434,0.5460545041263103,0.5870591896118595
1783696014738248700,9.591248779296874,-0.10707564236223698,0.3439902552977204,0.5822841937623918
1783696014748212700,9.601212646484376,-0.13786884003281594,0.13362550337463616,0.6314880773924291
1783696014758176800,9.6111767578125,-0.17634031724631785,-0.019467501536011695,0.5832318498760461
1783696014768139800,9.621139892578125,-0.19774200171530246,-0.0651771133095026,0.5247931779760867
1783696014778103800,9.631103759765624,-0.2556844875961542,-0.10141893177479505,0.5028786486141383
1783696014788067800,9.64106787109375,-0.28106325900256635,-0.09332038099318742,0.4896501145329326
1783696014798032000,9.651031982421875,-0.29135727400183675,-0.048504503189027305,0.35973373134192077
1783696014807996000,9.660995849609375,-0.32227965101003647,0.07475479673296213,0.14181984268091619
1783696014817959000,9.670958984375,-0.43636078822016716,0.2311328146636486,-0.03689177027400583
1783696014827923000,9.6809228515625,-0.6177320853710174,0.29902970832586284,-0.17947353723812848
1783696014837886700,9.69088671875,-0.7304606389284134,0.364517202758789,-0.2937236378069967
1783696014847850800,9.700850830078124,-0.7035743855684995,0.416787780483067,-0.36463191517964005
1783696014857814800,9.710814697265626,-0.58835343067348,0.4431336433559656,-0.37057489536255594
1783696014867777800,9.72077783203125,-0.4289759386658668,0.4286392540574073,-0.341441082271561
1783696014877741800,9.730741943359375,-0.27725919054448606,0.40566403666138645,-0.3263176743544638
1783696014887705900,9.740705810546874,-0.22463702290356158,0.35535277631133794,-0.3642076253529638
1783696014897670000,9.750669921875,-0.19229250413775442,0.23753508292138575,-0.42516383303180333
1783696014907633700,9.760633544921875,-0.14912205545306204,0.09764058227986097,-0.4786494856342673
1783696014917597000,9.770596923828125,-0.059741059735417365,-0.034629999354481696,-0.4327979081068188
1783696014927560700,9.780560791015626,0.022357962280511855,-0.06739946553409099,-0.3759715667743236
1783696014937524700,9.790524658203125,0.07882219230234623,-0.017468436673283575,-0.3848552035190165
1783696014947488800,9.80048876953125,0.1014233156889677,0.048153790055215355,-0.47657786699198185
1783696014957452800,9.810452880859375,0.01783376285433769,0.07158698035180568,-0.573512200698629
1783696014967415800,9.820415771484376,-0.17172259431779383,0.12399638202488422,-0.7463632875896989
1783696014977379800,9.8303798828125,-0.46916064953804015,0.23088556190431117,-0.952984615200758
1783696014987344000,9.84034375,-0.7636439466059207,0.4149287086129188,-1.1270524574704468
1783696014997308000,9.850307861328124,-0.905902546030283,0.573485531887412,-1.211007336486131
1783696015007271700,9.860271728515626,-0.915734788736701,0.7887050303652882,-1.2280109321266413
1783696015017234700,9.870234619140625,-0.8104851927578449,1.0111097641721367,-1.2227401521168648
1783696015027198700,9.88019873046875,-0.12037994509339332,1.0529027870237826,-0.902213336123526
1783696015037162800,9.890162841796876,0.21465397354960442,0.8229197269171475,-0.7707084781646728
1783696015047126800,9.900126708984375,0.15739070210456846,0.6732967362046242,-1.0249689973723142
1783696015057090800,9.9100908203125,0.07443710908591747,0.6240007903769612,-1.3161216156475246
1783696015067053800,9.9200537109375,0.030840543943643568,0.46011780364364385,-1.3623089279353617
1783696015077017900,9.930017822265626,0.14554887314140796,0.3396785295784473,-1.4502449855417012
1783696015086982000,9.93998193359375,0.4527145416498184,0.2575090726748109,-1.5369422951333225
1783696015096945700,9.949945556640625,0.6850596547126769,0.23046324483901262,-1.436660696825385
1783696015106909700,9.95990966796875,0.6788929487764835,0.1968093970403075,-1.2046738956809042
1783696015116872700,9.969872802734375,0.4541875368118286,0.299503171056509,-1.0499085005786268
