time,seconds_elapsed,z,y,x
1783695974131078100,0.061078125,0.2882394342422485,0.08638853590339422,-0.17545746999718248
1783695974141041200,0.071041259765625,0.2766162164658308,-0.010166589227318763,-0.21593977557644248
1783695974151005200,0.081005126953125,0.3093126174092293,-0.08791822968870401,-0.18371305623771622
1783695974160969200,0.09096923828125,0.32423487673103807,-0.11741758815646171,-0.08872538135312497
1783695974170934000,0.10093408203125,0.4864052143275737,-0.16455401786267757,0.012895630598720162
1783695974180898000,0.11089794921875,0.7772463555008172,-0.27740502875596285,0.1730951795789413
1783695974190861800,0.12086181640625,0.9997370140254497,-0.4562994143992662,0.28669710017107425
1783695974200826000,0.130826171875,0.9517711477577686,-0.6500529310002923,0.29047479207888244
1783695974210790100,0.1407900390625,0.8370067044585943,-0.7308148591935634,0.24680824870662763
1783695974220754200,0.150754150390625,0.6464098983228206,-0.7739823852688074,0.1865290087075904
1783695974230718200,0.16071826171875,0.44805005697011946,-0.6826867881014943,0.13774020868446676
1783695974240681000,0.170680908203125,0.29327041414678096,-0.46261838828772306,0.0979877882823348
1783695974250645200,0.180645263671875,0.20626549991071222,-0.2661564895108342,0.06561980644254944
1783695974260609000,0.190609130859375,0.1717202562302351,-0.16607582060247658,0.050718699506623666
1783695974270573000,0.200572998046875,0.1748170532017946,-0.12967471992224455,0.10383824960989876
1783695974280537000,0.210537109375,0.11461012952029705,-0.14128215560764074,0.1474878509805072
1783695974290501000,0.220501220703125,0.02675356689095497,-0.15722148301750422,0.13243831201721915
1783695974300465200,0.230465087890625,0.013118424770236014,-0.18379940108060835,0.16693654735134913
1783695974310429200,0.24042919921875,0.08716916488707065,-0.25524463487416504,0.2622449420902878
1783695974320393000,0.25039306640625,0.17770108420550823,-0.3619730712339282,0.3346312561262399
1783695974330357000,0.26035693359375,0.20848200691640376,-0.48301907902061936,0.3292116787629202
1783695974340321000,0.270321044921875,0.21409049444794653,-0.6156541100531816,0.34610505549460646
1783695974350284000,0.280283935546875,0.2263736374378204,-0.7739432223021984,0.29276975288195534
1783695974360248000,0.290248046875,0.19404782337248325,-0.9438461999773978,0.17922389159230515
1783695974370212000,0.300212158203125,0.15979776324629782,-1.0726368305414915,0.05127877194164321
1783695974380176100,0.310176025390625,0.11377250965237617,-1.1353346942558884,-0.07215944647751749
1783695974390140200,0.32014013671875,0.18101999949514866,-1.1345803687572478,-0.2057278493700549
1783695974400104000,0.33010400390625,0.3184130387097597,-1.1029530583500862,-0.3489832412794232
1783695974410068000,0.34006787109375,0.4461825095325708,-1.0914306705996393,-0.45245983623638747
1783695974420032000,0.350031982421875,0.5038420868188143,-1.0200488574311137,-0.473948833662644
1783695974429996000,0.35999609375,0.41500645002424713,-0.919733210723102,-0.46114933864846824
1783695974439960000,0.3699599609375,0.23134324254393576,-0.8115399625077844,-0.40116274318676437
1783695974449923000,0.379923095703125,0.051071431067585944,-0.7082444232061504,-0.32444333184994756
1783695974459887000,0.38988720703125,-0.07526420755982399,-0.6102350076138973,-0.24051775199398398
1783695974469851100,0.39985107421875,-0.09740531221926212,-0.5685477832242846,-0.16057817303426564
1783695974479815000,0.40981494140625,-0.06548457182347774,-0.5661769624397158,-0.08798283762382343
1783695974489779000,0.419779052734375,0.06176058286428451,-0.5893637767598032,-0.02142280032224953
1783695974499743000,0.429742919921875,0.3186731509506702,-0.6523267211511731,0.05621390852257609
1783695974509707000,0.43970703125,0.4886801735222339,-0.7670581389635801,0.09727112791296094
1783695974519671000,0.449671142578125,0.5510463210642338,-0.8354150513529777,0.09352778579932637
1783695974529635000,0.459635009765625,0.5936632275193929,-0.8430632280185818,0.10360692507205531
1783695974539598800,0.469598876953125,0.6351140128046274,-0.8225824577867984,0.13867516971332952
1783695974549563000,0.47956298828125,0.6489017151385545,-0.826990337356925,0.21405286585129796
1783695974559526000,0.48952587890625,0.6434270831197499,-0.8170897055894136,0.26614721022583543
1783695974569490000,0.499489990234375,0.6251414848446846,-0.7909262135460973,0.313362550387159
1783695974579454000,0.509453857421875,0.5560270320862531,-0.7853980977743864,0.34079639115985483
1783695974589418000,0.51941796875,0.481962263444066,-0.7854094959512352,0.3450254800969735
1783695974599382300,0.52938232421875,0.4614087202370166,-0.7519353886336088,0.3251543296635151
1783695974609346000,0.539345947265625,0.43408232189416884,-0.7777040361404418,0.30335838517993685
1783695974619310000,0.54931005859375,0.3876373815834522,-0.7842781538337469,0.25119272913485763
1783695974629274000,0.559274169921875,0.31010698265731335,-0.7534121831879019,0.15177554737022145
1783695974639238100,0.569238037109375,0.1834703152567148,-0.7680152935579418,0.1317906343639828
1783695974649202200,0.5792021484375,-0.01508884806036949,-0.8411550563097,0.21313080083662642
1783695974659166200,0.589166259765625,-0.26901041763722894,-1.0110913517326117,0.4090586475357413
1783695974669129200,0.599129150390625,-0.3985334541290998,-1.0275330757066607,0.4419773129276931
1783695974679093200,0.60909326171875,-0.39719899065494535,-0.8059463802844286,0.1869716561748646
1783695974689057000,0.61905712890625,-0.5526818133115768,-0.5884992688849568,-0.0005402260902337729
1783695974699021000,0.62902099609375,-0.8320259934365749,-0.45636137371957297,0.03367357541248202
1783695974708985000,0.638985107421875,-0.974351812878251,-0.34054479101896284,0.0954656493935734
1783695974718949000,0.64894921875,-0.9676894323796034,-0.1884969112470746,0.10910641753748059
1783695974728913200,0.6589130859375,-0.8581973765254021,-0.0703401951611042,0.15188677092604339
1783695974738877200,0.668877197265625,-0.6876169379800557,-0.03417845619469881,0.21498795474432408
1783695974748841000,0.678841064453125,-0.45464580197334287,-0.04608721291422844,0.23348197160568088
1783695974758805000,0.688804931640625,-0.25871874072551726,-0.06743307554274797,0.1750309151481837
1783695974768769000,0.69876904296875,-0.15030629680156707,-0.09896423209905623,0.11278397353906183
1783695974778732000,0.70873193359375,-0.13279577455222605,-0.14068623554110526,0.1186002220697701
1783695974788696000,0.718696044921875,-0.15584756431579588,-0.1788891249462962,0.1106703606522642
1783695974798660000,0.72866015625,-0.3025783407181501,-0.18660247580260036,0.09209272062806412
1783695974808624000,0.7386240234375,-0.5633645353674889,-0.1528556890234351,0.015526106966473162
1783695974818588000,0.748587890625,-0.7353893275022506,-0.029963176587224007,-0.10164822875233366
1783695974828552000,0.758552001953125,-0.8290905245065688,0.10394552764296532,-0.22049672649474814
1783695974838516000,0.768515869140625,-0.8715034328222274,0.2338724687606096,-0.25025490029547365
1783695974848480000,0.77847998046875,-0.8284294302493334,0.386270769405365,-0.23267061869017777
1783695974858444000,0.788444091796875,-0.7341051329106092,0.5075219443753362,-0.19404395091496407
1783695974868408000,0.798407958984375,-0.6212310334026813,0.6214043441429734,-0.15095979227423667
1783695974878371000,0.80837109375,-0.49319677416384217,0.7074670090928673,-0.13276011871695517
1783695974888335000,0.818335205078125,-0.4536912777274847,0.6792182352080941,-0.11409794221445918
1783695974898299000,0.828298828125,-0.4378834677428007,0.6740539843127131,-0.15532211566958576
1783695974908263000,0.838262939453125,-0.3996019601434469,0.6649915569350123,-0.1961801226934418
1783695974918227000,0.84822705078125,-0.3419318614631891,0.6431152406916022,-0.16964622643515467
1783695974928191000,0.85819091796875,-0.3192898215442896,0.623070523789525,-0.10859265932906419
1783695974938155000,0.868155029296875,-0.2416325813680887,0.5313076013714074,-0.05441390989590436
1783695974948119000,0.878119140625,-0.087864161413908,0.4239160249277949,-0.055587922111339866
1783695974958083000,0.8880830078125,0.04831131870448589,0.2886430466070771,-0.06032897915858775
1783695974968047000,0.898047119140625,0.1464174726694822,0.21884674906432627,-0.08338661414105444
1783695974978011100,0.90801123046875,0.18011866674125193,0.19247078331410883,-0.1267852090258151
1783695974987974100,0.91797412109375,0.1585223364830017,0.15970891591906547,-0.11284147587995975
1783695974997938200,0.927938232421875,0.0674339523255825,0.16022651005238295,-0.12091617086194455
1783695975007902200,0.937902099609375,-0.006364274334907531,0.16033143173158168,-0.1778871448295191
1783695975017866200,0.9478662109375,-0.021437340304255485,0.11617226427048444,-0.1951639679208398
1783695975027830000,0.957830078125,0.09611001171171665,0.03750233992040157,-0.18254644187744706
1783695975037794000,0.9677939453125,0.2975011835843325,-0.03520838376432657,-0.1563343249194324
1783695975047758000,0.977758056640625,0.5051631062895059,-0.07154986321181059,-0.11588292593508959
1783695975057722000,0.98772216796875,0.6296382117420435,-0.0964303297072649,-0.13927414025347679
1783695975067686100,0.99768603515625,0.62664195253551,-0.09241583336889743,-0.18161800192091612
1783695975077650200,1.007650146484375,0.5519429776430129,-0.06551905861496925,-0.20545063986387102
1783695975087614000,1.017614013671875,0.410099973282218,-0.04733282906115055,-0.16121504616569726
1783695975097577200,1.0275771484375,0.30835107890069485,-0.007246025605499744,-0.11033994138780981
1783695975107541000,1.037541015625,0.2677273920893669,-0.0013797639206051826,-0.055214558754302555
1783695975117505000,1.047505126953125,0.2557926241457462,0.004967267018556595,0.025927637460827827
1783695975127469000,1.057468994140625,0.2718792510718107,0.014842472083866595,0.11653565422277896
1783695975137433000,1.06743310546875,0.31101708323955535,0.00622749621272087,0.1671884214868769
1783695975147397000,1.077397216796875,0.36072950091362,-0.030166297943890093,0.21078275813944636
1783695975157361200,1.087361083984375,0.47879298575818535,-0.09998626862317322,0.21721870947107672
1783695975167324700,1.09732470703125,0.5660270325750112,-0.17163082438111305,0.19865454998295753
1783695975177288700,1.107288818359375,0.5902548803806305,-0.2431245734915137,0.17358345628622918
1783695975187253000,1.1172529296875,0.5485825612992048,-0.2930310524329543,0.13733294305782764
1783695975197215700,1.1272158203125,0.5031769009083509,-0.3425435636207461,0.1046415105504915
1783695975207179800,1.1371796875,0.4730711009800434,-0.442079165866971,0.028815540922060606
1783695975217143800,1.147143798828125,0.409670934215188,-0.46926206408590077,-0.002013202985934913
1783695975227108000,1.157108154296875,0.304413739451766,-0.47161330338716506,-0.03154397950526327
1783695975237072000,1.16707177734375,0.24436288311481474,-0.44429158121943474,-0.059985937874577934
1783695975247036000,1.177035888671875,0.2516238140285015,-0.441845941632986,-0.05783044034112245
1783695975257000000,1.187,0.301694543620944,-0.4654109416157007,-0.05498816611990332
1783695975266964000,1.1969638671875,0.30079788704216476,-0.4714116433352232,-0.04690126924347132
1783695975276928000,1.206927978515625,0.3423907111465931,-0.43053076689243314,-0.09620050300676375
1783695975286892000,1.21689208984375,0.4314741852223873,-0.3802867265596986,-0.09107475749086588
1783695975296855000,1.22685498046875,0.48886371339559553,-0.38849049128144975,0.00611468348801136
1783695975306819000,1.236819091796875,0.4811614684551954,-0.3982718805834651,0.05772515333574265
1783695975316782800,1.246782958984375,0.44346623631119725,-0.42423166674822566,0.03822115571424365
1783695975326747000,1.256746826171875,0.4240916737556457,-0.48924599071145053,-0.025161219665594398
1783695975336711000,1.2667109375,0.37312896375954147,-0.5449608636707067,-0.06713745359703897
1783695975346675000,1.276675048828125,0.31747780368626116,-0.5402300357565284,-0.10259093469623476
1783695975356639000,1.286638916015625,0.2564659933626652,-0.5339873419746757,-0.14835428595095873
1783695975366603000,1.29660302734375,0.1788216126680374,-0.5291653286457062,-0.12961184728648512
1783695975376566800,1.30656689453125,0.049375148543715476,-0.49520373007208107,-0.12374010570887475
1783695975386530800,1.31653076171875,-0.06459785211682319,-0.473856990660727,-0.1592643139567226
1783695975396494800,1.326494873046875,-0.16878069564700127,-0.45918023053258655,-0.17796338840350506
1783695975406457900,1.336457763671875,-0.21527473579645157,-0.37672757277339697,-0.14585370130687952
1783695975416422000,1.346421875,-0.2036100169658661,-0.3142775463402271,-0.1587470851495862
1783695975426386000,1.356385986328125,-0.2266623912513256,-0.24039748661518096,-0.1306970852399245
1783695975436350000,1.366349853515625,-0.2277911030203104,-0.1402665488243103,-0.10178188333567231
1783695975446314000,1.37631396484375,-0.21002046853005885,-0.02917699464559555,-0.11049681244995445
1783695975456277800,1.38627783203125,-0.17430092037320136,0.03400046927928924,-0.125281745660305
1783695975466241800,1.39624169921875,-0.2219172425508499,0.08203706269562244,-0.15020104632880538
1783695975476205800,1.406205810546875,-0.32316344810724257,0.13548749785423278,-0.11581906691864133
1783695975486169900,1.416169921875,-0.4836942018032074,-0.0919315569832921,0.2268594481933862
1783695975496134000,1.4261337890625,-0.43113165539503095,-0.4716004439055919,0.6241473592408001
1783695975506097000,1.436096923828125,-0.06803600987195968,-0.48349692566543817,0.5104644641006365
1783695975516061000,1.44606103515625,0.07567454192638397,-0.4063014577820897,0.28661409806273874
1783695975526024700,1.456024658203125,-0.15481354509294032,-0.5217231959462165,0.33501806348673996
1783695975535988700,1.46598876953125,-0.27903204543590543,-0.6181663851350545,0.29838158314805474
1783695975545952800,1.475952880859375,-0.12088555652797221,-0.6473761130064726,0.07586370782293379
1783695975555916800,1.485916748046875,0.03434709075987339,-0.6373831267803907,-0.18429076479412615
1783695975565880800,1.495880859375,0.08732055605649948,-0.5567255357444286,-0.38606249694954603
1783695975575844900,1.505844970703125,0.06487608453631401,-0.4079667606458068,-0.4849715647952631
1783695975585809000,1.515808837890625,0.06032265901565551,-0.1817170418485999,-0.5294839661408215
1783695975595773000,1.52577294921875,0.05891805291473865,0.1529918826237321,-0.6110288614053279
1783695975605735700,1.535735595703125,-0.12552373772263525,0.5113038010016083,-0.6342570306491107
1783695975615699700,1.54569970703125,-0.40390521029531956,0.8386822364553809,-0.588439757250063
1783695975625664000,1.5556640625,-0.6911421894967555,1.0982786367982624,-0.4671818602783605
1783695975635628000,1.5656279296875,-0.857619284376502,1.3023606551900506,-0.29437548931185153
1783695975645592000,1.575592041015625,-0.8971282879441976,1.4274176521837711,-0.018899492389708755
1783695975655555800,1.585555908203125,-0.7518190687775611,1.4517130122676491,0.22502353800311684
1783695975665519900,1.595519775390625,-0.4042763816952705,1.3290762281581758,0.4351407449059188
1783695975675484000,1.60548388671875,0.045319735673069954,1.067257183329761,0.5947308567509054
1783695975685448000,1.615447998046875,0.4570978713005781,0.7800082214295864,0.7129172373227775
1783695975695412000,1.625411865234375,0.7129460250258446,0.5221481433600187,0.7521283539224416
1783695975705375000,1.635375,0.6995183881759643,0.29325960049182176,0.7517167774468659
1783695975715339000,1.645339111328125,0.566616815161705,0.11564034935086964,0.7675709107913077
1783695975725303000,1.655302978515625,0.36368425906598567,-0.05383388151824474,0.7860707363389432
1783695975735266800,1.665266845703125,0.15286358006894588,-0.19001900624781845,0.7285051209464669
1783695975745230800,1.67523095703125,-0.051639586344361305,-0.26478987733274695,0.5975741904180497
1783695975755195000,1.68519482421875,-0.22544249406754968,-0.23106325655877588,0.4443868582874536
1783695975765159000,1.695158935546875,-0.3681196111649275,-0.1537386093378067,0.33244846872705963
1783695975775123000,1.705123046875,-0.44442543673217294,-0.05373188244849443,0.11966328472401946
1783695975785087000,1.7150869140625,-0.4443073633104562,0.1065837671920657,-0.15246899126078933
1783695975795050800,1.72505078125,-0.4860685297191143,0.27158874369263647,-0.3233311328243464
1783695975805014000,1.735013916015625,-0.7703250318050384,0.47564358181655403,-0.37250480397921054
1783695975814977800,1.744977783203125,-1.1200731199771166,0.7248132806912064,-0.35256263413615524
1783695975824941800,1.75494189453125,-1.4743068291306496,0.9161743491977453,-0.28707364186588674
1783695975834905900,1.76490576171875,-1.6593892557591199,1.0108823851570485,-0.22703721591308712
1783695975844870000,1.774869873046875,-1.5763240190595387,1.0467740750104189,-0.19190854632146656
1783695975854834000,1.784833984375,-1.2719091105639935,0.9964911639720201,-0.09133070501331239
1783695975864798000,1.7947978515625,-0.819713039830327,0.8685326003178954,0.035984409638121724
1783695975874761700,1.80476171875,-0.24189736978411672,0.6987085330978036,0.03359769716467708
1783695975884725800,1.814725830078125,0.277188463395834,0.45934565022736784,0.05476016605030745
1783695975894689800,1.824689697265625,0.5693932941377162,0.24100363581478595,0.10842387863341718
1783695975904652800,1.83465283203125,0.6619862376391887,0.06534224074333905,0.07520469592493027
1783695975914616800,1.844616943359375,0.626447891268134,-0.06757014592587947,0.05908548190351575
1783695975924580900,1.854580810546875,0.5256166962534189,-0.14874065492004154,0.10513106589941307
1783695975934545000,1.864544921875,0.43614159251153467,-0.16045681167691944,0.10597155357785522
1783695975944508700,1.8745087890625,0.35453941410183903,-0.17858838843405245,0.1338076367422007
1783695975954472700,1.88447265625,0.2336953586280346,-0.18518676378577947,0.06978334672963246
1783695975964436700,1.894436767578125,0.07432488088309765,-0.20370237142443656,-0.018781674696318803
1783695975974401000,1.904401123046875,-0.10333820939958095,-0.20184856025129555,-0.14269501808024943
1783695975984365000,1.914364990234375,-0.20483517484664915,-0.17205226466357706,-0.2585920456059277
1783695975994329000,1.9243291015625,-0.16478198139965533,-0.16539076094776392,-0.329418855240196
1783695976004291800,1.934291748046875,-0.11087503464519977,-0.1573421867877245,-0.2660678248466924
1783695976014256000,1.944256103515625,-0.0449210917443037,-0.12322510539144277,-0.15827230724468827
1783695976024220000,1.954219970703125,-0.01492985810637474,-0.10054536381065846,-0.0896099456353113
1783695976034184000,1.964183837890625,0.011831892091035842,-0.12342033570259808,-0.035451910196617246
1783695976044148000,1.97414794921875,0.030726562175154685,-0.1518383286744356,0.035436456899158655
1783695976054112000,1.984112060546875,0.052929626154899594,-0.18950316568017006,0.11226342026367783
1783695976064076000,1.994075927734375,0.12209785492718218,-0.1885530253484845,0.14827880956195294
1783695976074040000,2.0040400390625,0.2109112798899412,-0.16709756486564872,0.16312296214625238
1783695976084003800,2.01400390625,0.3224433171391487,-0.22362492325156927,0.21939868385866282
1783695976093968000,2.0239677734375,0.40474399920701976,-0.324678821106255,0.23831096266470847
1783695976103931000,2.033930908203125,0.5282844541579484,-0.39896833841502666,0.27553463177420195
1783695976113895000,2.04389501953125,0.6791536455392837,-0.48398909309655425,0.3208472801193595
1783695976123859000,2.05385888671875,0.7086082880824804,-0.6180094410076737,0.3667861706040799
1783695976133823000,2.063822998046875,0.6288672273695468,-0.6890317732140422,0.41363943598736075
1783695976143787000,2.073787109375,0.5084054492115974,-0.7365545718893408,0.4281285645889118
1783695976153750800,2.083750732421875,0.374944488748908,-0.8741635919421911,0.4250612859727815
1783695976163714800,2.09371484375,0.18738018217682836,-0.9590259411916137,0.4297770989809185
1783695976173679000,2.10367919921875,0.042379590567946435,-0.9570449965074658,0.4224659722499549
1783695976183643100,2.11364306640625,-0.08914309530854225,-0.8475964875340462,0.462309578066878
1783695976193607200,2.123607177734375,-0.1746346823722124,-0.6995631041005254,0.5409669351963327
1783695976203570200,2.133570068359375,-0.2456201896995306,-0.5595873549163342,0.5822051371768117
1783695976213534200,2.1435341796875,-0.3217944978415966,-0.5172872593253851,0.5993466069180517
1783695976223498000,2.153498046875,-0.40811435242295263,-0.48369595536887644,0.5893430992979556
1783695976233462000,2.1634619140625,-0.43928924288749693,-0.4228796676173806,0.5369474338892847
1783695976243426000,2.173426025390625,-0.3245090174973011,-0.3463537695586681,0.4223904227957129
1783695976253390000,2.18339013671875,-0.1990472390949726,-0.29808278286457063,0.32178901794888076
1783695976263354000,2.19335400390625,-0.21715222010612487,-0.3014703794762492,0.25210984397977587
1783695976273318100,2.203318115234375,-0.4200421061038971,-0.35988282095640894,0.3898961933609098
1783695976283282000,2.213281982421875,-0.5822814172834158,-0.6374418712303042,0.8045799142368137
1783695976293246000,2.223245849609375,-0.4506359818100929,-0.6419032345533371,0.929101343049109
1783695976303209000,2.233208984375,-0.19028291788101195,-0.43963177271485326,0.6073003424014896
1783695976313173000,2.243173095703125,-0.06919336321353912,-0.5729620925351977,0.483139563595131
1783695976323137000,2.253136962890625,0.07059387766122818,-0.7659785270333289,0.48090460761729625
1783695976333101000,2.26310107421875,0.1680418599784374,-0.8079021905273198,0.3607274916196242
1783695976343065000,2.273065185546875,0.20334230594038963,-0.7201201544389129,0.15285199922900647
1783695976353029400,2.283029296875,0.17202946830987928,-0.49016953529715535,-0.0608342983322218
1783695976362993200,2.2929931640625,0.07809212446212768,-0.2117781258523464,-0.16332838505785913
1783695976372957200,2.302957275390625,-0.03496376135349274,0.07437222715616226,-0.1980832529010251
1783695976382921200,2.312921142578125,-0.12346446710526943,0.33638504099100824,-0.20434308048076927
1783695976392885200,2.32288525390625,-0.18734160373210906,0.5609028214290738,-0.26009916223324836
1783695976402848300,2.33284814453125,-0.2640320447027683,0.7391793674349785,-0.3003536869386211
1783695976412812300,2.342812255859375,-0.3275497003674507,0.8951020428135991,-0.3380616324337199
1783695976422776300,2.3527763671875,-0.38451545017063615,0.9858107800036668,-0.41539530321136114
1783695976432740000,2.362739990234375,-0.3566951308310032,0.9780494983524084,-0.4942699563533067
1783695976442704100,2.3727041015625,-0.267251591271162,0.8978273761242628,-0.5612895922569557
1783695976452668200,2.382668212890625,-0.16323533647954463,0.8304191427618265,-0.6036378378385677
1783695976462632200,2.392632080078125,-0.0881254426985979,0.8219146415278316,-0.6129337451785802
1783695976472596200,2.40259619140625,-0.061228083422780036,0.8220408982560038,-0.6386436482354998
1783695976482560300,2.412560302734375,-0.08656827638447284,0.8914473196983337,-0.6657140259906649
1783695976492523300,2.422523193359375,-0.06493804385662079,0.9015127866387367,-0.6874636471144855
1783695976502487300,2.4324873046875,-0.03699672848582267,0.8808318176597356,-0.6658075494930148
1783695976512451000,2.442451171875,-0.03429565283358097,0.810018744289875,-0.6500349569521844
1783695976522415000,2.4524150390625,-0.062112465041875835,0.783289435057342,-0.6872281578581779
1783695976532379100,2.462379150390625,0.0004576806396245956,0.7201780221059918,-0.7873695439778268
1783695976542343200,2.47234326171875,0.08478548462092876,0.588955780480802,-0.8797842813681811
1783695976552307200,2.48230712890625,0.12847440422177314,0.4609364265501499,-0.921474720628187
1783695976562271200,2.492271240234375,0.12059680271446704,0.4374421537160873,-0.8877402818739414
1783695976572235000,2.502235107421875,0.09920622416138648,0.46859044843465086,-0.8002247877672314
1783695976582199000,2.512198974609375,0.10193652590811252,0.4863201663926244,-0.7381051623322069
1783695976592162000,2.522162109375,0.1678892997652292,0.41092970210462804,-0.6884354147560894
1783695976602126000,2.5321259765625,0.3314870398163795,0.286962838435173,-0.7094559178877622
1783695976612090000,2.542090087890625,0.5344271946966648,0.19148937106132508,-0.782290267952159
1783695976622054100,2.55205419921875,0.716197720298171,0.08735036667287349,-0.8997565175559371
1783695976632018200,2.56201806640625,0.7905249392688274,0.018054127606749532,-1.1044695273276417
1783695976641982000,2.57198193359375,0.6726935096144676,0.06134381875693798,-1.278609923376888
1783695976651946000,2.581946044921875,0.3443517820864916,0.16520137585550546,-1.3729872660771012
1783695976661910000,2.591909912109375,-0.1413999367684126,0.2980477115511894,-1.3906098703987895
1783695976671874000,2.6018740234375,-0.5317325487852096,0.4174859918802976,-1.2760749980717896
1783695976681838000,2.611838134765625,-0.7765063507884741,0.4837871407836675,-1.0072291233465074
1783695976691801000,2.621801025390625,-0.7814706951975822,0.5147147784888744,-0.7181701894149184
1783695976701765000,2.63176513671875,-0.6124748954951763,0.4511024302780628,-0.43775976829789576
1783695976711729200,2.641729248046875,-0.38341245736479757,0.3285650148898363,-0.21507961508315054
1783695976721693000,2.65169287109375,-0.22199206135272978,0.13793927492052316,-0.11916930892830714
1783695976731657000,2.661656982421875,-0.1726139901995659,-0.08534487206935883,-0.13154426752063444
1783695976741621000,2.67162109375,-0.13714169480204583,-0.26697248206883667,-0.21743041599299756
1783695976751585300,2.681585205078125,-0.1130260751992464,-0.45947103017270563,-0.2205556353414431
1783695976761549300,2.69154931640625,-0.04962357034683227,-0.6431476816564798,-0.20184443206544964
1783695976771513300,2.701513427734375,0.029968437284231184,-0.7739417609974741,-0.1546075011268258
1783695976781477000,2.71147705078125,0.0220335526317358,-0.8165908161565661,-0.13544930300200358
1783695976791440100,2.721440185546875,-0.011616203513741492,-0.7511284561648964,-0.12336535411234945
1783695976801404200,2.731404052734375,-0.060519058370590205,-0.6367734704494475,-0.09675731490561738
1783695976811368200,2.7413681640625,-0.045134442234039306,-0.5556128983274102,-0.04095229771118611
1783695976821332200,2.751332275390625,0.07411036134958267,-0.45946138556152577,0.007951433928497136
1783695976831296300,2.761296142578125,0.2041922007679939,-0.39329555347561834,0.06139151208987459
1783695976841260300,2.77126025390625,0.3459761684179306,-0.34810850427150725,0.03043273032773286
1783695976851224000,2.78122412109375,0.3554460075527429,-0.29624153891205784,0.04935649864217266
1783695976861188000,2.79118798828125,0.3012321868062019,-0.24179566297531127,0.0611569909479469
1783695976871152000,2.801152099609375,0.2286801608145237,-0.18007950377464294,0.09517316925302147
1783695976881116200,2.8111162109375,0.188895262914896,-0.14592004454135893,0.2006996824771166
1783695976891079200,2.8210791015625,0.15223404999375342,-0.11732523369789123,0.25336696790140123
1783695976901043200,2.831043212890625,0.18609189593195913,-0.027955051635205744,0.3246239491138607
1783695976911007200,2.84100732421875,0.2903431285232305,0.07231061845123768,0.4610026967193931
1783695976920971300,2.85097119140625,0.31370529941022396,0.14097791196405887,0.6171080351885407
1783695976930935000,2.86093505859375,0.18085341075658798,0.24381752419173716,0.7013118474639952
1783695976940899000,2.870899169921875,-0.03785071496665478,0.3012833324715495,0.7326565415374934
1783695976950863000,2.880863037109375,-0.2768646382689476,0.37771336894035334,0.7549788479827344
1783695976960827100,2.8908271484375,-0.4142027324259281,0.4997217920184135,0.7979056971698999
1783695976970791200,2.900791259765625,-0.4789122282236814,0.48146805018633604,0.95956881589666
1783695976980755200,2.910755126953125,-0.4245288961291313,0.18667261842936275,1.3056684645637868
1783695976990718200,2.92071826171875,-0.16947276956439017,-0.061276306478679175,1.4468860305026172
1783695977000682200,2.93068212890625,0.04193243132233619,-0.04049684556126594,1.1615340613301843
1783695977010646000,2.94064599609375,-0.02814531351029873,0.007853636109828949,0.874321266721934
1783695977020610000,2.950610107421875,-0.22602760047912596,-0.11329115587621927,0.7312661100924015
1783695977030574000,2.960573974609375,-0.2914168952345848,-0.23511896169036625,0.6362316186577082
1783695977040538000,2.9705380859375,-0.31473405793607234,-0.11346534339934587,0.452182078740932
1783695977050502100,2.980502197265625,-0.46594811723232266,0.15045184275209902,0.34947022107876835
1783695977060466200,2.990466064453125,-0.6388152054101228,0.35410043816268444,0.47872134529408067
1783695977070430000,3.000429931640625,-0.7202700843036174,0.3704305184558034,0.7463454596720636
1783695977080393000,3.01039306640625,-0.6577098754942416,0.3017868980795145,1.0117827680628746
1783695977090357000,3.02035693359375,-0.5691255831122398,0.19903671770095824,1.1869342408508061
1783695977100321000,3.030321044921875,-0.4326017279475927,0.07755904049873352,1.228771248974651
1783695977110285000,3.04028515625,-0.31426234877109527,-0.018120178580284117,1.1719958341117949
1783695977120249000,3.0502490234375,-0.2324228544741869,-0.0983145360186696,1.0322944448895752
1783695977130213000,3.060213134765625,-0.1583171692997217,-0.11656389393657446,0.7995613554224371
1783695977140177200,3.07017724609375,-0.14767828638553618,-0.05147942734658718,0.5923350476555526
1783695977150141200,3.08014111328125,-0.2405132219493389,0.0938137174680829,0.4855002283118665
1783695977160105200,3.090105224609375,-0.43962358940839763,0.35285452975481746,0.46772542910315096
1783695977170068500,3.100068359375,-0.5945172140002251,0.6943871627673507,0.5089585165170952
1783695977180031500,3.110031494140625,-0.6319535029470921,1.0197478286579251,0.6156985337167978
1783695977189995500,3.11999560546875,-0.6131482647120953,1.281460782763362,0.8235826478052883
1783695977199959600,3.12995947265625,-0.597656096547842,1.4735586411118506,1.0358042065761983
1783695977209923600,3.139923583984375,-0.5581769035965204,1.5654440208658575,1.2418202617704868
1783695977219887600,3.1498876953125,-0.414249494177103,1.5922443495079874,1.4095987946376203
1783695977229851400,3.159851318359375,-0.07142623683214187,1.5662240653276442,1.5068345955088733
1783695977239815400,3.1698154296875,0.41263562923967834,1.4150798563972116,1.5081160136215388
1783695977249779500,3.179779541015625,0.8699410058110952,1.121310260556638,1.5206392489776015
1783695977259743500,3.189743408203125,1.177288460627198,0.887826791113615,1.5356404187545178
1783695977269706500,3.19970654296875,1.235745325770974,0.6773588710770011,1.6206763710051775
1783695977279670500,3.20967041015625,1.2102987498253583,0.5177066537812351,1.7334936257593332
1783695977289634600,3.219634521484375,1.0330050773769617,0.37858898273110386,1.818998949087411
1783695977299598300,3.229598388671875,0.7693459576398134,0.3339528454080224,1.8296249725200235
1783695977309562400,3.239562255859375,0.4232838645040989,0.3810203015312552,1.7421043638467788
1783695977319526400,3.2495263671875,0.1468675545245409,0.4929419226199388,1.671606640036404
1783695977329490700,3.25949072265625,-0.05077040229439735,0.6422519018605352,1.5832120250076054
1783695977339454700,3.269454833984375,-0.19928455498218536,0.7694125931352377,1.4086014541633427
1783695977349418800,3.279418701171875,-0.2976034749150276,0.9501023377627134,1.1978737872119993
1783695977359382500,3.289382568359375,-0.40192660369873046,1.1542454386919736,1.0512184141334147
1783695977369346600,3.2993466796875,-0.5449053340911865,1.2646394118219613,0.9551524607591331
1783695977379309600,3.3093095703125,-0.6816694277524947,1.2826488235041498,0.9000527240235358
1783695977389273600,3.319273681640625,-0.8316594982117413,1.1534785459727048,0.831698515047878
1783695977399237600,3.329237548828125,-0.9454156412512064,0.9893310630843043,0.6808925981611013
1783695977409201700,3.33920166015625,-0.9421154306620358,0.8465013857737184,0.5630549579616636
1783695977419165700,3.349165771484375,-0.8022937029957771,0.6660726301699876,0.6045562313251197
1783695977429129700,3.359129638671875,-0.5831833345592021,0.4840092591017484,0.7502407866101711
1783695977439093500,3.369093505859375,-0.2971680061072111,0.3649509180009365,0.8303280304122715
1783695977449057500,3.3790576171875,-0.009762684601545333,0.18189269067645072,0.8191318058762699
1783695977459021600,3.389021484375,0.26218670909702774,-0.03363601988106966,0.7808780630666762
1783695977468985600,3.398985595703125,0.46027007159590716,-0.22302432700991628,0.792037243527919
1783695977478948600,3.408948486328125,0.4947679690033197,-0.3527013850197196,0.7808893151130527
1783695977488912600,3.41891259765625,0.3340098362922668,-0.4091714602604508,0.8321187862865627
1783695977498876700,3.428876708984375,0.03178688488304615,-0.3666609367892146,0.8716903336964548
1783695977508840400,3.43884033203125,-0.2223094567388296,-0.23129122009575365,0.8792660296477377
1783695977518804500,3.448804443359375,-0.40894554255008697,-0.1980880386739969,0.9153162710636854
1783695977528768500,3.4587685546875,-0.46970133228600025,-0.2733563378870487,0.7654394517205655
1783695977538732500,3.468732666015625,-0.44010698901116846,-0.4227496114969253,0.513546026970446
1783695977548696600,3.478696533203125,-0.4412824625313282,-0.49020928278565407,0.38168132272325456
1783695977558660600,3.48866064453125,-0.5892717145621776,-0.4161921526774764,0.3409410603275522
1783695977568624400,3.498624267578125,-0.8260252917170524,-0.2905927193701267,0.3157042546750977
1783695977578587600,3.508587646484375,-1.1026444307923315,-0.21025018563270567,0.3232579579902813
1783695977588551400,3.518551513671875,-1.3077473166644573,-0.13196195407658814,0.28019392882212996
1783695977598515500,3.528515380859375,-1.4501637369990348,-0.10931611476540565,0.2588095242815092
1783695977608479500,3.5384794921875,-1.5921283219128846,-0.10298398913443088,0.3343346112672239
1783695977618443500,3.548443603515625,-1.641850676459074,-0.08206102809309959,0.3741669650377705
1783695977628407600,3.558407470703125,-1.590879783156514,-0.0488555085837841,0.357138344553858
1783695977638371600,3.56837158203125,-1.4628969618439673,-0.06724836662560701,0.3718077981583774
1783695977648335400,3.57833544921875,-1.3003238886654376,-0.1189689092516899,0.34507746601253747
1783695977658299400,3.58829931640625,-1.1757453228384256,-0.15851239961087701,0.3159975750658661
1783695977668263400,3.598263427734375,-1.075377653682232,-0.23586831875294445,0.3351086278470233
1783695977678227700,3.608227783203125,-0.9488602287471294,-0.3459475268453359,0.37397710502147674
1783695977688190500,3.6181904296875,-0.8358844224303961,-0.49868485018610953,0.4165643469907343
1783695977698154500,3.628154541015625,-0.6775947256594896,-0.5799535588577389,0.4640096599830314
1783695977708118500,3.638118408203125,-0.496869325196743,-0.5621335322678089,0.4131181155269965
1783695977718082600,3.64808251953125,-0.3930716815918684,-0.4783043254584074,0.3580404444927349
1783695977728046600,3.658046630859375,-0.40650457913875576,-0.35795389872044325,0.2358072362154722
1783695977738010600,3.6680107421875,-0.5207248325586319,-0.2694637143626809,0.1357725253406912
1783695977747974700,3.677974609375,-0.5738005891859531,-0.1992079826146364,0.03116736474521458
1783695977757938700,3.687938720703125,-0.5473141487985849,-0.15257161138504743,-0.038426615158468486
1783695977767902700,3.69790283203125,-0.4632464570581913,-0.17466215490102768,-0.11747326386645436
1783695977777866500,3.707866455078125,-0.354567471152544,-0.1491784618154168,-0.19312782245073468
1783695977787830500,3.71783056640625,-0.2476806293606758,-0.06529986290633678,-0.24462160711623726
1783695977797793500,3.72779345703125,-0.18018705580234526,0.04037263465970754,-0.24458277294319122
1783695977807757600,3.737757568359375,-0.12848726370334623,0.08632920693159103,-0.22401114609017966
1783695977817721600,3.7477216796875,-0.08236322591006755,0.058707332773506635,-0.1365907829210162
1783695977827685600,3.757685546875,-0.027962942680716512,0.030774200709164142,0.06449888525437564
1783695977837649700,3.767649658203125,0.05055296015143394,0.07997253138124942,0.24482330370079725
1783695977847613700,3.77761376953125,0.16096972963511944,0.17082506095618008,0.3089273809513077
1783695977857577500,3.787577392578125,0.2553302673310041,0.29741555112749335,0.3679490403709933
1783695977867541500,3.79754150390625,0.2861234650015831,0.43626317306458945,0.377573229817301
1783695977877505500,3.807505615234375,0.2487660865098238,0.5568260735094547,0.3251379995832219
1783695977887469600,3.817469482421875,0.12206336813569069,0.6774103090032935,0.27672256291713565
1783695977897432600,3.8274326171875,-0.07748305265307426,0.8228992686510086,0.190723428190127
1783695977907396600,3.837396728515625,-0.29837738189697266,0.911779036848247,0.08956552197169512
1783695977917360600,3.847360595703125,-0.5764478888243436,1.016728773097694,-0.01849938715621829
1783695977927324400,3.857324462890625,-0.8463876962661743,1.1546876295015216,-0.1377627858424559
1783695977937288400,3.867288330078125,-0.986217022716999,1.3070350767418741,-0.2242713679289445
1783695977947252500,3.87725244140625,-0.9572212298572063,1.3280588678091763,-0.27114914669897405
1783695977957216500,3.887216552734375,-0.7590016737580298,1.2587556144803762,-0.28093477378468956
1783695977967180500,3.8971806640625,-0.4688566981554031,1.1319658023446797,-0.29599191153254356
1783695977977144600,3.90714453125,-0.16761048282384872,0.9628384852170944,-0.24812128580026327
1783695977987108400,3.9171083984375,0.10787351474165915,0.8452186524868011,-0.15900986427161842
1783695977997072400,3.927072265625,0.33643326404690743,0.7553180168092251,-0.0597753821301274
1783695978007035400,3.937035400390625,0.5513005880862474,0.6733052117720246,0.034064127366337925
1783695978016999400,3.94699951171875,0.7677817770630121,0.5387234305858611,0.1333320003207773
1783695978026963500,3.95696337890625,0.988428853547573,0.4386234724551439,0.23535072461962697
1783695978036927500,3.966927490234375,1.1418991673380137,0.36167934898436066,0.19117723637223244
1783695978046891500,3.9768916015625,1.2141285372465849,0.21057517980337143,0.2190592775701545
1783695978056855600,3.98685546875,1.3135937046051025,0.19697364769130943,0.17309086873000487
1783695978066819600,3.996819580078125,1.3281570674866436,0.22236790892779826,0.0939784430431202
1783695978076783600,4.00678369140625,1.210616145211458,0.2561719788521528,0.08982806363170966
1783695978086747600,4.01674755859375,1.0907295365929603,0.3995800405725837,-0.006762078013457357
1783695978096711700,4.026711669921875,0.9446645306229591,0.45688452081084246,0.014834343576338142
1783695978106675700,4.03667578125,0.7332394559919834,0.4785732055276632,0.04490580284362659
1783695978116638700,4.046638671875,0.4947551095217466,0.5070715702593326,0.019794559799600393
1783695978126602800,4.056602783203125,0.2576379597514868,0.5093021057903766,0.008004844616167246
1783695978136566500,4.06656640625,0.10231061991751193,0.4752767943307757,-0.04488490618607029
1783695978146530600,4.076530517578125,0.012976970472931861,0.39872926896214483,-0.125561421118211
1783695978156494600,4.08649462890625,-0.10295943921506404,0.3040902065858245,-0.1699674760124646
1783695978166458600,4.096458740234375,-0.18915771324336528,0.23994535893350838,-0.19199611500706523
1783695978176423000,4.1064228515625,-0.21293080301880835,0.19882892016917467,-0.1327220334625803
1783695978186387000,4.116386962890625,-0.1900584614753723,0.15874211671352387,-0.08960068461662157
1783695978196350700,4.126350830078125,-0.058007367810606954,0.1288636958003044,-0.08987102599060162
1783695978206314800,4.136314697265625,0.14176818555891513,0.04493161313831806,-0.05796455158218741
1783695978216278800,4.14627880859375,0.304913505667448,-0.08016162421256304,-0.06874518105462193
1783695978226241800,4.15624169921875,0.4535293651640415,-0.21444588375687598,-0.12356924265399574
1783695978236205800,4.166205810546875,0.45385962003171443,-0.3631786476314068,-0.18109558548200874
1783695978246169900,4.176169921875,0.38756431634724137,-0.45609980017393825,-0.30470808275584127
1783695978256134000,4.1861337890625,0.30841946796178815,-0.506477988280356,-0.3607227789118886
1783695978266097700,4.19609765625,0.1989081228852272,-0.5459697484523057,-0.3430674413643777
1783695978276061700,4.206061767578125,0.136110013666749,-0.499461679777503,-0.34679954056479034
1783695978286025700,4.216025634765625,0.07454699920117855,-0.46553719834387297,-0.4127103019110858
1783695978295989800,4.22598974609375,0.0486333902657032,-0.4633239062085747,-0.4593490112282336
1783695978305953800,4.235953857421875,0.08674655556082725,-0.46678632162213324,-0.44820875466316934
1783695978315917800,4.245917724609375,0.14592004454135893,-0.5284273697599768,-0.4120434355001896
1783695978325880800,4.255880859375,0.25691139904260635,-0.5519555448636412,-0.3943036345396191
1783695978335844900,4.265844970703125,0.37948271670043465,-0.5555249277830123,-0.38740134433787315
1783695978345808600,4.27580859375,0.49225627844333647,-0.5581760268136858,-0.3668628891021013
1783695978355772700,4.285772705078125,0.5301268671542406,-0.5894292432114482,-0.3108784054212272
1783695978365736700,4.29573681640625,0.45275896531343457,-0.6168342597484588,-0.2976141241732053
1783695978375700700,4.30570068359375,0.2371937221378088,-0.6063242639109492,-0.3519323003433645
1783695978385664800,4.315664794921875,-0.02720364874601364,-0.5182780239284038,-0.40491855205632743
1783695978395628800,4.32562890625,-0.24977964746654033,-0.451305259373784,-0.42447201484274116
1783695978405592600,4.335592529296875,-0.38007483737468717,-0.3924851138755679,-0.4362855675594881
1783695978415556600,4.345556640625,-0.3997241252183914,-0.3353381622865796,-0.4916684320854023
1783695978425520600,4.355520751953125,-0.31207506785988803,-0.3167424751490354,-0.5406186697479337
1783695978435483600,4.365483642578125,-0.19546762704253196,-0.28844284785985946,-0.5346205983769148
1783695978445447700,4.37544775390625,-0.14704232656955718,-0.3254650030478835,-0.48400341388285156
1783695978455411700,4.38541162109375,-0.19673954667448995,-0.4296256347462535,-0.2643568014114164
1783695978465375700,4.395375732421875,-0.27250118236243726,-0.5636895295381545,-0.016284250123705712
1783695978475339800,4.40533984375,-0.26687925082743164,-0.59444268745929,0.005562913090456277
1783695978485303600,4.415303466796875,-0.31972762843966485,-0.5994616846650839,-0.17393862639944999
1783695978495267800,4.425267822265625,-0.4336468530863523,-0.6945613502904773,-0.2172800112042576
1783695978505232000,4.43523193359375,-0.5023790285289287,-0.7548360785111784,-0.29851205939361825
1783695978515196000,4.44519580078125,-0.5336094485729932,-0.8189400096312165,-0.329852095558308
1783695978525160000,4.455159912109375,-0.4877010993570089,-0.8014908621802925,-0.2811478868124075
1783695978535123000,4.465123046875,-0.36993221354484557,-0.6436448175236582,-0.17655690087275577
1783695978545087000,4.4750869140625,-0.14784896677732468,-0.427037956340611,0.020231229617237112
1783695978555050800,4.48505078125,0.07445990543961524,-0.25300679281949995,0.26727953872401267
1783695978565014800,4.495014892578125,0.2725134573221207,-0.04495528627485037,0.45032976540513336
1783695978574978800,4.504978759765625,0.46406361865997314,0.17352847469598054,0.5050247572647407
1783695978584942800,4.51494287109375,0.6005600012958049,0.38426381349712607,0.5315328980272636
1783695978594907000,4.524906982421875,0.6465618740141391,0.5682514306262135,0.5411155498867855
1783695978604871000,4.534870849609375,0.5782727661639452,0.6207531867578625,0.5122415567757561
1783695978614834700,4.544834716796875,0.44077392848730085,0.5365846649914979,0.3712694169653579
1783695978624798700,4.554798828125,0.221939454382658,0.4327089877143502,0.2014015654024668
1783695978634762800,4.5647626953125,-0.059547582989931104,0.3565001927807927,0.09920819692276418
1783695978644725800,4.574725830078125,-0.4553372913688421,0.37856852446496486,-0.011423850146261974
1783695978654689800,4.584689697265625,-0.7456266438782214,0.490634522460401,-0.2047686854816973
1783695978664653800,4.59465380859375,-0.8619213654845953,0.5769628526091576,-0.22686174974832682
1783695978674617900,4.604617919921875,-0.7788596359163522,0.6132385733440519,-0.05252990451389923
1783695978684581600,4.61458154296875,-0.5936994678765535,0.6115472592562436,0.17274059398761019
1783695978694545700,4.624545654296875,-0.3740694594800472,0.6189318165495992,0.35779863509349524
1783695978704509700,4.634509765625,-0.20176117422878742,0.6266752702832221,0.5109551336944103
1783695978714473700,4.6444736328125,-0.05164484704136848,0.6257739375293254,0.5939752891432494
1783695978724437800,4.654437744140625,0.061841831406950945,0.5674012435376644,0.6617101971767843
1783695978734400800,4.66440087890625,0.1901981622070074,0.44490825181305405,0.6734618636384606
1783695978744364800,4.67436474609375,0.26994799074828624,0.33317280094623564,0.7176354980163275
1783695978754328800,4.684328857421875,0.34899697754383086,0.24759470464289188,0.8364963437836617
1783695978764292600,4.694292724609375,0.4504968656003475,0.18695348119735716,0.9680238519657403
1783695978774256600,4.704256591796875,0.5494359632581473,0.16165303572416304,1.0536397229962051
1783695978784220700,4.714220703125,0.5931605386942624,0.13919219759106635,1.148754147799313
1783695978794184700,4.724184814453125,0.5106558584868908,0.15938304496556518,1.1944460047204046
1783695978804148700,4.734148681640625,0.37836744893491264,0.20081834042072294,1.1454798023037611
1783695978814112800,4.74411279296875,0.20671090559065342,0.2480073770970106,1.0224906976252794
1783695978824076500,4.75407666015625,0.034765608432888985,0.33187048617601395,0.8346032965786755
1783695978834040600,4.76404052734375,-0.10249123718142508,0.41930619304478167,0.5488029991168528
1783695978844003600,4.774003662109375,-0.18296353477835653,0.5121060572952032,0.3317540932547301
1783695978853967600,4.783967529296875,-0.26459669284820553,0.6062605510249733,0.19386099556349218
1783695978863931600,4.793931640625,-0.37333062381148335,0.7093488773167133,0.12365200730031356
1783695978873895700,4.803895751953125,-0.5900514667630196,0.7862994305282831,0.14602463742699473
1783695978883860000,4.81385986328125,-0.7795920418441296,0.8358958206072449,0.18305981649337336
1783695978893823700,4.82382373046875,-0.7839502370536326,0.875579303959012,0.1844056416117586
1783695978903787800,4.833787841796875,-0.6020768355995416,0.835287625581026,0.2361451081340201
1783695978913751800,4.843751708984375,-0.2779793215125799,0.7048559498116374,0.30248092649197206
1783695978923715800,4.8537158203125,0.05422375761866569,0.5788341994389892,0.3571248640177771
1783695978933679900,4.863679931640625,0.25500176602900027,0.4654667634561658,0.38005291780382394
1783695978943643000,4.873642822265625,0.3160819654136896,0.37215047411620616,0.349533166779764
1783695978953607000,4.88360693359375,0.23400106357634065,0.2535164959073067,0.2883564664843492
1783695978963571000,4.893571044921875,-0.00919862097799778,0.13765548954308032,0.19327303960770367
1783695978973534700,4.90353466796875,-0.21367022320926188,0.09665010993778705,0.10523328416487202
1783695978983498800,4.913498779296875,-0.21995967874228953,0.04539426221400499,0.07003151280442252
1783695978993462800,4.923462890625,-0.14829028080403803,-0.03079728932380676,0.08260697153806686
1783695979003426800,4.9334267578125,-0.04703121576607227,-0.10108546203672886,0.11807934000082314
1783695979013390800,4.943390869140625,0.01512508841753006,-0.16516893489062784,0.1339090512900613
1783695979023355000,4.95335498046875,0.009816460615396498,-0.17911504265666006,0.098478951066453
1783695979033318700,4.963318603515625,-0.06965455098450184,-0.23453677788823843,0.034698717209137975
1783695979043282000,4.973281982421875,-0.1607277375727892,-0.2846455014035106,-0.0290146436907351
1783695979053245700,4.98324560546875,-0.2256388934224844,-0.26012773074060674,-0.1622386901250109
1783695979063209700,4.993209716796875,-0.2377291441887617,-0.2611170340389013,-0.31801253161747006
1783695979073173800,5.003173828125,-0.22670739943683146,-0.26023294468075037,-0.4377739429537207
1783695979083137800,5.0131376953125,-0.2178741046398878,-0.23393355129808185,-0.5014532189209013
1783695979093101800,5.023101806640625,-0.24116613290011882,-0.21819968333244322,-0.5387213847592472
1783695979103065900,5.03306591796875,-0.2174304525256157,-0.1944283471226692,-0.5809807830136269
1783695979113029600,5.043029541015625,-0.20435995855033395,-0.21638123573362825,-0.6108459791190922
1783695979122993700,5.05299365234375,-0.21495734041035175,-0.3067676091015339,-0.6174966691799462
1783695979132957700,5.062957763671875,-0.23237317011356354,-0.34156624302119015,-0.6636182227551937
1783695979142920700,5.072920654296875,-0.23963468554913997,-0.329309695777297,-0.6331076414182781
1783695979152884700,5.082884765625,-0.19715864886939524,-0.3167684863731265,-0.5767332816369831
1783695979162848800,5.092848876953125,-0.11019757377505301,-0.3032379736706614,-0.5195328828277066
1783695979172813000,5.10281298828125,-0.021354922717809675,-0.32253947099000213,-0.46953762962426987
1783695979182776800,5.11277685546875,0.08931845187544822,-0.33068858291506764,-0.4174939559910446
1783695979192740900,5.122740966796875,0.17591361626684665,-0.340197585016489,-0.40817331606857477
1783695979202705000,5.132704833984375,0.2325175470203161,-0.4307178138971329,-0.31793946638125925
1783695979212669000,5.1426689453125,0.1716068589836359,-0.6108142688065767,-0.09620647608982398
1783695979222633000,5.152633056640625,0.08793547308444977,-0.8151818261414766,0.12898545901644975
1783695979232596000,5.162595947265625,0.12459317887425422,-0.8330588436156511,0.07443394901445136
1783695979242560000,5.17256005859375,0.08050853795409202,-0.7793845365732908,-0.07389967774096876
1783695979252523800,5.182523681640625,-0.01985971572399139,-0.7633037548661231,-0.14467141445344314
1783695979262487800,5.19248779296875,-0.12276187179386615,-0.6811670311883091,-0.2384389912248589
1783695979272451800,5.202451904296875,-0.2586906836748123,-0.5925041206121444,-0.3808285418188199
1783695979282415900,5.212415771484375,-0.40730128247439856,-0.45910482720881696,-0.4954753866203129
1783695979292380000,5.2223798828125,-0.5354050998181105,-0.2632861947715282,-0.5810089861948042
1783695979302344000,5.232343994140625,-0.6104729080229997,-0.08301496781706809,-0.5043027631331235
1783695979312307700,5.2423076171875,-0.6259510476619005,0.07636486227810382,-0.3131229694776237
1783695979322271700,5.252271728515625,-0.5167518372744322,0.20290420678406954,-0.10876127562792971
1783695979332235800,5.26223583984375,-0.2834954545855522,0.2699091200426221,0.03444567402983084
1783695979342198800,5.27219873046875,-0.04991641581356525,0.27186609932929273,0.12095001833261922
1783695979352162800,5.282162841796875,0.060357730329036706,0.2758960854977369,0.1703615350976586
1783695979362126800,5.292126953125,0.06193009421229362,0.23150164797604084,0.08243793511409311
1783695979372091000,5.3020908203125,-0.0032727380603551864,0.15559768120795486,-0.02385338847003877
1783695979382055000,5.312054931640625,-0.07420096224248408,0.10755874970406293,-0.1512941387951374
1783695979392018700,5.322018798828125,-0.1865992609322071,0.11455226185321807,-0.27519970073141153
1783695979401982700,5.331982666015625,-0.29150983421504495,0.2405544307425618,-0.36998503971062596
1783695979411946800,5.34194677734375,-0.40194297031164167,0.3698442430004477,-0.33296350557710974
1783695979421911000,5.3519111328125,-0.4556950187653303,0.553425617416203,-0.2687658500253223
1783695979431873800,5.361873779296875,-0.4925573072165251,0.7045061134606599,-0.21181317889941856
1783695979441837800,5.371837890625,-0.45839726346135135,0.7553738386496901,-0.13437652267133815
1783695979451801900,5.3818017578125,-0.3764005327761173,0.6981348248630762,-0.09159998694136738
1783695979461766000,5.391765869140625,-0.2955640780419111,0.5660185570076107,-0.06561932238535956
1783695979471730000,5.40172998046875,-0.19829086776971816,0.46497518054693937,-0.05495864776447415
1783695979481694000,5.41169384765625,-0.15599720191955566,0.35698534594923254,-0.048112654327228666
1783695979491658000,5.421657958984375,-0.15132979463040827,0.23693565572351216,-0.043446269951388235
1783695979501622000,5.4316220703125,-0.17629706262648104,0.1078454576909542,-0.03315654753474519
1783695979511586000,5.4415859375,-0.1606798067778349,0.022025369325280188,-0.029948654871527102
1783695979521549800,5.4515498046875,-0.08040566210150718,-0.06700958943367004,-0.07731195213617756
1783695979531513000,5.46151318359375,0.05393500380516052,-0.14903817656189203,-0.07646185637917369
1783695979541476900,5.471476806640625,0.23963000937402246,-0.21753829681426284,-0.04528147688875906
1783695979551441000,5.48144091796875,0.3782406076848507,-0.21488193708658218,-0.07176348769618197
1783695979561405000,5.491405029296875,0.4837783729553222,-0.1676420470058918,-0.11855105829895474
1783695979571369000,5.501368896484375,0.5132493821114301,-0.07294803957194089,-0.21303247329499572
1783695979581333000,5.5113330078125,0.4522708895355463,0.10176906038671732,-0.25773117272658275
1783695979591297000,5.521297119140625,0.2808113300681114,0.3146922646209597,-0.23549097334053365
1783695979601260800,5.5312607421875,0.02662672564089298,0.5499126408591866,-0.20511506950026376
1783695979611224800,5.541224853515625,-0.21359891153872013,0.7312839380100369,-0.16247465430535374
1783695979621187800,5.551187744140625,-0.40572190432846544,0.8310042491734028,-0.09940934551805257
1783695979631151900,5.56115185546875,-0.4684603923141956,0.8874091502234339,-0.030562704249797387
1783695979641116000,5.571115966796875,-0.40365503492653365,0.89353377058357,0.030727831683633848
1783695979651080000,5.581079833984375,-0.2350356673210859,0.796887167777121,0.0927774332229048
1783695979661044000,5.5910439453125,-0.05286591326892376,0.6639259735301136,0.1126622833881527
1783695979671007700,5.6010078125,0.10682079081833362,0.5332993597105146,0.09110215695444494
1783695979680971800,5.6109716796875,0.19537118093073366,0.40023236700147385,0.08050415403991937
1783695979690935800,5.620935791015625,0.29861352874040603,0.28455665407627817,0.03959451729352586
1783695979700899800,5.63089990234375,0.42009938924908635,0.1178670854896307,0.02837861537609715
1783695979710864000,5.64086376953125,0.5122019188851118,-0.05230623355954885,0.046756111452006734
1783695979720827000,5.650826904296875,0.5190279655128717,-0.18132511992156505,0.002220484494487755
1783695979730791000,5.660791015625,0.4622124378353357,-0.2909828877314925,-0.0967024611795321
1783695979740755000,5.6707548828125,0.35376667616367335,-0.39244215151667594,-0.2057362701385282
1783695979750718700,5.68071875,0.20163257941305637,-0.4446571996614337,-0.25717536547472697
1783695979760682800,5.690682861328125,0.03941314197778702,-0.4381389038085937,-0.3335689606569707
1783695979770646800,5.700646728515625,-0.06395604708194733,-0.4108826480925083,-0.4429960615161806
1783695979780610800,5.71061083984375,-0.029517186385393142,-0.42941082295179367,-0.5059658375071361
1783695979790574800,5.720574951171875,0.09198737882375717,-0.4919871061131358,-0.534521887242794
1783695979800539000,5.730538818359375,0.22720015138983726,-0.5079509834423661,-0.52223797706794
1783695979810502000,5.740501953125,0.31377135038375853,-0.4259831865906715,-0.5118402824984863
1783695979820466000,5.7504658203125,0.3226654354572296,-0.3352829249680042,-0.44632706910241393
1783695979830429700,5.7604296875,0.3371487188398838,-0.25152415304630993,-0.3470058767918497
1783695979840393700,5.770393798828125,0.29857553481757637,-0.19185674306899309,-0.2598804962475784
1783695979850357800,5.780357666015625,0.23766601582467556,-0.18058891460150478,-0.1841262949474156
1783695979860322000,5.790322021484375,0.17645371449291705,-0.1409700209185481,-0.15557475699009374
1783695979870286000,5.8002861328125,0.1435387023627758,-0.10951777481734752,-0.07695400554398074
1783695979880249900,5.810249755859375,0.055715457481145855,-0.16034399895220994,-0.0010677022967487573
1783695979890214000,5.8202138671875,-0.07403963420093058,-0.2317681899577379,0.0013420987913385033
1783695979900178000,5.830177978515625,-0.15399813705682755,-0.3349912485450506,-0.030134441500902175
1783695979910141000,5.840140869140625,-0.13804361207783222,-0.41846565056741236,-0.07501229689167813
1783695979920105000,5.85010498046875,-0.10786825404465197,-0.429244234213233,-0.14352808963721617
1783695979930069000,5.860069091796875,-0.07420271580815314,-0.4398676272973418,-0.18597679991861804
1783695979940033000,5.870032958984375,-0.16346154645085334,-0.40817455817759035,-0.21539774112161247
1783695979949997000,5.8799970703125,-0.33491993687450883,-0.3364399860486388,-0.24986619323883205
1783695979959960800,5.8899609375,-0.5346206714421511,-0.283529356855154,-0.3101183808341622
1783695979969924900,5.8999248046875,-0.7224532735615968,-0.21934330040961503,-0.36887700540348883
1783695979979889000,5.909888916015625,-0.9007967473238706,-0.16119681638926267,-0.39260702322218566
1783695979989853000,5.91985302734375,-1.0731757597237825,-0.19441431859731673,-0.2895308988248929
1783695979999816000,5.92981591796875,-1.2242132934093475,-0.3600187222957611,-0.10598576476629823
1783695980009780000,5.939780029296875,-1.2318109089314937,-0.5347974893137812,-0.047378440034855154
1783695980019744000,5.949743896484375,-1.1164145974695683,-0.6448673450559377,-0.17458607572382315
1783695980029708000,5.9597080078125,-0.9494026650607585,-0.7729980504065752,-0.23790461035352198
1783695980039671800,5.969671875,-0.7783768208354711,-0.9188990979865193,-0.2672783331476152
1783695980049635800,5.9796357421875,-0.560551816034317,-0.9273077376306056,-0.39307482339702543
1783695980059600000,5.989599853515625,-0.3592535831421613,-0.7519500016808509,-0.6563542231015861
1783695980069564000,5.99956396484375,-0.4134101207435131,-0.4427510737791657,-0.8994064620092511
1783695980079528000,6.00952783203125,-0.6686462800502777,-0.04034457760900259,-1.0153960631892085
1783695980089491000,6.019490966796875,-0.9714747961372137,0.5076698284134269,-1.0226592591252177
1783695980099455000,6.029455078125,-1.2242547944635152,1.0440957957118748,-0.8890192888338119
1783695980109418800,6.039418701171875,-1.300901396292448,1.4234966793477535,-0.756809278280288
1783695980119382800,6.0493828125,-1.1881453702062368,1.6926435828462243,-0.6696637134645134
1783695980129346800,6.059346923828125,-0.9093260907381773,1.8588710868790745,-0.6073495153054594
1783695980139310800,6.069310791015625,-0.531185436296463,1.8732409730151294,-0.5754419266521931
1783695980149275000,6.07927490234375,-0.13925415691137313,1.8342869729816913,-0.5554520817425102
1783695980159239000,6.089239013671875,0.21144027220010755,1.7058607918158173,-0.5254381248161196
1783695980169202700,6.09920263671875,0.39916415324807164,1.5941729794830084,-0.4764736759651452
1783695980179167200,6.109167236328125,0.4419529091387987,1.5904568815693259,-0.4105000785157084
1783695980189130200,6.119130126953125,0.36514848639965053,1.5750769416078925,-0.31974567555300887
1783695980199094300,6.12909423828125,0.2506733814358711,1.563501362365484,-0.2591734256904572
1783695980209058300,6.139058349609375,0.22830606680512427,1.4113006301194428,-0.12335136211961507
1783695980219022300,6.149022216796875,0.31242461194992066,1.3286141636043787,-0.17612641876731067
1783695980228986600,6.158986572265625,0.38704350734353066,1.1182248617619275,-0.18018343907315282
1783695980238950400,6.168950439453125,0.4562929846584797,0.8532838855206966,-0.15313406757339834
1783695980248914400,6.17891455078125,0.5161030179768801,0.6185042387872934,-0.1494747413482517
1783695980258878500,6.18887841796875,0.5162678531497716,0.36086627903580665,-0.22214827482774852
1783695980268842500,6.198842529296875,0.4361170425921678,0.07697977930605411,-0.28188991908505556
1783695980278805500,6.208805419921875,0.2536415835916996,-0.1044336034208536,-0.4725529223248362
1783695980288769500,6.21876953125,0.07705985880494118,-0.16557108595073222,-0.7410770177498459
1783695980298733600,6.228733642578125,-0.15585340953469276,-0.14913549945652485,-1.0314916040740907
1783695980308697300,6.238697265625,-0.26947511253952977,0.004623568147420883,-1.3288434423156081
1783695980318661400,6.248661376953125,-0.27652678461670877,0.18790332926809786,-1.6036586007088423
1783695980328625400,6.25862548828125,-0.35030806014239785,0.39852001012563704,-1.7571429430246353
1783695980338589400,6.26858935546875,-0.601391775944829,0.6996124962002038,-1.7099312561251223
1783695980348553500,6.278553466796875,-1.010605614042282,1.0693389580398798,-1.6053918542422354
1783695980358517500,6.288517578125,-1.3923907624661922,1.3645996692210436,-1.430054284297675
1783695980368480500,6.29848046875,-1.592806367304921,1.4728653981506823,-1.2226768045570702
1783695980378444500,6.308444580078125,-1.5740636729121207,1.4568243639320135,-1.0334712335839866
1783695980388408300,6.318408203125,-1.3047317682355641,1.27077806070745,-0.9293620398119091
1783695980398372400,6.328372314453125,-0.8012889098674059,0.976326912343502,-0.8775593718603253
1783695980408336400,6.33833642578125,-0.3468640571683645,0.7001707146048546,-0.7990836549080907
1783695980418300400,6.348300537109375,-0.01722819817662239,0.5397679712027311,-0.7302627052035182
1783695980428264400,6.358264404296875,0.12200023977160453,0.3798515500128269,-0.6220625157907604
1783695980438228500,6.368228515625,0.14965338585078716,0.24435177719891069,-0.4734917375449091
1783695980448192300,6.378192138671875,0.0834112736582756,0.1578343542188406,-0.27164200824983414
1783695980458155500,6.388155517578125,-0.11783084513247012,0.12996318147480487,-0.16143953910395503
1783695980468119300,6.398119384765625,-0.30179332782030105,0.13353285665512085,-0.1436377240241505
1783695980478083300,6.408083251953125,-0.44305765551030635,0.14475275432765483,-0.14644187645837664
1783695980488047400,6.41804736328125,-0.6583399900913238,0.14332710543870925,-0.09907867965842597
1783695980498011400,6.428011474609375,-0.8923036442667245,0.19941081171035765,-0.10123588509177789
1783695980507975400,6.437975341796875,-1.127463230228424,0.2847030768096447,-0.11067497289530001
1783695980517939500,6.447939453125,-1.247381403028965,0.3802683141201734,-0.20972519364422185
1783695980527903200,6.4579033203125,-1.244962066927552,0.4696376194000244,-0.3568332971926778
1783695980537867300,6.4678671875,-1.1446095953404902,0.5173837054371834,-0.5327849073823541
1783695980547830300,6.477830322265625,-0.9540519521713257,0.4808820669919252,-0.6312251156073063
1783695980557794300,6.487794189453125,-0.7831202159702777,0.45732934196889397,-0.7129677254009992
1783695980567758300,6.49775830078125,-0.6949544412612915,0.3297738061577081,-0.8010838888145982
1783695980577722400,6.507722412109375,-0.6845598884969949,0.33751462954282757,-0.9118219992071389
1783695980587686400,6.517686279296875,-0.6847457664579153,0.3458358831644058,-1.0867077337309718
1783695980597650200,6.527650146484375,-0.6234457868427038,0.25830139209628106,-1.07116617346704
1783695980607614200,6.5376142578125,-0.5259346761614084,0.19747955138683318,-1.0620684555802493
1783695980617578200,6.547578125,-0.41641514777839184,0.11558218942284583,-1.0747598140448331
1783695980627542500,6.55754248046875,-0.2903618332237005,0.0734510206580162,-1.0279013244971633
1783695980637505300,6.56750537109375,-0.15427461591064928,0.10218260962367057,-0.9834402514800429
1783695980647469300,6.57746923828125,-0.0032785832792520523,0.1518833368599415,-0.9467922633666545
1783695980657433300,6.587433349609375,0.08079962985515594,0.16239420948028563,-0.8606001998834312
1783695980667397400,6.5973974609375,0.03832943839430809,0.20790449928939342,-0.8052631472606211
1783695980677361400,6.607361328125,-0.07367664610743523,0.2930284220844507,-0.8167544822856784
1783695980687325400,6.617325439453125,-0.2032826847076416,0.3695768242359161,-0.8295207326173781
1783695980697289500,6.62728955078125,-0.2680716754823923,0.4354419198095798,-0.8446251435730606
1783695980707253500,6.63725341796875,-0.24464871431887147,0.5507464613348245,-0.8477018476046622
1783695980717217500,6.647217529296875,-0.1647965944468975,0.6442237864553928,-0.8825565956257283
1783695980727180500,6.6571806640625,-0.08256780857145786,0.7052852811396122,-0.8945053190294653
1783695980737144600,6.66714453125,-0.012158055305480956,0.677168609201908,-0.7111172752287238
1783695980747108400,6.6771083984375,0.14685527956485747,0.6003028116643429,-0.41804705982916057
1783695980757072400,6.687072265625,0.46667935411632055,0.6541553978830575,-0.43984976284708827
1783695980767036400,6.697036376953125,0.7195178046315908,0.7035457439959049,-0.6235856337048113
1783695980777000400,6.70700048828125,0.8093418679416179,0.6806593739271164,-0.6680230335853994
1783695980786964500,6.716964599609375,0.7217670448631047,0.7248860536664724,-0.6601615794952959
1783695980796928500,6.726928466796875,0.4773123918116092,0.8011778507083654,-0.5996723317410797
1783695980806892300,6.736892333984375,0.2497545130252838,0.9129957191616296,-0.5590967218551784
1783695980816856300,6.746856201171875,0.07219780572652816,1.0022399367570876,-0.5542225034149363
1783695980826819300,6.7568193359375,-0.052097851505875585,1.059819434544444,-0.5560545776803046
1783695980836783400,6.766783447265625,-0.1252349839091301,1.1431044514745474,-0.563443993811868
1783695980846747400,6.776747314453125,-0.09692132809460162,1.1747457904070615,-0.5531756977757438
1783695980856711400,6.78671142578125,-0.048881812068819995,1.1986509821295737,-0.5757667746923864
1783695980866675500,6.796675537109375,0.03480477139949798,1.1860159569621085,-0.5958947859637439
1783695980876639500,6.806639404296875,0.11553075149655341,1.1494716484189034,-0.59375024821572
1783695980886603300,6.816603271484375,0.1909171241313219,1.0999801800191402,-0.6031252486739307
1783695980896567300,6.8265673828125,0.22331308082342147,1.111840129160881,-0.6332513607379049
1783695980906531300,6.83653125,0.18106150054931638,1.1257692857921122,-0.7495081614866852
1783695980916494300,6.846494384765625,0.0986129344433546,1.171854160618782,-0.8911126809164881
1783695980926458400,6.856458251953125,-0.0006406359910964965,1.2049743399322033,-1.0104049038384109
1783695980936422400,6.86642236328125,-0.1465700328826904,1.2821458424180745,-1.0734647327329963
1783695980946386400,6.876386474609375,-0.30891221991479395,1.4731898077994585,-1.124117426931858
1783695980956350200,6.88635009765625,-0.48778468598723407,1.4958908844292162,-1.007617099750787
1783695980966314200,6.896314208984375,-0.5816249992012977,1.4855869325578213,-0.9686565238460898
1783695980976278300,6.9062783203125,-0.6873807911366224,1.5601953065574168,-1.0695262973055242
1783695980986242300,6.9162421875,-0.8120382674187421,1.5235685804277657,-1.1475886842165142
1783695980996205300,6.926205322265625,-0.8040139509171247,1.4302362167358398,-1.1639167917482554
1783695981006169300,6.93616943359375,-0.7033797397792338,1.3349053727030753,-1.2501428305663167
1783695981016133400,6.94613330078125,-0.613406038865447,1.2085253104120492,-1.3672097055889665
1783695981026097400,6.956097412109375,-0.6312713659018278,1.0485130276322365,-1.4529323249295354
1783695981036061200,6.966061279296875,-0.73458853251338,0.9448267354473471,-1.5428233159959315
1783695981046025200,6.976025146484375,-0.8947007685363292,0.9520429504364728,-1.575550550469011
1783695981055989200,6.9859892578125,-1.060496310892701,0.988598657156527,-1.5861786197282373
1783695981065953500,6.99595361328125,-1.23209732465744,1.0141150834679602,-1.533704482255876
1783695981075917600,7.00591748046875,-1.3973714734882114,1.1495669254869223,-1.5030102149151265
1783695981085880300,7.01588037109375,-1.4787959572434424,1.2428691863015293,-1.5018994771942495
1783695981095844400,7.02584423828125,-1.4604682733923195,1.2873302593186497,-1.4297259291261433
1783695981105808400,7.035808349609375,-1.4689900180220603,1.2622823273018002,-1.2884659853503106
1783695981115772400,7.0457724609375,-1.3911299487501383,1.2292045258253812,-1.2377243707589805
1783695981125736400,7.055736328125,-1.243207332214713,1.169447976259887,-1.2656510730825363
1783695981135700500,7.065700439453125,-1.1111690980315208,1.008142146538198,-1.3360750010043383
1783695981145664500,7.07566455078125,-0.9941448931068182,0.8789750838771462,-1.3984500625051557
1783695981155628500,7.085628662109375,-0.8709867154717444,0.79877283539325,-1.4814926489815115
1783695981165592300,7.09559228515625,-0.7929127111881971,0.7772258972346783,-1.4995052755340932
1783695981175554600,7.105554443359375,-0.7988263191461563,0.8406824703618884,-1.4131512264221906
1783695981185518600,7.1155185546875,-0.8776935196340083,0.9098489455685019,-1.2797013718754053
1783695981195482400,7.125482421875,-1.0175012187749146,0.9825275205492973,-1.2212532745599747
1783695981205446400,7.1354462890625,-1.0194190350949763,1.0454781899809837,-1.237845512920618
1783695981215410400,7.145410400390625,-0.9083715664923191,0.9936898428156972,-1.2199473065279423
1783695981225374500,7.15537451171875,-0.7393319276481867,0.904197787939012,-1.1355850157551466
1783695981235338500,7.16533837890625,-0.632783524030447,0.8202925932839512,-0.996896968293935
1783695981245302500,7.175302490234375,-0.6795809310406447,0.7713681111171841,-0.9081669838309288
1783695981255266300,7.185266357421875,-0.8540823424220084,0.8382423837333917,-0.7997704681284725
1783695981265229600,7.1952294921875,-1.0383546217113733,0.8766486867561936,-0.6767131205193698
1783695981275193300,7.205193359375,-1.146696923008561,0.9324971229672432,-0.5170651775399223
1783695981285157400,7.215157470703125,-1.0790706629812716,0.9405264079049229,-0.364963229493238
1783695981295121400,7.225121337890625,-0.8578221134722233,0.8935147736221551,-0.21710664566503837
1783695981305085400,7.23508544921875,-0.5474731387525796,0.8188800961375235,-0.06694638800434768
1783695981315049500,7.245049560546875,-0.2116477774709463,0.6773904352590441,0.05838241166807711
1783695981325013500,7.255013427734375,0.0001087210714817047,0.45674306651353835,0.10802680560722946
1783695981334977500,7.2649775390625,0.03341945452094078,0.2785100673884153,0.1699734308292158
1783695981344940500,7.2749404296875,-0.061385319811105725,0.198349027697742,0.24382468458488582
1783695981354904300,7.284904296875,-0.15846446881592272,0.1982870683774352,0.2530258080472238
1783695981364868400,7.294868408203125,-0.18229601078033447,0.14620821383297442,0.21167654690770432
1783695981374832400,7.304832275390625,-0.12322013695538044,0.02177782430499792,0.20680649318592623
1783695981384796700,7.314796630859375,0.019848609808087347,-0.08289484856873751,0.19032699448475612
1783695981394760700,7.3247607421875,0.12208324187994003,-0.13713994123637677,0.1317722584570758
1783695981404724500,7.334724365234375,0.07931202164590358,-0.1449579215109348,0.11665182794835417
1783695981414688500,7.3446884765625,-0.09598667759299277,-0.06376227807551622,0.09685003469036892
1783695981424652500,7.354652587890625,-0.35274785450994967,0.03286035933345556,0.058470418745093046
1783695981434615600,7.364615478515625,-0.5547042590498924,0.13080226264744996,0.027271398486290125
1783695981444579600,7.37457958984375,-0.6174187816381455,0.14461656072735785,-0.04563771558105945
1783695981454543600,7.384543701171875,-0.5804489411592483,0.1394984870612621,-0.0581096591413021
1783695981464507600,7.394507568359375,-0.4857002809286117,0.12732143479436636,0.015898420010739937
1783695981474471700,7.4044716796875,-0.3480599889546633,0.14696867681145667,0.04752549752246123
1783695981484435500,7.414435546875,-0.19051789568066596,0.17855127129405735,0.06731265490031801
1783695981494399500,7.4243994140625,-0.09510463406145572,0.16763386369943617,0.06547764889234677
1783695981504363500,7.434363525390625,-0.13610767557919023,0.16361001501083372,0.035277743223088326
1783695981514327600,7.44432763671875,-0.25399521933495994,0.150714877602458,0.09054341795998624
1783695981524290600,7.45429052734375,-0.3555494679272175,0.07474982829689979,0.17927162145785985
1783695981534254600,7.464254638671875,-0.4429886819273233,-0.08406096973866224,0.2133035270550288
1783695981544218600,7.474218505859375,-0.41766894723176956,-0.2616293674752116,0.33692170515097675
1783695981554182700,7.4841826171875,-0.20336451777219772,-0.35180940461605786,0.3838127817939967
1783695981564146400,7.494146484375,0.006144494104385376,-0.3433656936585903,0.2661205596809275
1783695981574110500,7.5041103515625,0.08227087145149707,-0.24483430001884698,0.07196505185000132
1783695981584074500,7.514074462890625,0.02098959653675556,-0.10408347480893135,-0.09558825285993516
1783695981594038500,7.52403857421875,-0.11253683037757872,0.07330839731693267,-0.17590048279063775
1783695981604002600,7.53400244140625,-0.27747663268744943,0.26025194164216514,-0.24570331967202946
1783695981613965600,7.543965576171875,-0.42304362600743767,0.41261955488771196,-0.24046543728485703
1783695981623929600,7.5539296875,-0.49043783084452147,0.5459989745467901,-0.10160404255073517
1783695981633893400,7.563893310546875,-0.4492196852713823,0.6252002292945981,0.14309760753177106
1783695981643857400,7.573857421875,-0.25186229895949364,0.66280456828475,0.4095777760390192
1783695981653821400,7.583821533203125,0.04521393721103668,0.6982420846298336,0.692420831130445
1783695981663785500,7.593785400390625,0.33619887076914307,0.6632976124987006,0.9054927961856126
1783695981673749500,7.60374951171875,0.5090519304215908,0.5952300384446978,0.9520633356373757
1783695981683713500,7.613713623046875,0.5449146864414215,0.4605070952221751,0.8785836734067648
1783695981693676500,7.623676513671875,0.44245501344203947,0.3113558136746287,0.7513998204521835
1783695981703640600,7.633640625,0.27070027042031286,0.18047025665789843,0.6291435600928962
1783695981713604400,7.643604248046875,0.03786006731688976,0.11060440101027488,0.5545112937610596
1783695981723568400,7.653568359375,-0.21036416740119457,0.12348989380747079,0.5097999723099171
1783695981733532400,7.663532470703125,-0.36875674002468584,0.1917009679853916,0.5274895774532109
1783695981743496400,7.673496337890625,-0.41592239582538604,0.28340251560509205,0.5814865405786782
1783695981753460500,7.68346044921875,-0.36287528077065945,0.40071079816818234,0.6758304924659431
1783695981763424500,7.693424560546875,-0.2646633283436298,0.44879532237946984,0.7746817657098174
1783695981773388500,7.703388427734375,-0.15953531291782855,0.49936084975153205,0.8765253526374697
1783695981783351300,7.713351318359375,-0.045724809342622755,0.4901461544215679,0.9586571078792214
1783695981793315300,7.7233154296875,0.05680383723974228,0.39700609843134876,1.0509786870934068
1783695981803279400,7.733279296875,0.1354261230558157,0.2454825347945094,1.0832718409981579
1783695981813243600,7.74324365234375,0.16466916867494583,0.10856383509337901,1.0907055711954832
1783695981823207700,7.753207763671875,0.17984277240931987,-0.017547054867446423,1.0401277688637376
1783695981833171700,7.763171630859375,0.20826047312021254,-0.13581599915623663,1.0409349935933947
1783695981843135500,7.773135498046875,0.2566261523604393,-0.15582155309170484,1.056363375806436
1783695981853099500,7.783099609375,0.25040508588850496,-0.1364239019215107,0.9992496688999235
1783695981863062500,7.7930625,0.17474866414070128,-0.07992226249873638,0.9040450815953314
1783695981873026600,7.803026611328125,-0.00938859059214592,-0.011166706180572509,0.8198622390426695
1783695981882990600,7.812990478515625,-0.2218693117558956,0.09714432319551705,0.7429073019169271
1783695981892954600,7.82295458984375,-0.3715694593578577,0.16968436648845672,0.6147999043766409
1783695981902918700,7.832918701171875,-0.4977653972536325,0.14775515101402997,0.5584908283839002
1783695981912882700,7.842882568359375,-0.5187672687500715,0.16641308973282576,0.526988459530659
1783695981922846500,7.852846435546875,-0.5770785879433155,0.2594946935340762,0.5436163171939552
1783695981932810500,7.862810546875,-0.6030488955020904,0.3531266246944666,0.49877698544897137
1783695981942774500,7.8727744140625,-0.5212801283538341,0.4118538312122226,0.43645314267873764
1783695981952737500,7.882737548828125,-0.4166419422715902,0.3691334643825888,0.6116652596127241
1783695981962701600,7.89270166015625,-0.3395569490253925,0.38505613291859625,0.7373748752962798
1783695981972665600,7.90266552734375,-0.2292506541788578,0.4098214486017823,0.7717143672715872
1783695981982629600,7.912629638671875,-0.13006430376172065,0.3764773974046111,0.7373411922223866
1783695981992593400,7.922593505859375,-0.027573651102185247,0.26198475678414107,0.8027046218842268
1783695982002557400,7.932557373046875,0.09485971938967704,0.10404138923287391,0.8737606371644884
1783695982012521500,7.942521484375,0.18744798671603202,-0.016750351531803608,0.852123025047779
1783695982022485500,7.952485595703125,0.30754326964914797,-0.1042290207594633,0.7826049599245191
1783695982032448500,7.962448486328125,0.430379960244894,-0.20506401516646144,0.7872979400463401
1783695982042412500,7.97241259765625,0.5153460621297359,-0.32927082507163286,0.8397279461160302
1783695982052376600,7.98237646484375,0.5681903480887412,-0.40151977646350856,0.7782264525793492
1783695982062340600,7.992340576171875,0.5637777923434972,-0.4536760801583528,0.7689788778930902
1783695982072304400,8.002304443359375,0.46364802359640594,-0.396470384119451,0.7690582998048514
1783695982082268400,8.012268310546874,0.37726445612907406,-0.3181485425546765,0.6780662886939942
1783695982092232400,8.022232421875,0.3068839289575815,-0.2855646620750427,0.5969901069197804
1783695982102196500,8.032196533203125,0.2881739677906036,-0.28374124604016543,0.5231274367209524
1783695982112160500,8.042160400390625,0.26679800228476525,-0.29642157165408134,0.4330074592042714
1783695982122123500,8.05212353515625,0.24480711975097655,-0.29837358250468965,0.30988493740446865
1783695982132087600,8.062087646484375,0.18603169017732143,-0.3051476066842675,0.17837912959754465
1783695982142051600,8.072051513671875,0.09915127910375594,-0.3427081065326929,0.14786113213915378
1783695982152015400,8.082015380859374,0.02139876185953617,-0.3695093119576573,0.12226389567647128
1783695982161979400,8.0919794921875,-0.029209727871417998,-0.37949616070389747,0.07933704648930578
1783695982171943400,8.101943359375,-0.0677303049236536,-0.39487814649194475,0.0035729996485635634
1783695982181907500,8.111907470703125,-0.04657528869211673,-0.41494244487732646,-0.07203245909698307
1783695982191871500,8.12187158203125,-0.03701367962062359,-0.41862347147762774,-0.08947430002428591
1783695982201834500,8.13183447265625,-0.059148354539275166,-0.4317214379817247,-0.09430822298675776
1783695982211798500,8.141798583984375,-0.11883388469517231,-0.4094590450301766,-0.03285053205918521
1783695982221762300,8.15176220703125,-0.18147826465666292,-0.34599604216217994,-0.0017352993600070477
1783695982231726300,8.161726318359374,-0.18850129516124725,-0.2747261649355292,0.033697358146868646
1783695982241690400,8.1716904296875,-0.20744506508409977,-0.22380729408115146,0.05899784015268087
1783695982251654400,8.181654296875,-0.3097381493449211,-0.16004589278846978,0.00976995459254831
1783695982261618400,8.191618408203125,-0.4099363071531057,-0.08312339662760496,-0.04579608448054641
1783695982271582500,8.20158251953125,-0.47111236812770363,-0.053642450599372386,-0.08741207026485354
1783695982281546200,8.211546142578126,-0.4659995551586151,-0.054963470070064066,-0.13370985718984157
1783695982291509500,8.221509521484375,-0.40901451613307,-0.0793593679189682,-0.14541779410764574
1783695982301473300,8.231473388671875,-0.379140771394968,-0.04451631033569574,-0.14395831601433456
1783695982311437300,8.241437255859376,-0.45842590503394604,-0.056604807536303994,-0.08289305847045034
1783695982321401300,8.2514013671875,-0.5465677143454551,-0.19711773233711719,0.10444386908654123
1783695982331365400,8.261365478515625,-0.5358557661950588,-0.4487330707982182,0.3457000548902899
1783695982341329400,8.271329345703125,-0.346311099460721,-0.5308931753516197,0.3087706194870174
1783695982351293400,8.28129345703125,-0.20924071632921695,-0.47013621657192706,0.11799889517575501
1783695982361257200,8.29125732421875,-0.1958966661095619,-0.5048743524760008,0.04737948121447116
1783695982371220200,8.30122021484375,-0.23183248736560344,-0.5679086085379124,0.07012388552930206
1783695982381184300,8.311184326171874,-0.22439503084123133,-0.6114829618483781,0.07045443265791981
1783695982391148300,8.321148193359376,-0.23758593632578848,-0.61448214366436,-0.07760857872888445
1783695982401112300,8.3311123046875,-0.2747200274556875,-0.5155988678470254,-0.2697817308032885
1783695982411076400,8.341076416015625,-0.36754911780059335,-0.35302228753715753,-0.4204290961274877
1783695982421040400,8.351040283203124,-0.40234161424040793,-0.24306670582443474,-0.4955878340188414
1783695982431004200,8.361004150390626,-0.33674539873600007,-0.11850772148072719,-0.4756224659632891
1783695982440968200,8.37096826171875,-0.20758885746896266,0.054308513292670245,-0.3977474183179438
1783695982450931200,8.38093115234375,-0.08971417319476604,0.18842706088125705,-0.29397045217491685
1783695982460895200,8.390895263671876,-0.023242343899607658,0.31669045270085333,-0.24370767060909418
1783695982470859300,8.400859375,-0.010652326917648315,0.3867819337978959,-0.207641647102125
1783695982480823300,8.4108232421875,-0.028667876079678533,0.40254882725030183,-0.17538316265195608
1783695982490787300,8.420787353515625,-0.08522679864764213,0.41709933065026994,-0.17363978958334772
1783695982500751600,8.430751708984374,-0.19180325931608677,0.4357976013794541,-0.21687205145787447
1783695982510715400,8.44071533203125,-0.28249007693529127,0.5319751253694296,-0.2526095005976036
1783695982520679400,8.450679443359375,-0.3393313235759735,0.6372215064778923,-0.2913809836709872
1783695982530643500,8.4606435546875,-0.3930974005550146,0.745137106795609,-0.3060291387591511
1783695982540606500,8.4706064453125,-0.451157959857583,0.8198205918580294,-0.3077871248750016
1783695982550570500,8.480570556640625,-0.5727063642084598,0.8609928524628281,-0.2751235667552799
1783695982560534500,8.490534423828125,-0.5968851121753453,0.8791270595684647,-0.30541844124859197
1783695982570498600,8.50049853515625,-0.49480888553559776,0.8324725681602955,-0.3445828874286264
1783695982580462300,8.51046240234375,-0.388639252102375,0.7563324545487761,-0.3938751434618607
1783695982590426400,8.52042626953125,-0.23891689266860483,0.700009386563301,-0.45784766675457356
1783695982600390400,8.530390380859375,-0.08345745088756083,0.6617369390532374,-0.5245496150111779
1783695982610354400,8.5403544921875,-0.01288987671136856,0.5615002028003334,-0.5142501566518097
1783695982620317400,8.5503173828125,0.021999650362133978,0.41035891647934913,-0.4428466431081295
1783695982630281500,8.560281494140625,0.03780629130303859,0.27458587968200443,-0.38202914978023617
1783695982640245500,8.57024560546875,0.04241524640321731,0.19944705206751823,-0.4039438618052751
1783695982650209500,8.58020947265625,0.0788975956261158,0.17261603602617978,-0.4553230071151629
1783695982660173300,8.59017333984375,0.10889467448294163,0.14452157592028378,-0.4428354641269892
1783695982670137300,8.600137451171875,0.1379910051077604,0.17325316488593817,-0.4198708411902189
1783695982680101400,8.610101318359375,0.1571755980491638,0.2498693715766072,-0.40143597063757475
1783695982690065400,8.6200654296875,0.1204810673803091,0.37965281257033345,-0.3912983883090317
1783695982700028400,8.6300283203125,0.03774024032950401,0.48729631794840095,-0.332676286133565
1783695982709992400,8.639992431640625,-0.040649990296363826,0.6202224408820272,-0.3414343968024477
1783695982719956500,8.64995654296875,-0.10458616363406181,0.6716477999538183,-0.34075167523529376
1783695982729920500,8.65992041015625,-0.14971534517109394,0.6857587428927421,-0.302224796306435
1783695982739884300,8.66988427734375,-0.22695172958672044,0.7026610701158642,-0.30057268171785395
1783695982749848300,8.679848388671875,-0.17510639153718946,0.684772362203896,-0.3047444692434743
1783695982759812400,8.689812255859374,-0.028948446586728096,0.6071525314286351,-0.29155252257930114
1783695982769776400,8.6997763671875,0.13045359534025192,0.49073389118164773,-0.22005608832146972
1783695982779739400,8.709739501953125,0.27354280036985873,0.3562745673313737,-0.1658824351885356
1783695982789703400,8.719703369140625,0.3497866666167974,0.2582072840720415,-0.12076993992482311
1783695982799667500,8.72966748046875,0.31412030995190143,0.18307839332967996,-0.09327943706144579
1783695982809631200,8.73963134765625,0.2621931388378143,0.08677548939436673,-0.10903532506264746
1783695982819595300,8.74959521484375,0.22631343168318271,-0.051021162185072896,-0.17589133136980234
1783695982829559300,8.759559326171875,0.2189712522268295,-0.17353402765393255,-0.2252633198420517
1783695982839523300,8.7695234375,0.25105975040495393,-0.2345946455553174,-0.2679964365554042
1783695982849487400,8.7794873046875,0.2854085947304964,-0.2672258723080158,-0.23462575307963415
1783695982859450400,8.789450439453125,0.2921995700448751,-0.2383028524234891,-0.20477253967290743
1783695982869414400,8.799414306640625,0.29653847603201866,-0.1896507574573159,-0.1458089123170823
1783695982879378400,8.80937841796875,0.29145839628875253,-0.17871376837939024,-0.17356243176450953
1783695982889342200,8.81934228515625,0.30109131703078745,-0.17671002734154462,-0.23081980319172143
1783695982899306200,8.82930615234375,0.30249884574115277,-0.16796645665466783,-0.2913782254583202
1783695982909270300,8.839270263671875,0.2665139246463775,-0.18734423408061265,-0.33614531395100056
1783695982919234300,8.849234375,0.23618074570298195,-0.18635171591192481,-0.3466546887340024
1783695982929198300,8.8591982421875,0.25632278549969195,-0.16875556120574473,-0.2913045391676016
1783695982939162400,8.869162353515625,0.2900175498306751,-0.20493863522112368,-0.21811629763161763
1783695982949125400,8.87912548828125,0.272876445415616,-0.216769650529325,-0.18695749978534876
1783695982959089200,8.889089111328126,0.21853227628767488,-0.2003676740437746,-0.1773052898209542
1783695982969053200,8.89905322265625,0.18649170890450475,-0.22120558715015648,-0.1182923616969958
1783695982979017500,8.909017578125,0.11894085220098495,-0.31322657598257064,-0.03572947132925037
1783695982988981500,8.9189814453125,0.07680033108592033,-0.35991438513845203,-0.0937175453509204
1783695982998945500,8.928945556640626,0.04785188449919223,-0.43149698157608507,-0.11220315057695843
1783695983008909600,8.93890966796875,0.04169394639134407,-0.4956605339288711,-0.1317863965802826
1783695983018873300,8.948873291015625,0.06082125618755817,-0.5379015928089619,-0.24467742895670233
1783695983028836600,8.958836669921874,0.07773965776264667,-0.5432797787159681,-0.2952829412792809
1783695983038800400,8.96880029296875,0.0845224497705698,-0.5885778870791196,-0.3338916898053139
1783695983048764400,8.978764404296875,0.06086684889495372,-0.6698796212375163,-0.3975929584085941
1783695983058728400,8.988728515625,0.0010527239233255386,-0.6794903301477432,-0.4224943215616047
1783695983068692500,8.9986923828125,-0.0037953006297349926,-0.6706409609988332,-0.48734227598197755
1783695983078656500,9.008656494140626,0.019268764093518256,-0.6752905403703451,-0.547454872443527
1783695983088620500,9.01862060546875,0.006686345896124839,-0.7189949498012661,-0.6010945100313052
1783695983098584300,9.028584228515625,0.0023866028755903245,-0.7311515438020229,-0.6662281129926443
1783695983108547300,9.03854736328125,-0.021634324181079863,-0.7392135619655251,-0.7186532236915081
1783695983118511400,9.048511474609375,-0.06401800640225411,-0.749298025867343,-0.7193430325865745
1783695983128475400,9.058475341796875,-0.14947686024010182,-0.8565142457440496,-0.582588583536446
1783695983138439400,9.068439453125,-0.19712708468735216,-1.089473106791079,-0.370932915019989
1783695983148403500,9.078403564453126,-0.06662965020537376,-1.186658346518874,-0.29920298253353683
1783695983158367500,9.088367431640625,0.0499228455543518,-1.1730401555329562,-0.44096959718987344
1783695983168331300,9.098331298828125,0.08647066122889518,-1.1003864227324724,-0.5841726743901148
1783695983178296000,9.108296142578125,0.042564884006977076,-0.9931091203182935,-0.6569795884583145
1783695983188259000,9.118259033203126,-0.09136603205502032,-0.8180100353047252,-0.8075226896904408
1783695983198223000,9.12822314453125,-0.22292788089811802,-0.5296855531275272,-1.05366989893876
1783695983208187100,9.138187255859375,-0.383005045607686,-0.25514000545591115,-1.2177389828287064
1783695983218151200,9.148151123046874,-0.5626747995376586,-0.020429916827380656,-1.2372091147132218
1783695983228115200,9.158115234375,-0.6814362035185099,0.16959142750799655,-1.1217639956735075
1783695983238079000,9.168078857421875,-0.680999565666914,0.2939642416298389,-0.9260588335480541
1783695983248043000,9.17804296875,-0.5291290882885455,0.41922056058794255,-0.7508241394560784
1783695983258007300,9.18800732421875,-0.17103227396607398,0.500528432226181,-0.6683442283637822
1783695983267970000,9.197969970703125,0.27745968155264855,0.40832361125946043,-0.5894214982964098
1783695983277934000,9.20793408203125,0.620927666541934,0.24238076938688755,-0.463109825066477
1783695983287898000,9.217898193359375,0.8486316758006811,0.0938312531247735,-0.3572868496464565
1783695983297862400,9.2278623046875,0.9110849171042442,-0.08411240766495466,-0.2637017167698592
1783695983307826200,9.237826171875,0.8977794453293084,-0.16621406002938746,-0.2176711842126213
1783695983317790200,9.247790283203125,0.8094529271006584,-0.18574293636381625,-0.1665850487662479
1783695983327754200,9.257754150390625,0.6283768135040998,-0.20208616839945315,-0.1459001707971096
1783695983337718300,9.26771826171875,0.42560324736237526,-0.13865765232294797,-0.18647642000382764
1783695983347681300,9.277681396484375,0.17246376807391642,-0.008325637535750866,-0.22253173945369198
1783695983357645300,9.287645263671875,-0.017440964144468305,0.2023544639468193,-0.252171584104374
1783695983367609300,9.297609375,-0.12202888134419917,0.47834378068596123,-0.2856211232363246
1783695983377573400,9.307573486328126,-0.1891828476846218,0.7622998385205865,-0.3496955542672425
1783695983387537200,9.317537109375,-0.19434943666756152,1.0024620550751686,-0.42532450348623096
1783695983397501200,9.327501220703125,-0.26923955021798607,1.120200838010013,-0.40688192455116656
1783695983407465200,9.33746533203125,-0.3682254096269607,1.2130690913215278,-0.3495419711407274
1783695983417429200,9.34742919921875,-0.4213327304363251,1.221718553984165,-0.1886394615229219
1783695983427392300,9.357392333984375,-0.33528000235855576,1.1475982557624578,0.031078170358110217
1783695983437356300,9.367356201171875,-0.12720306911170481,0.9942012994691729,0.29093199779447165
1783695983447320300,9.3773203125,0.12347732658684253,0.8351607843309641,0.4566985697846859
1783695983457284000,9.3872841796875,0.3098591453760862,0.6458934732332825,0.5139984469130635
1783695983467248000,9.397248046875,0.4116133004546165,0.45966626048386094,0.5908614679716527
1783695983477212200,9.407212158203125,0.34847149236500263,0.25476474240273234,0.6679973876874894
1783695983487176200,9.41717626953125,0.12971300610601902,0.08392039222419262,0.7615997274272144
1783695983497140200,9.42714013671875,-0.09236673353016375,0.0008420037820935248,0.7045702647380531
1783695983507103200,9.437103271484375,-0.2882961328655481,-0.02218961997628212,0.5422391836218535
1783695983517067300,9.4470673828125,-0.40863633047044273,-0.051425651332736015,0.3600719137877226
1783695983527031300,9.45703125,-0.46616146772205824,0.05291530536860227,0.1350149849716574
1783695983536995000,9.4669951171875,-0.5141472077339887,0.2264525478929281,-0.1390001090850681
1783695983546959000,9.476958984375,-0.5873252566695213,0.3678703125789761,-0.36851120429839934
1783695983556923100,9.486923095703125,-0.6830868933349847,0.49656245120465753,-0.5258822518544272
1783695983566887200,9.49688720703125,-0.7362561734646559,0.6400424091175199,-0.5840748035062104
1783695983576851200,9.506851318359375,-0.7675123124718666,0.7410057060793042,-0.5784940442318096
1783695983586814200,9.516814208984375,-0.7622212203264236,0.7457520238235592,-0.4844963119663298
1783695983596778200,9.5267783203125,-0.6992138522714376,0.6568702097997069,-0.3733085946427658
1783695983606742000,9.536741943359376,-0.6225748492270707,0.5766732220128178,-0.2933901132700033
1783695983616706000,9.5467060546875,-0.49529813035726544,0.5271747393503785,-0.25374995760330926
1783695983626670000,9.556670166015625,-0.26741116574704643,0.44587534327954054,-0.2173459708462469
1783695983636634000,9.566634033203124,0.02339256602525711,0.31945377993434665,-0.1588685926374048
1783695983646598100,9.57659814453125,0.2854822444885969,0.14830050993710756,-0.060918798277899616
1783695983656562200,9.586562255859375,0.5027414321005345,0.04201455664783716,0.0314611965926364
1783695983666525200,9.596525146484375,0.6774158619612455,-0.0438011478036642,0.08408793081082404
1783695983676489200,9.6064892578125,0.7895990565955638,-0.14925971035808325,0.12158252581618725
1783695983686453000,9.616452880859375,0.8294324698120356,-0.2401297755897045,0.1927230775747448
1783695983696417000,9.6264169921875,0.7737742954760789,-0.2958563389867544,0.2092675312709063
1783695983706381000,9.636381103515625,0.652477820059657,-0.3503217964068055,0.10761497340332717
1783695983716345000,9.646344970703124,0.503090976190567,-0.37290655318051574,-0.07083733102828264
1783695983726309000,9.65630908203125,0.3574123391896486,-0.37436142816394563,-0.1922579808136448
1783695983736273400,9.6662734375,0.22095628856420516,-0.3650117082774639,-0.269964905350469
1783695983746237200,9.6762373046875,0.08203647817373275,-0.3369502736583352,-0.2991952741511166
1783695983756200200,9.6862001953125,-0.036243279770016665,-0.3037649201542139,-0.2978620527859777
1783695983766164000,9.6961640625,-0.021689269238710403,-0.3050914925828576,-0.2947473913641646
1783695983776128300,9.706128173828125,0.09164718708395958,-0.2683607215568423,-0.3826740966202691
1783695983786092300,9.71609228515625,0.23808687158524988,-0.24858663828969,-0.4344922178693115
1783695983796056300,9.726056396484376,0.29973230363726616,-0.2902864298999309,-0.38016594972424206
1783695983806020400,9.736020263671875,0.2594984929263592,-0.28224077834933997,-0.31559100355897096
1783695983815984000,9.745984130859375,0.1316220545977354,-0.24659897160381078,-0.25406097804754973
1783695983825948200,9.7559482421875,0.034789573830366134,-0.2110577026233077,-0.2464404931064695
1783695983835911200,9.7659111328125,0.009432429733872413,-0.276367794662714,-0.2421327494425699
1783695983845875200,9.775875244140625,0.0407166257917881,-0.3303209186464548,-0.2651989695902914
1783695983855839200,9.785839111328125,0.05499240390360355,-0.3613128537595272,-0.31050686869509514
1783695983865803300,9.79580322265625,0.05065525148212909,-0.3433466966971755,-0.25620189906638113
1783695983875767300,9.805767333984376,0.003069324442744255,-0.31536212670654057,-0.22404826323017477
1783695983885731300,9.8157314453125,-0.06321428880393505,-0.24634353553801774,-0.15441354945730418
1783695983895695000,9.825695068359375,-0.14683949747383593,-0.21920535324364898,-0.08756495927162468
1783695983905659100,9.8356591796875,-0.21433014842271803,-0.2601765383183956,0.048957598985079676
1783695983915623200,9.845623046875,-0.304081731018424,-0.36366643114835023,0.20494806063659488
1783695983925586200,9.855586181640625,-0.3994114060074091,-0.5756903484553099,0.34169849109873174
1783695983935550200,9.86555029296875,-0.4116629848152399,-0.7601762704953551,0.3662416153986007
1783695983945514200,9.87551416015625,-0.44472178933024403,-0.841712690192461,0.23892704873643814
1783695983955478300,9.885478271484375,-0.5815940195411443,-0.8542235044583678,0.1266702774092555
1783695983965442300,9.8954423828125,-0.705986707407236,-0.8687462430685758,0.1577587316993624
1783695983975406000,9.905406005859374,-0.6330944896757602,-0.8405085750997066,0.10275171474851667
1783695983985370000,9.9153701171875,-0.4217705373317003,-0.6841203280359506,-0.001300652536097914
1783695983995334100,9.925334228515625,-0.3506161031782627,-0.4463999516755342,-0.05717873496674001
1783695984005297200,9.935297119140625,-0.4664905535459518,-0.23664339477866886,-0.13444187952512873
1783695984015261200,9.94526123046875,-0.6913602161616087,-0.09474339953362941,-0.28450079570319503
1783695984025225200,9.95522509765625,-0.8773761242479086,0.036058863113820554,-0.38796917082108556
1783695984035189200,9.965189208984375,-0.9941647668510675,0.19228169048279523,-0.44092714628763496
1783695984045153000,9.975153076171875,-0.9834580793976783,0.36084991242289544,-0.4359440241128206
1783695984055117000,9.985116943359374,-0.8834680113822221,0.47912908584475516,-0.43894422884210943
1783695984065081000,9.9950810546875,-0.7574152813494205,0.516354946911335,-0.45324214572049676
1783695984075045000,10.005045166015625,-0.6006552783638238,0.5241533457025885,-0.5279052455820142
1783695984085009200,10.015009033203125,-0.35280981383025645,0.5823664652183651,-0.6382799294896423
1783695984094972200,10.02497216796875,-0.15969664095938205,0.6878238587290049,-0.6806259100489318
1783695984104936200,10.034936279296875,-0.09528700489103793,0.804315564212203,-0.712719522793591
1783695984114900200,10.044900146484375,-0.1461398247718811,0.910033362224698,-0.7242811465758829
1783695984124864000,10.054864013671875,-0.22585516652166843,0.9971905444130301,-0.6745593765515834
1783695984134828000,10.064828125,-0.22244565033912658,1.0211302229270338,-0.6248623756423592
1783695984144792000,10.0747919921875,-0.2119312705874443,0.98189769821316,-0.5761034227682277
1783695984154756000,10.084756103515625,-0.20789222432971,0.9007748277530073,-0.5820343471871688
1783695984164720000,10.09472021484375,-0.1814274112522602,0.7295432318225502,-0.6092598789714276
1783695984174684200,10.10468408203125,-0.1457955413788557,0.5114762349590659,-0.5842036905828863
1783695984184646700,10.114646728515625,0.04486848477423191,0.4126560875058174,-0.5429364451710135
1783695984194610700,10.124610595703125,0.24895021090507505,0.2674415608853102,-0.4961645744608715
1783695984204574500,10.134574462890624,0.495636568531394,0.05932078849673271,-0.5150859133562072
1783695984214538500,10.14453857421875,0.852268570998311,-0.06221943254768848,-0.5143930357212201
1783695984224502500,10.15450244140625,1.0475620105177164,-0.21273586496859787,-0.40736579907797277
1783695984234466600,10.164466552734375,0.89777652271986,-0.21551146716177463,-0.3091806615926325
1783695984244430600,10.1744306640625,0.48897126542329783,-0.10640782610327004,-0.3168846600987017
1783695984254394600,10.18439453125,0.1288730481505394,0.04727233104556799,-0.35147841909602284
1783695984264357600,10.194357666015625,-0.08105097426772118,0.16663316222429275,-0.3585388955341652
1783695984274321700,10.20432177734375,-0.13428279823958872,0.20296908871382474,-0.4524820846008137
1783695984284285400,10.214285400390626,-0.07991349467039108,0.2425561259537935,-0.5751322031158953
1783695984294249500,10.22424951171875,-0.016701543954014776,0.30470366230905055,-0.6448407493099569
1783695984304213500,10.234213623046875,0.1045867481559515,0.3505430379420519,-0.6586666647624224
1783695984314177500,10.244177490234375,0.3051607584267855,0.4615265013977885,-0.5705374957367777
1783695984324141600,10.2541416015625,0.4849006549835205,0.5901049505159258,-0.32726854533851146
1783695984334105600,10.264105712890625,0.7167658755749463,0.7538254401639104,-0.04934460727497935
1783695984344069400,10.2740693359375,0.8944137682884931,0.7853720865502953,0.185378596563451
1783695984354032600,10.28403271484375,0.9718746091097593,0.6518082502350211,0.33955439174212515
1783695984363996400,10.293996337890626,0.9413345094174146,0.4960638540327549,0.3207400934178382
1783695984373960400,10.30396044921875,1.0318681823015212,0.2615741301566362,0.35100210682116445
1783695984383924500,10.313924560546875,0.9238304169088601,-0.033466800794005394,0.2262849727736786
1783695984393888500,10.323888427734374,0.7757377045035362,-0.33313919093757866,-0.012396942095272243
1783695984403852500,10.3338525390625,0.7778525047004222,-0.5580772426143288,-0.3031596112048253
1783695984413816600,10.343816650390625,0.7068442010194063,-0.6057318509757519,-0.43213272219635546
