time,seconds_elapsed,z,y,x
1783696081468796000,0.0627958984375,-0.9850637610286473,0.6071808807402849,-0.3416479299552738
1783696081478759700,0.072759765625,-0.767416450881958,0.46137569475024937,0.024992548567801712
1783696081488723700,0.0827236328125,-0.40160862379074097,0.3814095931097865,0.3609344489011913
1783696081498686700,0.092686767578125,-0.09371405648589133,0.2859481084346771,0.4324672879129648
1783696081508650800,0.102650634765625,-0.021823709273338317,0.13953706550598144,0.29227804210856556
1783696081518613800,0.11261376953125,-0.13916180245280266,0.01440963362455368,-0.04942183722965419
1783696081528577800,0.122577880859375,-0.31196751583218574,0.021149755534529684,-0.4429737035539001
1783696081538541800,0.132541748046875,-0.5239391184300184,0.11488427028656005,-0.791630343227461
1783696081548504800,0.1425048828125,-0.7292261286973953,0.17494564801752566,-0.9339598889961838
1783696081558468900,0.15246875,-0.8195803533613681,0.2640413970530033,-0.8794554147399961
1783696081568431900,0.162431884765625,-0.8595417768716812,0.34196634825468064,-0.768509214554727
1783696081578396000,0.17239599609375,-0.7610422396749258,0.47765959781408307,-0.6289269216675311
1783696081588360000,0.18235986328125,-0.494071803432703,0.5697539441436529,-0.4439052853155881
1783696081598323000,0.192322998046875,-0.21865677945017814,0.5050158067733049,-0.290717587858811
1783696081608287000,0.202286865234375,-0.01896539723277092,0.4047948526114225,-0.23172975764349102
1783696081618250000,0.21225,0.10745558159053326,0.25121172609627246,-0.29449520670138296
1783696081628213800,0.2222138671875,0.006153846454620361,0.05705284356474876,-0.42315271240510044
1783696081638177800,0.232177734375,-0.15558452946543694,0.06151625271439552,-0.5604692523173987
1783696081648140800,0.242140869140625,-0.25571663630008695,0.15600012452900408,-0.7300469435609876
1783696081658104800,0.252104736328125,-0.20365970132648945,0.2405009469896555,-0.8304614475335925
1783696081668067600,0.262067626953125,-0.15794833598732946,0.3329126887053251,-0.9161739838715642
1783696081678032000,0.272031982421875,-0.2189455332636833,0.47178865995407104,-1.045561119024083
1783696081687994600,0.28199462890625,-0.2700923676550388,0.6338397550851106,-1.2124599464472383
1783696081697958700,0.291958740234375,-0.21816227393150328,0.6977893724262714,-1.310412736481428
1783696081707922700,0.301922607421875,-0.19443243877589703,0.6888537862986326,-1.3601876979976892
1783696081717885700,0.3118857421875,-0.2633680278360844,0.6794932527571916,-1.4279723634570836
1783696081727849700,0.321849609375,-0.30209377207159993,0.7036912899464368,-1.4642466228872537
1783696081737812700,0.331812744140625,-0.24595395169854162,0.6637322045236825,-1.4853651065006852
1783696081747776800,0.34177685546875,-0.0843874252140522,0.5805471408367157,-1.4218142792187631
1783696081757740800,0.35174072265625,0.08159341058135032,0.5377490325957537,-1.3493344416804611
1783696081767703800,0.361703857421875,0.19718144522309303,0.528425323933363,-1.3301944185331462
1783696081777667800,0.371667724609375,0.20052958660721779,0.5125754283726215,-1.2584664222754538
1783696081787630800,0.381630859375,0.07035539273023605,0.5806009168505668,-1.2309350028797983
1783696081797595000,0.391594970703125,-0.09777180744409561,0.6203823076188564,-1.228745968402922
1783696081807558700,0.40155859375,-0.22062252656519413,0.6570908668130636,-1.2703399615511297
1783696081817522000,0.41152197265625,-0.2488783147126436,0.7284352705806494,-1.2690835317492484
1783696081827485700,0.421485595703125,-0.21502222234010696,0.7046136654883622,-1.313601157259196
1783696081837449000,0.431448974609375,-0.14283844513893126,0.654881958591938,-1.3708289189994334
1783696081847412700,0.441412841796875,-0.07884732674360274,0.629848055100441,-1.4150177509464323
1783696081857376800,0.451376708984375,-0.06584229921996593,0.5708662892997265,-1.424274970243871
1783696081867339800,0.46133984375,-0.09136544753313064,0.5063935248672962,-1.450398422537744
1783696081877303800,0.4713037109375,-0.21096739399135112,0.4474412774220109,-1.4608692554086447
1783696081887266800,0.481266845703125,-0.3109323275655508,0.46202392952591176,-1.4929938478134572
1783696081897230800,0.49123095703125,-0.3076823858588934,0.4809247370898723,-1.469275849226117
1783696081907195000,0.50119482421875,-0.24717151079475877,0.4218555852666497,-1.3630427951678632
1783696081917158000,0.511157958984375,-0.2269716033309698,0.327632994736731,-1.2789341868951916
1783696081927122000,0.521121826171875,-0.2584463535249233,0.32400165249705315,-1.264007835920155
1783696081937085000,0.5310849609375,-0.29177170002162456,0.28801643914133307,-1.2392971730336546
1783696081947049000,0.541049072265625,-0.31779636811614037,0.21931261301040647,-1.2074430681332946
1783696081957011700,0.55101171875,-0.33015140729844566,0.16720833176374433,-1.250294660127163
1783696081966976000,0.56097607421875,-0.348922158741951,0.11015928759127855,-1.260477615967393
1783696081976940000,0.57093994140625,-0.3284638926029205,0.02466828504949808,-1.2504185787677764
1783696081986902800,0.58090283203125,-0.25846213561594483,-0.03426438091248274,-1.2398799413576722
1783696081996866800,0.59086669921875,-0.16655425176918506,-0.09477554823756218,-1.2115578099757431
1783696082006830800,0.600830810546875,-0.030083003574609756,-0.17494038732051848,-1.2043467826183885
1783696082016793600,0.610793701171875,0.02395019990801811,-0.20605507203042506,-1.256881637302041
1783696082026757600,0.620757568359375,-0.04087327765822411,-0.2121811536952853,-1.3086688154235482
1783696082036720600,0.630720703125,-0.14532149412631987,-0.23868337617367505,-1.3440990252450107
1783696082046684700,0.6406845703125,-0.18224924902915954,-0.2520484691813588,-1.3530752356439828
1783696082056647700,0.650647705078125,-0.19955226600766182,-0.2369926466077566,-1.3754299830541015
1783696082066611700,0.66061181640625,-0.18072481594085693,-0.17103928822875022,-1.3881138157993553
1783696082076575700,0.67057568359375,-0.18891455213725566,-0.10798018998652696,-1.296290979887545
1783696082086538800,0.680538818359375,-0.1450853472828865,-0.03863748143017292,-1.1920888471350073
1783696082096502800,0.690502685546875,-0.04506196151971817,0.015797873112559317,-1.0950240919817238
1783696082106465800,0.7004658203125,0.06390928533077239,0.05411971272230148,-1.0140855651125311
1783696082116429800,0.710429931640625,0.04334112907648086,0.04501256942003965,-0.9195203716900199
1783696082126393900,0.720393798828125,-0.01215045652091503,0.06618395226448774,-0.8525153853662312
1783696082136356900,0.73035693359375,-0.012156886261701583,0.11325842265039682,-0.7925240771967917
1783696082146321000,0.74032080078125,0.022308862441778182,0.09062047438472509,-0.669200552932173
1783696082156284000,0.750283935546875,-0.00995323873758316,0.08408990357220172,-0.5833054996341467
1783696082166248000,0.760248046875,-0.025032734447717666,0.17534779907763004,-0.5243993563529104
1783696082176211700,0.770211669921875,-0.02236731463074684,0.23980361237525938,-0.4590742128748446
1783696082186175000,0.780175048828125,-0.017400632134079934,0.2546051679268479,-0.4282826957046985
1783696082196138800,0.790138671875,-0.10528758990168571,0.2825210565954447,-0.40418607306331394
1783696082206102000,0.80010205078125,-0.2897650363743305,0.28800942487865683,-0.37829029204547404
1783696082216065800,0.810065673828125,-0.42922611403465266,0.31361908243149517,-0.3192190213304013
1783696082226029800,0.82002978515625,-0.44735330687761304,0.2770274276152253,-0.20928082914389667
1783696082235992800,0.829992919921875,-0.30237083544731136,0.1318394967406988,0.023182503471150993
1783696082245956900,0.839956787109375,-0.08668868789374828,-0.13346768246442078,0.30415333494991065
1783696082255919600,0.849919677734375,0.133047703486681,-0.3878080619752407,0.41992403268218037
1783696082265884000,0.8598837890625,0.2088034939557314,-0.535456245483458,0.359097515797615
1783696082275846700,0.8698466796875,0.04054594539999962,-0.5429004240095615,0.10881656774543225
1783696082285810700,0.879810791015625,-0.20722586937546728,-0.5811579662114381,-0.13650942478049546
1783696082295774700,0.889774658203125,-0.3900947116076946,-0.5640408271938562,-0.2968023145999759
1783696082305737700,0.89973779296875,-0.49523617103695866,-0.4278402126342058,-0.32214477258399127
1783696082315701800,0.90970166015625,-0.502613421806693,-0.20457593938857316,-0.2366550121512264
1783696082325664800,0.919664794921875,-0.3574906651228666,-0.017491233026981353,-0.027559805239923296
1783696082335628800,0.92962890625,-0.13296353233456612,0.1459253052383661,0.2358625100666657
1783696082345592800,0.9395927734375,0.09735212072730064,0.21900252414792776,0.45408484362233426
1783696082355555800,0.949555908203125,0.2565770525217056,0.26962650370895863,0.6060068319922313
1783696082365520000,0.959519775390625,0.2585118199765682,0.2620657130658626,0.5812937579529359
1783696082375483000,0.96948291015625,0.08497837684452533,0.20220278051644563,0.4419199201846495
1783696082385447000,0.979447021484375,-0.2409282324910164,0.14169891971498727,0.2809626116396859
1783696082395410700,0.98941064453125,-0.6478127508580684,0.08574117791056632,0.18815913066007195
1783696082405373700,0.999373779296875,-0.9531208088010549,0.08423866439312697,0.14527623021248728
1783696082415337700,1.009337646484375,-1.072156353548169,0.13516425724923609,0.1741248331539333
1783696082425300700,1.01930078125,-1.0242354954659938,0.21891981430053709,0.2657095859935507
1783696082435264800,1.0292646484375,-0.856406985977292,0.3282496653303504,0.4601336587999016
1783696082445227500,1.0392275390625,-0.5955307749569416,0.423043041485548,0.6414302102141082
1783696082455191600,1.049191650390625,-0.32119887003600595,0.49297202549725766,0.7544152958158403
1783696082465155800,1.05915576171875,-0.1590975060224533,0.4906026660174131,0.8243613770928233
1783696082475118600,1.06911865234375,-0.056097150275111196,0.4730570724546909,0.8319783549025654
1783696082485082600,1.07908251953125,-0.13954174168109892,0.3931014922082424,0.8559152569375932
1783696082495045600,1.089045654296875,-0.23782851291000842,0.30292262411117554,0.875879090623185
1783696082505009700,1.099009765625,-0.1693979507625103,0.21527648936212063,0.9189396491926163
1783696082514973700,1.1089736328125,0.0028349311649799344,0.13114040856063366,1.0130877131815998
1783696082524936700,1.118936767578125,0.1841109512478113,0.0687409432709217,1.1101229499794543
1783696082534900700,1.128900634765625,0.21873042920827865,0.05394084902405739,1.2052152360159902
1783696082544863700,1.13886376953125,0.13142214811146258,0.035220366463065145,1.2948121395066379
1783696082554827800,1.148827880859375,-0.032874095597863195,0.03358545873761177,1.385125155377388
1783696082564791600,1.15879150390625,-0.26546821498572826,0.048853170496225354,1.436169990698993
1783696082574754800,1.1687548828125,-0.5739736076653004,0.09782032276093959,1.3897424399144946
1783696082584718600,1.178718505859375,-0.7865677260756492,0.2178033774912357,1.2356122009105979
1783696082594681900,1.188681884765625,-0.7688134581983089,0.33007951110601425,1.0747419130619615
1783696082604645600,1.198645751953125,-0.7100719308942556,0.4280623309522867,1.000567838826403
1783696082614608600,1.208608642578125,-0.6455734474986792,0.5749456675678492,0.9529793545037507
1783696082624572700,1.21857275390625,-0.6067910046398639,0.7195218962848186,0.9033460664805024
1783696082634536700,1.22853662109375,-0.5766174001723527,0.7940729871392249,0.856843989155069
1783696082644499700,1.238499755859375,-0.5601169317483902,0.7853039897501468,0.7647823029860854
1783696082654463700,1.248463623046875,-0.44600247679054733,0.7854232322156429,0.7426104378622025
1783696082664426800,1.2584267578125,-0.23574936854839323,0.7469231134295463,0.7846786974586546
1783696082674390800,1.268390869140625,0.027726211315393445,0.7141302663743495,0.7874160134680569
1783696082684354800,1.278354736328125,0.2786936072617769,0.5948731878310441,0.8428644905760884
1783696082694317800,1.28831787109375,0.4033189348399639,0.5005646725833416,0.8992422113582491
1783696082704281900,1.29828173828125,0.47333004417717456,0.4546095616161823,0.9144853001322597
1783696082714244900,1.308244873046875,0.5592758047491312,0.37530923040807246,0.9347440251111984
1783696082724209000,1.318208984375,0.6689993312716483,0.2914905449926853,0.9321073929972946
1783696082734173000,1.3281728515625,0.7735165213227272,0.1781722088485956,0.8803814435437322
1783696082744135700,1.3381357421875,0.8434457975953817,0.03120470108091831,0.8382975479867308
1783696082754100000,1.348099853515625,0.8329138821870088,-0.0531166731595993,0.7371744573533534
1783696082764062700,1.358062744140625,0.7932447196215391,-0.14202479066848753,0.6408595707193017
1783696082774026800,1.36802685546875,0.6650543930381536,-0.2285913134872913,0.5797116398606449
1783696082783990500,1.377990478515625,0.4902408469676971,-0.27510639642477036,0.5168440456025302
1783696082793953500,1.38795361328125,0.3898942205995321,-0.3194686852425337,0.39636666801664977
1783696082803917600,1.39791748046875,0.3975403514385223,-0.3670265552312135,0.2773337170854211
1783696082813880600,1.407880615234375,0.42599546155035495,-0.4258966773509979,0.16827154054846613
1783696082823844600,1.4178447265625,0.44683366691768167,-0.4836287353515625,0.059878312781639395
1783696082833807600,1.4278076171875,0.437159245121479,-0.5466302581876517,-0.02508413584139198
1783696082843771600,1.437771728515625,0.34799861415624617,-0.5226069930434226,-0.07277136783078313
1783696082853735700,1.447735595703125,0.22269114953279495,-0.48146132818460463,-0.14496957541611044
1783696082863698700,1.45769873046875,0.12036708561182022,-0.4175689939886331,-0.20551161280348895
1783696082873662700,1.467662841796875,0.05553659378290176,-0.3238070067077875,-0.2333532671920955
1783696082883625700,1.477625732421875,-0.023336451923847198,-0.21277298210859297,-0.1879845412781462
1783696082893589800,1.48758984375,-0.12092296592891215,-0.10139642768204211,-0.16418255420178174
1783696082903553800,1.4975537109375,-0.2198351755797863,-0.010453004953265189,-0.1316464583866298
1783696082913516800,1.507516845703125,-0.2508347094774246,0.06549392417371272,-0.1607859340334311
1783696082923480800,1.517480712890625,-0.34046588056385513,0.041893268355727195,-0.25043785564694554
1783696082933443800,1.52744384765625,-0.5095172098457813,0.02228898869752884,-0.26771617657560853
1783696082943407900,1.537407958984375,-0.697454441383481,0.07228899114131927,-0.27202340878285464
1783696082953371000,1.547370849609375,-0.7359580673009156,0.11900924126207828,-0.29907964841481294
1783696082963335000,1.5573349609375,-0.6387152521669864,0.18434008382856845,-0.3016911460874602
1783696082973298700,1.567298583984375,-0.5721943230330944,0.15437164654433727,-0.21800898306593297
1783696082983261700,1.57726171875,-0.5224678768336772,0.055638885113596916,-0.15443481144104151
1783696082993225700,1.587225830078125,-0.4812093992501497,-0.20862696834504604,0.032082689491845666
1783696083003188700,1.597188720703125,-0.3267629339039326,-0.5208557654619217,0.2664383934584446
1783696083013152800,1.60715283203125,-0.0907312412828207,-0.7398024677693843,0.3358749360444024
1783696083023116800,1.61711669921875,0.11299392649531363,-0.9297223975569009,0.27755439236508683
1783696083033079600,1.62707958984375,0.23219722902476786,-1.1132114175140857,0.2265855266228318
1783696083043043600,1.637043701171875,0.2528635849565267,-1.2220704361617565,0.24774046978913247
1783696083053006600,1.647006591796875,0.24261165553331374,-1.1831529687464237,0.22397519799396395
1783696083062970600,1.656970703125,0.16400865893959998,-0.9840525381594896,0.13079480999335646
1783696083072933600,1.66693359375,0.04191197305619716,-0.6789730282753705,0.07459127673432231
1783696083082897700,1.676897705078125,-0.10505378114581107,-0.3609235621809959,-0.001040595094114542
1783696083092861700,1.68686181640625,-0.14686112478375435,-0.08399696459174155,-0.11202621397431939
1783696083102824700,1.69682470703125,-0.12095453011095524,0.1832441052854061,-0.16588932158704847
1783696083112788700,1.706788818359375,0.007814473143219947,0.39512043081521986,-0.185933819293417
1783696083122751700,1.716751708984375,0.22030279309153555,0.4786918634712696,-0.1333609706869349
1783696083132715800,1.7267158203125,0.46081601504087444,0.4692372219055891,-0.06194167505223304
1783696083142679800,1.7366796875,0.7114198383718728,0.3906704656690359,0.006697744072973728
1783696083152642800,1.746642822265625,0.8759218337863683,0.2639250771969557,0.003313179668597877
1783696083162606600,1.756606689453125,0.9152402832180261,0.22069559180140494,-0.01924446990247816
1783696083172569900,1.76656982421875,0.7410808171421289,0.2125765827536583,-0.019925474436581134
1783696083182533600,1.77653369140625,0.4336912767499685,0.24990648871660232,0.04658529862947762
1783696083192497000,1.786496826171875,0.10276303986012936,0.34449498994946476,0.14368972820602358
1783696083202460700,1.796460693359375,-0.19185645080804822,0.42362990146279333,0.14707980903573334
1783696083212424700,1.8064248046875,-0.41179099510908124,0.5410393063127994,0.10834427405856549
1783696083222387700,1.8163876953125,-0.4749351412862539,0.5748702642440796,0.12344382617603987
1783696083232351700,1.826351806640625,-0.4079541934251785,0.5225245754569768,0.11931936665717512
1783696083242314800,1.836314697265625,-0.23797113625109195,0.4480974032431841,0.052041627806611354
1783696083252278800,1.84627880859375,-0.08058277223408222,0.40915772399604317,-0.1073877405187115
1783696083262242800,1.856242919921875,-0.1550362479329109,0.30778409266769885,-0.2061445404121652
1783696083272205800,1.866205810546875,-0.3928706060618162,0.21331424937844276,-0.25652046349626034
1783696083282169900,1.876169921875,-0.6842226193666457,0.13488719387352466,-0.21907759867813437
1783696083292134400,1.886134521484375,-0.8580150056958198,0.08778817356824874,-0.08322660127375274
1783696083302098200,1.89609814453125,-0.8221288688004016,0.07393091312944888,0.03488028432112187
1783696083312062200,1.906062255859375,-0.5637812994748354,0.04247311407029628,0.11767265889607369
1783696083322025200,1.916025146484375,-0.2693272285014391,-0.002573065358400345,0.22550624348614365
1783696083331989200,1.9259892578125,0.003582534661889076,-0.0406336236834526,0.22631529484670607
1783696083341952300,1.9359521484375,0.18389643171429634,-0.07826455841958523,0.2268054895164445
1783696083351916300,1.945916259765625,0.31814825029373167,-0.06487666905820369,0.1877948639249429
1783696083361879300,1.95587939453125,0.3323468715161085,-0.07469079158604144,0.22038035183977334
1783696083371843300,1.96584326171875,0.2953711858183145,0.06955635130703448,0.13015822912286967
1783696083381807400,1.975807373046875,0.34863574301600453,0.17547814745903015,-0.013725195024348795
1783696083391770400,1.985770263671875,0.36634208009839053,0.19847733025252817,0.13987130242902784
1783696083401734400,1.995734375,0.2484779172182083,0.23463293173909186,0.12700173785332589
1783696083411697400,2.005697509765625,0.2072083337187767,0.35553368583619593,0.08366221621204167
1783696083421661400,2.015661376953125,0.21643734983503818,0.3755582367330789,0.15648936935067176
1783696083431624400,2.02562451171875,0.21455109769701958,0.31901158912479877,0.18550123656243084
1783696083441588500,2.03558837890625,0.25505846465229987,0.2987327712059021,0.17464239075463264
1783696083451552500,2.045552490234375,0.30605975309312344,0.28586685989201066,0.22238394674714654
1783696083461515500,2.055515625,0.34759938570559024,0.21182371855974197,0.26103209570180624
1783696083471479300,2.065479248046875,0.4223158962547779,0.11624036107063293,0.21688187873214482
1783696083481442300,2.0754423828125,0.4923854577809572,-0.027526304829120635,0.15882957580126822
1783696083491406000,2.085406005859375,0.5052092835187911,-0.20034078603684902,0.1128809311075136
1783696083501370400,2.095370361328125,0.42003392279744145,-0.3589508008033037,0.044341684421151877
1783696083511333000,2.1053330078125,0.43039574233591554,-0.4338169489562511,-0.06592223258838058
1783696083521297200,2.115297119140625,0.4885387192249298,-0.5503863958507776,-0.08325615616180002
1783696083531260200,2.12526025390625,0.4746528172135353,-0.6253863995164632,-0.045063642020151014
1783696083541224200,2.13522412109375,0.31949557324945926,-0.5854378354877233,-0.05003521988764405
1783696083551188200,2.145188232421875,0.052802784904837606,-0.5201514165848493,-0.09253094764854758
1783696083561151200,2.155151123046875,-0.17884557806551454,-0.4515501740455627,-0.10474844152368605
1783696083571115300,2.165115234375,-0.3279728942155838,-0.4459218127697706,-0.08040752526503056
1783696083581078300,2.175078369140625,-0.3874368905752897,-0.4208680355340242,-0.07076558096632361
1783696083591042300,2.185042236328125,-0.4071797019213438,-0.33458442130982874,-0.06467157494015992
1783696083601005300,2.19500537109375,-0.3874807297170162,-0.24582535688281057,-0.01945241356473416
1783696083610969300,2.20496923828125,-0.3347124316036701,-0.17910101413130758,0.053304048957861956
1783696083620933400,2.214933349609375,-0.24742577781677244,-0.1234831718057394,0.11074826646037399
1783696083630896400,2.224896484375,-0.10236731854081153,-0.09956161347031593,0.13756196604073045
1783696083640860400,2.2348603515625,-0.014174071303009987,-0.133948451718688,0.19159505992550402
1783696083650823400,2.244823486328125,-0.015326163947582244,-0.13560031057894228,0.22885686908829955
1783696083660787500,2.254787353515625,-0.1370773973941803,-0.06209726747274399,0.208758997226879
1783696083670751200,2.264751220703125,-0.24772680658996105,-0.02273380985558033,0.22972422650735824
1783696083680714500,2.274714599609375,-0.39116438666582104,-0.0010673369705677031,0.27371848573032764
1783696083690678300,2.28467822265625,-0.5015910930216312,0.031335049462318416,0.2807507589872926
1783696083700641300,2.294641357421875,-0.6038233870059252,0.02062894653081894,0.3619284283746034
1783696083710605300,2.304605224609375,-0.5905956566423177,-0.052446811074018475,0.5359384029772132
1783696083720568300,2.314568359375,-0.4593675697982311,-0.22910335466265677,0.7235120618995279
1783696083730532400,2.324532470703125,-0.31877485775947567,-0.40705461423695083,0.7282455201622098
1783696083740496400,2.334496337890625,-0.2785457232236862,-0.47845805471539493,0.47001894686780865
1783696083750459100,2.344459228515625,-0.4351882373094558,-0.4530786987870931,0.011031243232637643
1783696083760423400,2.35442333984375,-0.7528086643368005,-0.36382454431951045,-0.46306003110799937
1783696083770386200,2.36438623046875,-1.0939812318652868,-0.17369184856414793,-0.7654705775111913
1783696083780350200,2.37435009765625,-1.4196212992191315,0.05486322456598282,-0.8408321079656481
1783696083790314200,2.384314208984375,-1.4909686255961656,0.2626782920062542,-0.6636100394487381
1783696083800277200,2.39427734375,-1.26495914529562,0.4854261401623487,-0.21127499863579868
1783696083810241300,2.4042412109375,-0.7159077974408865,0.6331944429188966,0.3703210667319596
1783696083820204300,2.414204345703125,-0.020241408517956732,0.6045692369371652,0.8659295782126486
1783696083830168300,2.424168212890625,0.42270927948653697,0.4221411242097616,1.2343737451568244
1783696083840131300,2.43413134765625,0.5421592502534389,0.19973054518401623,1.3239087623924015
1783696083850095400,2.444095458984375,0.48701545518040656,0.06245441034734249,1.1460754301093519
1783696083860059100,2.45405908203125,0.19402911867201328,-0.10494739816188811,0.8138120721582323
1783696083870022400,2.4640224609375,-0.18918167864084243,-0.1957961283445358,0.48800833867527543
1783696083879986200,2.473986083984375,-0.5414104777127504,-0.029155367335677144,0.24980953114815055
1783696083889949400,2.483949462890625,-0.7492138547152281,0.33019057026505466,0.12553988513983785
1783696083899913200,2.493913330078125,-0.8204688266336917,0.7510767259776592,0.13962963916026055
1783696083909877200,2.503877197265625,-0.7045756715655327,1.10443774394989,0.23173457994908092
1783696083919840300,2.51384033203125,-0.4880933135449886,1.3655588696420191,0.38752157318405805
1783696083929804300,2.52380419921875,-0.22299919256865977,1.4674533099740743,0.5413090631648898
1783696083939767300,2.533767333984375,0.04474105900228023,1.465027544131875,0.6418276120338589
1783696083949731300,2.5437314453125,0.3279553585588932,1.3000269515454768,0.6383182156734168
1783696083959694300,2.5536943359375,0.6025795244246721,1.0116209285646676,0.6405161641091108
1783696083969658400,2.563658447265625,0.7699035915225744,0.745465315836668,0.6159031163781881
1783696083979622400,2.573622314453125,0.7476555193573236,0.4822761516988277,0.5775470822378993
1783696083989585400,2.58358544921875,0.6619283699721098,0.30334464891552926,0.5862814467050135
1783696083999549400,2.593549560546875,0.6121884797692299,0.1450724878013134,0.5760607892028987
1783696084009512400,2.603512451171875,0.6663888565123081,0.0016746552139520643,0.6044803165446967
1783696084019476500,2.6134765625,0.8433031742542981,-0.07076163544356823,0.6325007615663111
1783696084029440500,2.6234404296875,0.9481792607456445,-0.06911854441165924,0.62286988665089
1783696084039403300,2.6334033203125,0.993531729644537,0.0365033920109272,0.5912897033210843
1783696084049367600,2.643367431640625,0.8854688298106193,0.14722645096480846,0.5167051485884935
1783696084059330300,2.653330322265625,0.6671066493928433,0.31018647763431073,0.4081756541561335
1783696084069294300,2.66329443359375,0.33586627781391143,0.48343759669363495,0.27116116593033074
1783696084079257300,2.67325732421875,-0.07254150459766387,0.6243243232429028,0.10120229334942996
1783696084089221000,2.68322119140625,-0.44606502063274384,0.6657078885108232,-0.04511157281510532
1783696084099185200,2.69318505859375,-0.7075491344183683,0.6453174269109964,-0.14581125040464102
1783696084109148200,2.703148193359375,-0.8685065890938043,0.565372952580452,-0.2349186898779124
1783696084119112200,2.7131123046875,-0.8925421291977167,0.4510667744427919,-0.3145605280000716
1783696084129075200,2.7230751953125,-0.8001368172228336,0.35653088018000123,-0.3699057639293372
1783696084139039200,2.733039306640625,-0.6631091041892767,0.26886253359913825,-0.3635704964932054
1783696084149003300,2.743003173828125,-0.5401987638354301,0.19019465507566927,-0.3141872377082705
1783696084158966300,2.75296630859375,-0.42805005599260326,0.12044541154503821,-0.2604696760460734
1783696084168930300,2.762930419921875,-0.35219898845553393,0.06096621761620044,-0.2456600833185017
1783696084178893300,2.772893310546875,-0.26397476155757904,0.006913724911212921,-0.19638145395182072
1783696084188857300,2.782857421875,-0.15503098723590372,-0.04513853388726711,-0.18067644675448535
1783696084198820400,2.7928203125,-0.08478548462092876,-0.08875029659867287,-0.06728862557075917
1783696084208784400,2.802784423828125,0.056364276778697965,-0.06450315957069397,-0.14482304308488964
1783696084218748400,2.81274853515625,0.29930151100456714,-0.0370434902369976,-0.21012100629508493
1783696084228711400,2.82271142578125,0.4589057975053787,-0.0821867002993822,-0.08881934324689209
1783696084238675500,2.832675537109375,0.47334757983386516,-0.08563713301420212,-0.09082863724268972
1783696084248638500,2.842638427734375,0.4201847294449806,-0.08649871827960014,-0.13322357151024042
1783696084258602500,2.8526025390625,0.3827133691847324,-0.13743629383444786,-0.04604023196734488
1783696084268566300,2.862566162109375,0.3578571603477001,-0.1556599327892065,0.03901245222240686
1783696084278529300,2.872529296875,0.34475451766848564,-0.14240589894056319,0.07458543151542545
1783696084288492000,2.882491943359375,0.39297698904573913,-0.10022563033699988,0.09447948790043592
1783696084298455000,2.892455078125,0.42937107546329495,-0.0781914931833744,0.13075688913576305
1783696084308419000,2.902419189453125,0.44891631841063495,-0.041706221351027487,0.2057899913534522
1783696084318382000,2.912382080078125,0.4666834457695484,-0.0007832593321800232,0.2590264915004372
1783696084328346000,2.92234619140625,0.5102993001341819,-0.030799627411365507,0.32161738770902154
1783696084338310000,2.932309814453125,0.5330173278987408,-0.1222539222717285,0.3784015704002231
1783696084348273200,2.942273193359375,0.5652057793200016,-0.21534838555455207,0.36582441289983686
1783696084358237000,2.95223681640625,0.5229939465343952,-0.320007029902935,0.3353010451465845
1783696084368200000,2.962199951171875,0.4000117099881172,-0.3517348780751228,0.3239082020599395
1783696084378164000,2.9721640625,0.17305588874816893,-0.3944090676754713,0.35571751797050233
1783696084388128000,2.9821279296875,-0.18634324034452437,-0.4155535625129938,0.3823741272930056
1783696084398090800,2.9920908203125,-0.5023509714782237,-0.4268202219367027,0.4858020608026534
1783696084408054800,3.0020546875,-0.5325742603063583,-0.5412608401089907,0.6488983541376888
1783696084418017800,3.012017822265625,-0.44216801319420335,-0.6422779130846261,0.7531428647272288
1783696084427981800,3.02198193359375,-0.3023988924980163,-0.560648846668005,0.7051086824636906
1783696084437944800,3.03194482421875,-0.2603413734912872,-0.5476601857572794,0.6129360102009028
1783696084447908900,3.041908935546875,-0.3328735257387161,-0.47755029222071166,0.4511124402154237
1783696084457873000,3.051872802734375,-0.5230079750597477,-0.3709405138045549,0.2731799584068358
1783696084467836000,3.0618359375,-0.8188257356017827,-0.28924364284873005,0.10689188329316675
1783696084477800000,3.071800048828125,-0.9866413856089115,-0.13242927932739257,-0.0009643880527466534
1783696084487763000,3.081762939453125,-0.994872622859478,0.0010234978288412094,-0.060342971151322124
1783696084497727000,3.09172705078125,-0.9081383422583341,0.0830757580935955,-0.06774126470908522
1783696084507691000,3.10169091796875,-0.7095242338836193,0.21472703878581523,-0.05447846303209662
1783696084517654000,3.111654052734375,-0.49928106251358984,0.3057774290204048,-0.012542305382713675
1783696084527618000,3.1216181640625,-0.45129590702354905,0.3250777572959661,0.03452303184866905
1783696084537581000,3.1315810546875,-0.35480127990841864,0.481540823161602,-0.07810052696429193
1783696084547544800,3.141544921875,-0.17599544933140276,0.5698614961713552,-0.047286286505684255
1783696084557508000,3.151508056640625,-0.16017068821191788,0.5281926842212676,0.06957030676715076
1783696084567471900,3.161471923828125,-0.17113924147188664,0.6166723471850156,0.033540596682578326
1783696084577436000,3.171435791015625,-0.2360515663653612,0.5537579181104898,-0.1157736934069544
1783696084587399000,3.18139892578125,-0.2812216644346714,0.5689969882965088,-0.1396899910453707
1783696084597363000,3.191363037109375,-0.26966332858800884,0.6083639530450106,-0.193456141089648
1783696084607326000,3.201325927734375,-0.2565677001714706,0.62169981995821,-0.28124862550683316
1783696084617290000,3.2112900390625,-0.3001619272261858,0.6671189243525266,-0.4117306432239711
1783696084627254000,3.22125390625,-0.4399906691551208,0.6969552596896886,-0.5459724518660456
1783696084637217000,3.231217041015625,-0.6438584602743387,0.7127052020072937,-0.6302608006197958
1783696084647181000,3.24118115234375,-0.9000421295642852,0.7042074227750301,-0.6892633900128304
1783696084657143800,3.251143798828125,-1.0105413166344166,0.6636696606814861,-0.7014575395449996
1783696084667107800,3.26110791015625,-0.8780670291215181,0.590779781037569,-0.6619962475765496
1783696084677070800,3.27107080078125,-0.5828261916846037,0.49193654496967787,-0.5430843657417223
1783696084687035000,3.281034912109375,-0.2127197906166315,0.4285726185619831,-0.3951438847560435
1783696084696999000,3.2909990234375,0.13052490701079367,0.3782078744590282,-0.3025618645073846
1783696084706962000,3.3009619140625,0.4510492387861013,0.26468437113165855,-0.246592468797788
1783696084716926000,3.310926025390625,0.5988818389505147,0.09488017765581608,-0.13812467795740813
1783696084726889000,3.320888916015625,0.627179128152132,0.01880757632255554,-0.3399535471275449
1783696084736853000,3.33085302734375,0.6195505329698324,-0.05278524924814701,-0.4702218490287661
1783696084746816800,3.340816650390625,0.5358277091443538,-0.12646598700881004,-0.34464269132446496
1783696084756780000,3.350780029296875,0.46353521087169647,-0.059551090121269225,-0.33384408780392255
1783696084766743800,3.360743896484375,0.45059974145293236,0.06047521922886371,-0.3221226338174194
1783696084776706800,3.370706787109375,0.37516193089187144,0.23191724303960798,-0.22271164433155208
1783696084786670800,3.3806708984375,0.3350309960335493,0.4286579587578773,-0.16144246171340346
1783696084796633900,3.3906337890625,0.2475882749021053,0.5586924519032239,-0.15201017811000347
1783696084806598000,3.400597900390625,0.11977613398134708,0.6308224530905485,-0.13426928117088974
1783696084816562000,3.41056201171875,0.013643909949064253,0.61630994361341,-0.170351963551715
1783696084826525000,3.42052490234375,-0.07876023298203945,0.5177729970157147,-0.22598631862066684
1783696084836489000,3.430489013671875,-0.13578501949608326,0.43140170450806614,-0.28829090870115903
1783696084846452000,3.440451904296875,-0.09806289934515952,0.3164513832479715,-0.33103480253685263
1783696084856416000,3.450416015625,-0.07151449963748455,0.18196575591266154,-0.3338669937554747
1783696084866380000,3.460380126953125,-0.0890273599743843,0.04970306532382965,-0.296996083606407
1783696084876343000,3.470343017578125,-0.12828735721707343,-0.07572773341834545,-0.2522102721469477
1783696084886307000,3.48030712890625,-0.03169979112148285,-0.18401742774546145,-0.20986341480482368
1783696084896270000,3.49027001953125,0.14741758962273596,-0.32662849386930465,-0.15164280610233544
1783696084906234000,3.500234130859375,0.3051508215546608,-0.4754752395123243,-0.06226367354821413
1783696084916196900,3.51019677734375,0.40160862379074097,-0.6245978794872761,-0.05055814778320491
1783696084926161200,3.5201611328125,0.4179097702503204,-0.7309902157604694,-0.07286514706145972
1783696084936125000,3.530125,0.414053679344058,-0.7696054853588342,-0.1004120562871918
1783696084946088000,3.540087890625,0.30991818208694455,-0.7900491384506225,-0.09384922717288136
1783696084956051700,3.5500517578125,0.16492109760940074,-0.7053063239276409,-0.09155117936357855
1783696084966015000,3.560014892578125,0.05843114618062973,-0.6107359428733586,-0.10767861322406679
1783696084975978800,3.569978759765625,0.05777706618607044,-0.5432634121030568,-0.05713350758552551
1783696084985942800,3.57994287109375,0.14732640420794485,-0.4691933827638626,0.02736614583134651
1783696084995905800,3.58990576171875,0.25718027911186214,-0.4104366578906774,0.13799809243567288
1783696085005869800,3.599869873046875,0.3300485314458608,-0.30903087785840033,0.24885376479327678
1783696085015832800,3.609832763671875,0.2869096469432115,-0.22649755607843397,0.3575983632810414
1783696085025796900,3.619796875,0.16588614324927328,-0.14042612330019474,0.4948566702000797
1783696085035759900,3.629759765625,0.053144730210304254,-0.0625152006238699,0.5812717287842184
1783696085045724000,3.639723876953125,0.008402502164244652,-0.006592822393774986,0.6127180566012859
1783696085055688000,3.64968798828125,-0.03719078975319862,-0.021485855621099472,0.6070109310008585
1783696085065651000,3.65965087890625,-0.1321849491775036,-0.059632923185825346,0.5436771074704826
1783696085075615000,3.669614990234375,-0.2443219665825367,-0.07423486451208591,0.4353532186128199
1783696085085578000,3.679577880859375,-0.4260480685204267,-0.09133680596053599,0.3400619028728455
1783696085095542000,3.6895419921875,-0.5938134496450423,-0.0683136577695608,0.24541085779778657
1783696085105506000,3.699506103515625,-0.7665297311753034,-0.04616495432555675,0.18487616346664726
1783696085115469000,3.709468994140625,-0.9079641547352075,-0.0475181225001812,0.13704809823445974
1783696085125433000,3.71943310546875,-1.0489245310425759,-0.21649989367723463,0.22087262886874376
1783696085135396000,3.72939599609375,-1.1475222679167985,-0.3880827872633934,0.31275815475322305
1783696085145360000,3.73935986328125,-1.159531854662299,-0.4835545010715723,0.22946970375701783
1783696085155323100,3.7493232421875,-1.1678466785430908,-0.6105144090771675,0.03706409463360905
1783696085165287000,3.759286865234375,-1.1281927135467529,-0.6862503258019685,-0.1864014002725482
1783696085175251000,3.7692509765625,-1.0719745672404766,-0.7842097647726536,-0.4405534176044166
1783696085185214000,3.7792138671875,-1.0210188715070485,-0.7097013440161943,-0.7507627646576612
1783696085195178000,3.789177978515625,-1.098781325623393,-0.42183483473956584,-0.9507225154876708
1783696085205140700,3.799140625,-1.1995260113984345,-0.0008738602250814438,-0.9732988697592169
1783696085215104800,3.809104736328125,-1.2542886981993913,0.4181669598817825,-0.7401362297683953
1783696085225069000,3.819069091796875,-1.101757711085677,0.7633166143476963,-0.30805158449746667
1783696085235031800,3.82903173828125,-0.7474281403422355,0.9700894792586564,0.1639704458210617
1783696085244995800,3.838995849609375,-0.2813549354255199,0.9724170454233885,0.5859328524630516
1783696085254958800,3.848958740234375,0.21425474509894846,0.8027367705881595,0.7822098231270909
1783696085264923000,3.8589228515625,0.6081418347269296,0.5133996042370796,0.7207130788307636
1783696085274886000,3.868885986328125,0.8080331234306096,0.15401625723540782,0.6192820912919939
1783696085284850000,3.878849853515625,0.7942629567533731,-0.14674655849337576,0.4799036504138261
1783696085294814500,3.888814453125,0.5692395648807287,-0.2792506566226482,0.2538040806770325
1783696085304777500,3.898777587890625,0.20459493634998796,-0.2085235079705715,0.05207593193501234
1783696085314741200,3.9087412109375,-0.15850304726064204,0.07009235787987708,-0.008616875567287206
1783696085324704500,3.91870458984375,-0.4243196372926235,0.4754577038556337,0.07717815142236649
1783696085334668300,3.928668212890625,-0.522666029754281,0.9568319382786751,0.2280868710964918
1783696085344632300,3.93863232421875,-0.5031330617666244,1.3333131350755691,0.3955375602487474
1783696085354595300,3.94859521484375,-0.44168812072277064,1.5624784490585326,0.614640549096465
1783696085364559400,3.958559326171875,-0.38741350969970223,1.689171230560541,0.781865028277412
1783696085374522000,3.968522216796875,-0.28886662622988224,1.6545184348523616,0.8555544608011841
1783696085384486100,3.978486083984375,-0.07548340326845646,1.502719269144535,0.8421623336561024
1783696085394449200,3.98844921875,0.28725217677056786,1.2519780831694602,0.8083750687360763
1783696085404413200,3.9984130859375,0.7606301517426968,0.9469014958947897,0.8429577948827296
1783696085414377200,4.008377197265625,1.2010679801434279,0.6529682339251041,0.902487111563608
1783696085424340200,4.01834033203125,1.4219617248654364,0.39154315685033797,0.9164573308575897
1783696085434304300,4.02830419921875,1.6190069764882324,0.16076748506128788,0.9334029127005488
1783696085444267300,4.038267333984375,1.602629257661104,-0.00350830038189888,1.0694503825251012
1783696085454231300,4.048231201171875,1.6042115584164858,-0.1001122330904007,1.1863632360298186
1783696085464195300,4.0581953125,1.430014098417759,-0.1039110408514738,1.2552063975661993
1783696085474158300,4.068158447265625,1.327423492515087,-0.028077508971095084,1.202380158720538
1783696085484122400,4.078122314453125,1.1412965252697467,0.020746435430645943,1.1451225863639265
1783696085494085400,4.08808544921875,0.9338251567006111,0.17497312054634093,0.9869386880550532
1783696085504049400,4.09804931640625,0.7150310146063565,0.2962736876159906,0.7449122119985521
1783696085514012400,4.108012451171875,0.4919570032358169,0.4268821812570095,0.4301578419268131
1783696085523976400,4.1179765625,0.21658055769801138,0.5473462975025176,0.17039996741190552
1783696085533940200,4.127940185546875,-0.1226549042880535,0.6379395916193723,-0.048197775327414275
1783696085543903200,4.1379033203125,-0.44462826582789416,0.7059387766122818,-0.13498583194240926
1783696085553867300,4.1478671875,-0.8756272347539663,0.7677741782784462,-0.13054317331984638
1783696085563830300,4.157830322265625,-1.1778034244120121,0.885928264015913,-0.06361260393913835
1783696085573794300,4.167794189453125,-1.332921505409479,0.9044891721010208,0.09366196097247302
1783696085583758300,4.17775830078125,-1.3292337568074464,0.9789531691938638,0.2684339694561437
1783696085593721300,4.187721435546875,-1.1549696613132954,1.0232926616579294,0.37623138675428924
1783696085603685400,4.197685302734375,-0.8066881385624408,0.9268775295197963,0.47469183404967186
1783696085613648400,4.2076484375,-0.4776011456251144,0.7748217587023973,0.5583584707085043
1783696085623612400,4.2176123046875,-0.3164911307364702,0.5958183597266674,0.538388572608307
1783696085633576400,4.227576416015625,-0.33720307937562466,0.410776849630475,0.42101785580087453
1783696085643539500,4.23753955078125,-0.527390135666728,0.2222130106270313,0.3496888687981292
1783696085653503500,4.24750341796875,-0.7388496970891952,0.16188333734869956,0.3026837007887661
1783696085663466200,4.25746630859375,-0.9191647631853819,0.16015958229601382,0.31437907048594205
1783696085673430300,4.26743017578125,-1.0123317071825266,0.1924327893912792,0.37752621233779937
1783696085683394300,4.277394287109375,-1.0654694231301545,0.28701252279579637,0.45804486982710657
1783696085693357300,4.287357421875,-1.135672840169072,0.35823709957599636,0.5357281577600166
1783696085703321300,4.2973212890625,-1.1058213072627783,0.4433066618353128,0.583510447621718
1783696085713284400,4.307284423828125,-0.9632441434085368,0.4994172561138868,0.5875531471412628
1783696085723248000,4.317248046875,-0.6917144364267587,0.4743365908712148,0.5327284644873812
1783696085733212200,4.327212158203125,-0.46164778968989845,0.42605099112987516,0.42882147875651716
1783696085743175200,4.337175048828125,-0.40926761411130425,0.3625228140711784,0.3998295218216255
1783696085753139200,4.34713916015625,-0.5014952314317226,0.32823592906594273,0.34883279995806515
1783696085763102200,4.357102294921875,-0.6334913800388574,0.3440881627142429,0.3075204367628321
1783696085773066200,4.367066162109375,-0.642244595336914,0.35152561923861503,0.324294461431168
1783696085783029200,4.377029296875,-0.5731605377167462,0.3516787639737129,0.3680257588690147
1783696085792993300,4.3869931640625,-0.4402840991437435,0.3651204293489456,0.4151977348126471
1783696085802957300,4.396957275390625,-0.27448154252469537,0.36419103954434395,0.4579998251089826
1783696085812920300,4.40692041015625,-0.14777122536599635,0.3047749739795923,0.5397066694695503
1783696085822884400,4.41688427734375,-0.11350246053934096,0.1824164222896099,0.6660310560505837
1783696085832847400,4.426847412109375,-0.2012427033126354,0.022937807995080946,0.8711273660514504
1783696085842811400,4.436811279296875,-0.27424714924693105,-0.2205190661907196,1.126324362391606
1783696085852775400,4.446775390625,-0.1446668296098709,-0.3793079446554184,1.2004388884596526
1783696085862738400,4.456738525390625,-0.033904607689380646,-0.43040918633937836,1.0100505374427884
1783696085872702500,4.466702392578125,-0.15416414127349853,-0.33065818777680395,0.632467443818599
1783696085882665500,4.47666552734375,-0.38969957481026646,-0.10590542953908443,0.3597132730757817
1783696085892629500,4.48662939453125,-0.5790647933244705,0.20070903482735156,0.2369136996200308
1783696085902593300,4.49659326171875,-0.646401715016365,0.5632669202119112,0.3080299571875483
1783696085912556300,4.506556396484375,-0.69490124976933,0.9065209701895713,0.4706412434846163
1783696085922520300,4.516520263671875,-0.5689981573402881,1.194103401827812,0.6853449744600802
1783696085932483000,4.526483154296875,-0.2193330712765455,1.2854437149196862,0.8948970948260278
1783696085942447400,4.536447265625,0.1472504163622856,1.2568939122617244,0.9945417834699153
1783696085952411400,4.546411376953125,0.44165012679994103,1.1675193462848663,0.9829880507331341
1783696085962374100,4.5563740234375,0.5751262848317623,0.9490496138393878,0.9303403102595359
1783696085972338200,4.566338134765625,0.4547539385229349,0.7241197454690933,0.8724144101873039
1783696085982301200,4.57630126953125,0.27670973996818066,0.6308826588451862,0.7607687564957887
1783696085992265200,4.58626513671875,0.06885609408318996,0.5296025510191917,0.6842850170783699
1783696086002228200,4.596228271484375,-0.1350946991443634,0.4736754966139793,0.6906726722888649
1783696086012192300,4.606192138671875,-0.29892566342949867,0.5600199011147022,0.7104694057792424
1783696086022156300,4.61615625,-0.4308540074974298,0.7053466559380293,0.6987702001571655
1783696086032119300,4.626119384765625,-0.47149522996544835,0.852934341430664,0.6887446999009699
1783696086042083300,4.636083251953125,-0.4924322195321321,0.9943734411656856,0.6439508147329092
1783696086052046300,4.64604638671875,-0.5661456905186176,1.0858312431573867,0.49503206329960375
1783696086062010400,4.65601025390625,-0.7375625798881054,1.122513498866558,0.3247880901670083
1783696086071974400,4.665974365234375,-0.8012707896888256,1.1351298193335533,0.0803547538981773
1783696086081937400,4.6759375,-0.7336720021903514,1.1066770473092793,-0.1257842974881176
1783696086091901200,4.685901123046875,-0.6590957768946886,1.0482131679028273,-0.1675442491872236
1783696086101864400,4.695864501953125,-0.6413204662293195,1.025656468179822,-0.17236067302562294
1783696086111828200,4.705828125,-0.6471697767794132,0.9620786067605018,-0.11032282585622742
1783696086121792300,4.715792236328125,-0.5553022249430418,0.8765233068108558,0.038956274188915264
1783696086131755300,4.72575537109375,-0.43577159015536304,0.8096832287251949,0.1714287259377539
1783696086141719300,4.73571923828125,-0.34370354731082914,0.7424269710540771,0.2650810422990471
1783696086151682300,4.745682373046875,-0.3731359780222177,0.598808773714304,0.34204080173037943
1783696086161646300,4.755646240234375,-0.4649924239426851,0.4724439089924097,0.3637553880734369
1783696086171610400,4.7656103515625,-0.5140864174574613,0.3387912253499031,0.39857754899915304
1783696086181573400,4.775573486328125,-0.4446463860064745,0.242814484629035,0.4744423162680119
1783696086191537400,4.785537353515625,-0.27769349030852314,0.19393910230100153,0.5503079237870871
1783696086201500400,4.79550048828125,-0.09101941057443619,0.22352643131315708,0.57080856776312
1783696086211464400,4.80546435546875,0.048019642281532285,0.23306173689961432,0.5640653040479868
1783696086221428500,4.815428466796875,0.08813304148316382,0.24530279431343077,0.6365522289142013
1783696086231391500,4.8253916015625,0.025696751314401627,0.3075011840730905,0.715606476406753
1783696086241355500,4.83535546875,-0.15541326455175875,0.402802217489481,0.7804737931147218
1783696086251318300,4.845318359375,-0.3114502139598131,0.5408347236514092,0.8314528697237372
1783696086261282300,4.8552822265625,-0.39044951639473435,0.6604121201902627,0.8637485078465194
1783696086271246000,4.86524609375,-0.40788346627652644,0.7262287004470824,0.9366665906716137
1783696086281209300,4.875209228515625,-0.3576519931644201,0.7687924154102802,0.9658651395618915
1783696086291172600,4.885172607421875,-0.35483401313424107,0.7852472911268472,0.9812035784691572
1783696086301135600,4.895135498046875,-0.39563948625326156,0.7595172220647335,0.9330180050361901
1783696086311099600,4.905099609375,-0.48153906959593296,0.7520984702408313,0.9062257135700434
1783696086321063400,4.9150634765625,-0.5598568195074797,0.714250677883625,0.9089384065948426
1783696086331026400,4.9250263671875,-0.6046878948807716,0.6636807665973902,0.8846125783074646
1783696086340990500,4.934990478515625,-0.5478524934589862,0.5721288565814495,0.8118439869556575
1783696086350953500,4.944953369140625,-0.5485433983325958,0.49679918256998057,0.7796229484390467
1783696086360917500,4.95491748046875,-0.5337251839071512,0.47796471824049946,0.7469549698725342
1783696086370880300,4.96488037109375,-0.5291308418542147,0.47497781138420103,0.7046216295991092
1783696086380844500,4.974844482421875,-0.5074719677537679,0.4537479763507843,0.6779077371314167
1783696086390808600,4.98480859375,-0.505009961554408,0.41941140698492524,0.6309913068514317
1783696086400771300,4.994771240234375,-0.5085118321955203,0.4372381555765867,0.566913460020721
1783696086410735400,5.0047353515625,-0.49166883394420147,0.4376432292461395,0.49605497660655523
1783696086420698400,5.014698486328125,-0.5263911877572536,0.43268823718726634,0.4519428996901959
1783696086430662400,5.024662353515625,-0.5239923099219799,0.47074938003420824,0.4098343080833554
1783696086440626400,5.03462646484375,-0.5214589920520782,0.48909927571713924,0.42254407898746427
1783696086450589400,5.04458935546875,-0.5059522108405828,0.5494260263860226,0.4509337957128882
1783696086460553500,5.054553466796875,-0.48611821407973765,0.6509475417524576,0.45031873255446553
1783696086470516500,5.0645166015625,-0.5405155746996403,0.7754793458282947,0.4388637109518051
1783696086480480500,5.07448046875,-0.6775140616387129,0.8946955078393221,0.4422931374112144
1783696086490444500,5.084444580078125,-0.8699959508687257,0.972981109046936,0.4005315691437572
1783696086500407600,5.094407470703125,-0.9927975701510906,1.0241180065661668,0.3395203068094328
1783696086510371300,5.104371337890625,-1.0833417644292116,1.029287518158555,0.2986104782667942
1783696086520334600,5.11433447265625,-1.0979331843614577,1.002744963669777,0.24763006821721792
1783696086530298400,5.12429833984375,-1.0624819317519665,0.9334785352200269,0.20827355179749427
1783696086540262400,5.134262451171875,-1.0163958878815174,0.8761550580203533,0.21980339220203457
1783696086550225400,5.144225341796875,-0.9565835164755582,0.8379781798392534,0.23084000572953373
1783696086560189400,5.154189453125,-0.9056927026718854,0.7916039666771888,0.2776520440532826
1783696086570152400,5.16415234375,-0.830160784086585,0.7640414214909076,0.30234087870046494
1783696086580116500,5.174116455078125,-0.7870499566346406,0.7880021427929401,0.33700587630309164
1783696086590080500,5.18408056640625,-0.7975649209082126,0.7856149553954601,0.32842790797408666
1783696086600043500,5.19404345703125,-0.854372265279293,0.7217986090451478,0.32046361456401645
1783696086610007600,5.204007568359375,-0.8107727775275707,0.7649158662378788,0.37302199625372884
1783696086619970600,5.213970458984375,-0.80281042034626,0.8453677055686711,0.31172786185741425
1783696086629934600,5.2239345703125,-0.888110284230113,0.8078764715641736,0.11429448769986629
1783696086639897600,5.233897705078125,-0.8865537024378776,0.8670376855850219,-0.02769424527455121
1783696086649861600,5.243861572265625,-0.8056926977843045,0.968314870801568,-0.11723101607579738
1783696086659825700,5.25382568359375,-0.708802933871746,1.039002271965146,-0.18704167093746363
1783696086669788400,5.263788330078125,-0.5884370173037052,1.174828792515397,-0.18747609856566413
1783696086679752700,5.273752685546875,-0.43113633157014847,1.3207681262791156,-0.14140026556197552
1783696086689715500,5.283715576171875,-0.19928923115730285,1.4743652813196182,-0.13414483280731365
1783696086699679500,5.293679443359375,0.029989480072259902,1.6165116525411605,-0.14754187358953058
1783696086709643300,5.303643310546875,0.2317284424692392,1.7595710469543933,-0.17531597916726022
1783696086719606300,5.313606201171875,0.3285112388759851,1.9032897820591925,-0.23933133695470168
1783696086729570300,5.3235703125,0.2713257088422775,2.0590251181721686,-0.2460610653348267
1783696086739533300,5.333533203125,0.12617314154207707,2.2334406048357485,-0.24572640828667208
1783696086749497300,5.343497314453125,-0.04295885176062584,2.3757477195769545,-0.23487649470400063
1783696086759461400,5.35346142578125,-0.15645137542784213,2.428854455864429,-0.15879625805355607
1783696086769424400,5.36342431640625,-0.14099486309885978,2.378238951870799,-0.09245822947220876
1783696086779388400,5.373388427734375,0.039403205105662344,2.247103219485283,-0.02190989885260351
1783696086789351400,5.383351318359375,0.30169162101149555,2.0456120943695306,0.03925148514267057
1783696086799315500,5.3933154296875,0.5729933644562959,1.7655384309262037,0.021359461895609274
1783696086809279500,5.403279541015625,0.7465460968106985,1.4414362406641243,0.04955833222405053
1783696086819242500,5.413242431640625,0.770281192663312,1.0876935298979282,0.18624241031855343
1783696086829206500,5.42320654296875,0.6403378849327563,0.8296569262176752,0.424128498634696
1783696086839169500,5.43316943359375,0.5026952548712492,0.6717419079780578,0.518374104714021
1783696086849133600,5.443133544921875,0.5396703560471534,0.41916415422558784,0.5769441113760695
1783696086859096600,5.4530966796875,0.627208938768506,0.08899404222667216,0.636690760602057
1783696086869060600,5.463060546875,0.632968232947588,-0.09366028047204017,0.7040775858502835
1783696086879024400,5.4730244140625,0.5581880095124244,-0.12616788084506989,0.716730073609203
1783696086888987600,5.482987548828125,0.3343815922141075,-0.14190262559354305,0.7007902347426861
1783696086898951400,5.492951416015625,-0.004368716603517532,-0.19005203173458576,0.5675409442692995
1783696086908914700,5.502914794921875,-0.3306874138712883,-0.10500351226329803,0.5326250406455248
1783696086918878500,5.51287841796875,-0.5875193179368973,0.08436696694791317,0.597229468633607
1783696086928842500,5.522842529296875,-0.7708025861889124,0.23919570960998535,0.6843162159342319
1783696086938805500,5.532805419921875,-0.9194044171601533,0.3571159865915775,0.7439624369930475
1783696086948769500,5.54276953125,-1.0623311251044272,0.44367812549620866,0.8685757088072598
1783696086958732300,5.552732177734375,-1.1066659413933753,0.4598474622696638,0.9822096867717802
1783696086968696600,5.562696533203125,-1.067947211420536,0.42137452375143764,1.023839774146676
1783696086978660600,5.57266064453125,-0.9711065473467111,0.35650136182457204,1.0404958715237675
1783696086988623400,5.582623291015625,-0.8850544037908316,0.2991276157423854,1.0203653029691426
1783696086998587400,5.59258740234375,-0.7892623719871044,0.28891601832956076,1.0051965946055947
1783696087008550400,5.60255029296875,-0.7022147876530885,0.25249358260035515,1.040948218401149
1783696087018514400,5.612514404296875,-0.6710860744178295,0.25184505556374787,1.0978582194291056
1783696087028477400,5.6224775390625,-0.6810492500275374,0.2797995226770639,1.1028246827300636
1783696087038441500,5.63244140625,-0.7029512852340937,0.2512228320121765,1.0802867607727646
1783696087048405500,5.642405517578125,-0.6507832911014556,0.25025106437057254,1.0065577999562025
1783696087058368500,5.652368408203125,-0.587284924659133,0.2755775210678577,0.9448922749642282
1783696087068332500,5.66233251953125,-0.564776155731082,0.2410775778338313,0.8656331525493413
1783696087078295600,5.672295654296875,-0.5915139405310154,0.1861030018478632,0.7578753731418401
1783696087088259600,5.682259521484375,-0.6603004765093327,0.15304010567963122,0.5882643276179209
1783696087098223400,5.692223388671875,-0.7630173391401768,0.1041769983112812,0.4234858898822218
1783696087108186400,5.702186279296875,-0.8828782287955284,0.09074439302533864,0.2757690615845844
1783696087118150400,5.712150390625,-0.9928262117236852,0.12907996889948845,0.09557061673854478
1783696087128113400,5.722113525390625,-0.9868681801021099,0.13942571408599613,0.01912130018053576
1783696087138077400,5.732077392578125,-1.266575932842493,0.22158698768317697,0.022223513112729413
1783696087148041500,5.74204150390625,-1.4911311226814985,0.42812545931637286,-0.05933393110609613
1783696087158004500,5.75200439453125,-1.4516449154675006,0.4282598993510008,-0.05410144641324877
1783696087167968500,5.761968505859375,-1.4631313551217318,0.46637101881951093,0.05946715643117204
1783696087177931500,5.771931640625,-1.2675298725664614,0.6196180452480912,-0.013459164499305188
1783696087187895600,5.7818955078125,-0.933961350300908,0.5658256647840142,-0.05965880654575303
1783696087197858600,5.791858642578125,-0.5628706143707036,0.4630754844054579,-0.008501231564674526
1783696087207822600,5.801822509765625,-0.2809218047052622,0.390052918292582,0.038542094764299685
1783696087217786600,5.81178662109375,-0.04373334326446056,0.3411231754288077,0.018133111127093433
1783696087227749600,5.82174951171875,0.1374742877572775,0.2570385325536132,0.06188157889544964
1783696087237713700,5.831713623046875,0.2820347343832254,0.18727935215085745,0.13605052029816433
1783696087247676400,5.841676513671875,0.36935762852728365,0.12084843938797711,0.16297215549871324
1783696087257640400,5.851640380859375,0.49729836426377294,0.03558013968616724,0.14743963705776258
1783696087267604500,5.8616044921875,0.6173018772602081,-0.09340513666719198,0.15533040857389568
1783696087277567500,5.8715673828125,0.5798959834516048,-0.2290676988273859,0.20796399265797808
1783696087287531300,5.88153125,0.474507855784893,-0.33615006319135426,0.289541675947234
1783696087297494500,5.89149462890625,0.46739539343118663,-0.42247225586026904,0.299953033715859
1783696087307458600,5.90145849609375,0.498454548561573,-0.5419716187268495,0.3275140810647979
1783696087317422600,5.911422607421875,0.49616789892911906,-0.697840518091619,0.39772732537798583
1783696087327385600,5.921385498046875,0.51753918825984,-0.7727262477278709,0.36330658486001194
1783696087337349600,5.931349609375,0.5402291589736938,-0.744195149770379,0.1977921609999612
1783696087347312600,5.941312744140625,0.5448673401683569,-0.6632993660643697,0.10884268856737762
1783696087357276700,5.951276611328125,0.5485591804236173,-0.5279340332850814,0.0983151570731774
1783696087367239700,5.96123974609375,0.445689757579565,-0.3551277353838086,0.1527597909009084
1783696087377203700,5.97120361328125,0.1923158850133419,-0.19827654698342084,0.291576725438796
1783696087387167700,5.981167724609375,-0.07401800689101219,0.05405512305349111,0.2443760713899508
1783696087397130800,5.991130859375,-0.22610183475911616,0.2291635604172945,0.16213917527329175
1783696087407094800,6.0010947265625,-0.5111486104398966,0.2979410363063216,0.16719370045019313
1783696087417057800,6.011057861328125,-0.5042003987371921,0.5233227400973439,0.04454577389219776
1783696087427021800,6.021021728515625,-0.44105742160379885,0.4563683879822492,-0.1874263228734955
1783696087436985900,6.03098583984375,-0.328517084094882,0.33520021512061354,-0.324590083376877
1783696087446948900,6.040948974609375,-0.2605903798162937,0.30118045661896464,-0.4789101093318313
1783696087456912600,6.05091259765625,-0.4305412882864475,0.22305296858251095,-0.6511402878455818
1783696087466876000,6.0608759765625,-0.7232283495873212,0.17231471499204634,-0.7674665736339986
1783696087476839700,6.070839599609375,-1.1400555852979422,0.14400778117924928,-0.8205478832192719
1783696087486803700,6.0808037109375,-1.5673387485712766,0.17033464709073304,-0.8146306219995021
1783696087496766700,6.0907666015625,-1.8917881448358296,0.1806517507046461,-0.7906379711892455
1783696087506730800,6.100730712890625,-2.0556249543398617,0.22919512459933755,-0.7349643800884484
1783696087516693500,6.110693603515625,-2.0336948620826005,0.30138036310523747,-0.7234329322487115
1783696087526657500,6.120657470703125,-1.7936007423281668,0.3494803771466017,-0.7105402790583669
1783696087536620500,6.13062060546875,-1.382761933377385,0.3215644884780049,-0.6617772710636258
1783696087546584600,6.14058447265625,-0.9107534931927919,0.21121347770690918,-0.6525239972889423
1783696087556548600,6.150548583984375,-0.47694765015244484,0.11920184122473,-0.6938986485980451
1783696087566511600,6.16051171875,-0.14611059867739676,-0.021904957816004753,-0.740464658005163
1783696087576475600,6.1704755859375,0.045075990045070645,-0.14109773895144462,-0.8483158147845417
1783696087586438700,6.180438720703125,0.20068799203932283,-0.2229804878681898,-0.9371052743498235
1783696087596402700,6.190402587890625,0.2896715128719807,-0.2695040463730693,-0.9505027352571487
1783696087606366700,6.20036669921875,0.3016898674458265,-0.3556117195084691,-0.9415319316856563
1783696087616329700,6.210329833984375,0.3629594519227743,-0.3336605844631791,-0.8765727719757705
1783696087626293800,6.220293701171875,0.4698556460648775,-0.2590796829923987,-0.7434405320107936
1783696087636256800,6.2302568359375,0.7040156995952129,-0.12462094366401433,-0.5228816452663392
1783696087646220800,6.240220703125,0.9445335977196693,-0.08182020507454872,-0.3353799556016922
1783696087656183800,6.250183837890625,1.0768477262347935,-0.029482115072011945,-0.14740458401069045
1783696087666147600,6.260147705078125,1.1288444554537533,0.04773819499164819,-0.07446648131087422
1783696087676111600,6.270111572265625,1.1300310348898173,0.05959025308787822,-0.09995485057160258
1783696087686074600,6.28007470703125,1.094928157326579,0.05728782136440277,-0.08253975152075291
1783696087696038700,6.29003857421875,0.9632873980283737,-0.053934419283270835,-0.16371946673467755
1783696087706001700,6.300001708984375,0.5836889459937811,-0.2614019884601235,-0.3880701469775289
1783696087715965700,6.309965576171875,0.12207330500781535,-0.42578824854046105,-0.7145606206156313
1783696087725929700,6.3199296875,-0.21308803940713406,-0.5304667666330933,-0.9670521573893726
1783696087735892700,6.329892822265625,-0.31594810990095135,-0.6122440093487501,-1.060668890980631
1783696087745856800,6.339856689453125,-0.2773509604811668,-0.6106856739908456,-1.0730526448007673
1783696087755819800,6.34981982421875,-0.1500613821297884,-0.5739981575846672,-1.059918218743801
1783696087765783800,6.35978369140625,-0.0554781415939331,-0.5024421568930149,-0.9674573041241615
1783696087775746600,6.36974658203125,-0.02112520561516285,-0.44887510961741206,-0.8609295049030333
1783696087785710600,6.379710693359375,-0.028289105895161627,-0.42634529790133235,-0.8463122198771685
1783696087795675000,6.3896748046875,0.06063771631419658,-0.4494803820341825,-0.8304824903216212
1783696087805637600,6.3996376953125,0.1614110436618328,-0.5425070407778024,-0.805568779143691
1783696087815601700,6.4096015625,0.21885610141456127,-0.6050809858515859,-0.7993222859695553
1783696087825564700,6.419564697265625,0.2783943320542574,-0.643589287944138,-0.7746873186677694
1783696087835528700,6.42952880859375,0.3447942651569843,-0.6687965021759271,-0.6809114489920437
1783696087845492500,6.439492431640625,0.34926819570064543,-0.6488540766045451,-0.5677509337581694
1783696087855455700,6.449455810546875,0.3399105847686529,-0.5876856144145131,-0.4232027620919048
1783696087865419500,6.45941943359375,0.2520733113616705,-0.4676730413287878,-0.2830512179493904
1783696087875382800,6.4693828125,0.23702421078979968,-0.33007162006050345,-0.19391908242627978
1783696087885346600,6.4793466796875,0.2597416540324688,-0.26161884608119723,-0.1430465349316597
1783696087895309600,6.4893095703125,0.23558277980983255,-0.24066256729215382,-0.14131035878881812
1783696087905273600,6.499273681640625,0.22535189317464827,-0.24041414548903703,-0.22929719673432408
1783696087915237600,6.509237548828125,0.22509587258696553,-0.3177095666155219,-0.2839478745281696
1783696087925200600,6.51920068359375,0.16983458861410616,-0.3452534071013331,-0.30524726766645904
1783696087935164700,6.52916455078125,0.012078560328483581,-0.3326417628094554,-0.34776758187934753
1783696087945127700,6.539127685546875,-0.12729425452649593,-0.18827742327749727,-0.3474449988614768
1783696087955091700,6.549091796875,-0.2455062079310417,-0.09335779039412737,-0.3223219557818025
1783696087965055700,6.5590556640625,-0.31330081026256085,-0.04600479532778263,-0.31426644042432306
1783696087975018800,6.569018798828125,-0.4151046497017145,-0.04147124355137348,-0.24672953918091953
1783696087984982800,6.578982666015625,-0.45817982131838797,0.04528875601291656,-0.12620090633183717
1783696087994945800,6.58894580078125,-0.3651204293489456,0.009127893829345703,0.10855477500408887
1783696088004909800,6.598909912109375,-0.07062018114626407,-0.15582155309170484,0.31120873335413635
1783696088014872800,6.608872802734375,0.3755278415948152,-0.2674532513231039,0.4126512652002275
1783696088024836900,6.6188369140625,0.7750701805055141,-0.45928690577745435,0.48169367563575505
1783696088034800600,6.628800537109375,1.0170704261422157,-0.685100571244955,0.5491418026171624
1783696088044764000,6.638763916015625,1.0224608870089054,-0.8689607626020908,0.5047937615204602
1783696088054727700,6.648727783203125,0.7640361607939005,-0.9967425083845853,0.33402079607769847
1783696088064690700,6.658690673828125,0.3283107478678226,-1.000907811370492,0.066183002416417
1783696088074654500,6.668654541015625,-0.07850713500380516,-0.9071212741702794,-0.14441153967455028
1783696088084618500,6.678618408203125,-0.3198281662046909,-0.6610059944301844,-0.2819825658045709
1783696088094581500,6.68858154296875,-0.29776246486902236,-0.38857670826017854,-0.39121896639727055
1783696088104545500,6.698545654296875,-0.37427579570710656,-0.22420623027086256,-0.250618947834894
1783696088114508500,6.708508544921875,-0.4354629625976085,-0.007525134807825088,-0.2982706335868686
1783696088124472600,6.71847265625,-0.6099678811103105,0.193962483176589,-0.3960727265713736
1783696088134435600,6.728435546875,-0.6898831293463706,0.2796335184603929,-0.4010718865655362
1783696088144399600,6.738399658203125,-0.7025953114032745,0.24997955395281313,-0.4366926139904186
1783696088154363600,6.74836376953125,-0.7296925771653652,0.3052285629659891,-0.5035995467672124
1783696088164326700,6.75832666015625,-0.7248258479118347,0.5512327835470437,-0.3949479237925261
1783696088174290700,6.768290771484375,-0.5757137293308973,0.8091746946811675,-0.1407709181498736
1783696088184253700,6.778253662109375,-0.37877310712635515,1.056224040400982,0.09452014870438724
1783696088194217700,6.7882177734375,-0.23456863433122632,1.2325555898189544,0.431317094964534
1783696088204180700,6.7981806640625,-0.14850772294700146,1.2412205423116682,0.6363190777454525
1783696088214144800,6.808144775390625,-0.09653203651607035,1.1593559135735034,0.6793348473250865
1783696088224108800,6.81810888671875,-0.004520692294836044,1.0140215599656104,0.6539883707530796
1783696088234071800,6.82807177734375,0.17242460510730742,0.8475982410997152,0.6211667359948158
1783696088244035800,6.838035888671875,0.28802491470873354,0.6140472593784332,0.6207242529243231
1783696088253998800,6.847998779296875,0.3465028226405382,0.417899248856306,0.622081074360758
1783696088263962600,6.857962646484375,0.3284416807711124,0.2034574567526579,0.6552760724760591
1783696088273926700,6.8679267578125,0.26200433826744557,0.004985971719026565,0.6743414960172027
1783696088283889700,6.8778896484375,0.2872942623466253,-0.07207271804213523,0.6897603066843002
1783696088293854500,6.8878544921875,0.31588381249308584,-0.08980477408766746,0.6466841121543199
1783696088303817500,6.8978173828125,0.2892646856367588,-0.05185059874653816,0.6151539054460823
1783696088313781500,6.907781494140625,0.16342705965936183,0.10556640684306622,0.5104286986675113
1783696088323744500,6.91774462890625,-0.032250995263457295,0.2907680759370327,0.3163877434272319
1783696088333708500,6.92770849609375,-0.2567921565771103,0.4650006072491407,0.12717607150692492
1783696088343672600,6.937672607421875,-0.46489422426521776,0.6486947943896055,-0.06158416685145348
1783696088353635600,6.947635498046875,-0.6867723038494586,0.7614075658559799,-0.2098939195409417
1783696088363599600,6.957599609375,-0.8596820621252059,0.8500076403290033,-0.2913515749134123
1783696088373562400,6.967562255859375,-0.9299901085823774,0.9143506409019231,-0.3134593252925202
1783696088383526400,6.9775263671875,-0.9067863431274891,0.9424696509271859,-0.27293690689858047
1783696088393490400,6.987490478515625,-0.853697142496705,0.9338947148054838,-0.215915006461367
1783696088403453400,6.997453369140625,-0.7536234878510236,0.8855220213025807,-0.1727201539877802
1783696088413417200,7.007417236328125,-0.5393728344053029,0.8118044586628675,-0.1379091355105862
1783696088423380500,7.01738037109375,-0.3476531617194414,0.6195610543638468,-0.09178637635894119
1783696088433344300,7.02734423828125,-0.19597791465222836,0.5036696528613567,-0.07702668718770146
1783696088443307500,7.0373076171875,-0.10808394262194633,0.4094797955572605,-0.11997037791181354
1783696088453271300,7.047271240234375,0.00045709611773490905,0.261391759327054,-0.1368573979679495
1783696088463235300,7.0572353515625,0.1045475851893425,0.11514964322447777,-0.13625369645375757
1783696088473198300,7.0671982421875,0.14497545716762542,0.05642155992388725,-0.1807922186212614
1783696088483162400,7.077162353515625,0.17044190685749053,0.05095043503642082,-0.22019586211834102
1783696088493125400,7.08712548828125,0.1666828465849161,0.05255377857983112,-0.24164449100159108
1783696088503089400,7.09708935546875,0.14377601824998854,0.11298165153563022,-0.26003574160821735
1783696088513052400,7.107052490234375,0.10329378573596477,0.137381933298707,-0.2951569220131263
1783696088523016400,7.117016357421875,0.01988251207768917,0.14080489348471165,-0.3775321306219324
1783696088532980500,7.12698046875,-0.04171031300425529,0.15319208137094972,-0.4814374358523637
1783696088542943500,7.136943603515625,-0.05215338108539581,0.16696575517952442,-0.5854057963816449
1783696088552907500,7.146907470703125,-0.07414952431619166,0.1577425842821598,-0.7056611287146807
1783696088562870500,7.15687060546875,-0.10661913076639175,0.1726128211557865,-0.7663538631517439
1783696088572834600,7.16683447265625,-0.19191782560646534,0.23088497738242147,-0.7846141077898442
1783696088582798600,7.176798583984375,-0.33656068981885906,0.29460429309904573,-0.7696816193349659
1783696088592761600,7.18676171875,-0.4442699539095163,0.4076245230793953,-0.711172439482063
1783696088602725600,7.1967255859375,-0.5629717366576195,0.4962234285086393,-0.6199176857817917
1783696088612688600,7.206688720703125,-0.6171177528649568,0.5743477016746997,-0.5408706352150068
1783696088622652400,7.21665234375,-0.58773792912364,0.617044687628746,-0.48894280651379374
1783696088632615400,7.226615478515625,-0.5187736984908581,0.6047323185443878,-0.4205859671896323
1783696088642579500,7.236579345703125,-0.4153472262859344,0.5740501800328492,-0.411460630643554
1783696088652543500,7.24654345703125,-0.3415928387671709,0.5506961924523115,-0.3955352952264249
1783696088662506200,7.25650634765625,-0.22130992430746554,0.5286550410360098,-0.3431382781108841
1783696088672470300,7.26647021484375,-0.1310299339234829,0.41086569695770736,-0.24908709862511605
1783696088682433300,7.276433349609375,-0.11605623667538166,0.2448784314215183,-0.0594537306940183
1783696088692397300,7.286397216796875,-0.0406336236834526,0.033873043507337566,0.1255874506086111
1783696088702361300,7.296361328125,0.07838555445075035,-0.15808043793439863,0.14512293934691697
1783696088712324400,7.306324462890625,0.2093681421011686,-0.3304886764287948,0.027479543077945708
1783696088722288400,7.316288330078125,0.3280874605059623,-0.485531938624382,-0.06778002581689506
1783696088732251400,7.32625146484375,0.43238837745785713,-0.5801677861303091,-0.09507051259614527
1783696088742215400,7.33621533203125,0.5050479554772377,-0.5748462988466024,-0.14039941795635968
1783696088752178400,7.346178466796875,0.5147837520718574,-0.4308212742716074,-0.2247937113026157
1783696088762142500,7.356142578125,0.5034720844626427,-0.26351182022094727,-0.22936905639413743
1783696088772106500,7.3661064453125,0.5031587807297706,-0.08166355320811271,-0.1712625755906105
1783696088782069500,7.376069580078125,0.4857891282558441,0.04425064513683319,-0.05935954960454255
1783696088792033500,7.386033447265625,0.3844190040588379,0.12356675843596458,0.02395491261575371
1783696088801996500,7.39599658203125,0.22208032415807247,0.24092647892534733,0.010792867899499833
1783696088811960600,7.405960693359375,0.05958674595654011,0.35022096638083455,-0.016347725547663866
1783696088821923600,7.415923583984375,-0.13356909701228142,0.3839370657607913,-0.05264025128688663
1783696088831887400,7.425887451171875,-0.3741846102923155,0.4244917789891362,-0.09274923004172742
1783696088841851400,7.435851318359375,-0.5609796860575675,0.47080870900601146,-0.14116262088119982
1783696088851814400,7.445814453125,-0.8171551720410585,0.521267268872261,-0.16709646888710558
1783696088861778400,7.4557783203125,-1.006148050111532,0.5629962865769863,-0.2680540667604655
1783696088871741400,7.465741455078125,-1.0512789852142332,0.6248316882431507,-0.3134774820037186
1783696088881705500,7.47570556640625,-0.8562778066396712,0.8172893198147415,-0.14921539629232136
1783696088891668200,7.485668212890625,-0.6025643268555403,0.8986132658049464,0.011763904888741671
1783696088901632500,7.495632568359375,-0.42847967958152294,0.7805413053929805,-0.020506123868748543
1783696088911596500,7.505596435546875,-0.3618775019049644,0.6164774091348052,-0.11862944816425441
1783696088921559300,7.515559326171875,-0.3953530705273151,0.36452217119485136,-0.25070582240074873
1783696088931523300,7.5255234375,-0.49239539465308185,0.015981120724976063,-0.39918720533009616
1783696088941486300,7.535486328125,-0.4632201535731554,-0.31168636080324646,-0.5265421405352652
1783696088951450400,7.545450439453125,-0.37697336422801014,-0.5789642555594444,-0.6054114233823493
1783696088961414400,7.555414306640625,-0.2333499061912298,-0.7257762805044651,-0.7278427845802158
1783696088971377400,7.56537744140625,-0.17649755363464353,-0.8575847975850105,-0.8382723404802381
1783696088981341400,7.575341552734375,-0.20021219122111797,-0.9131757519036531,-0.8947153815835713
1783696088991304400,7.585304443359375,-0.1747913342386484,-0.8424550329923629,-0.9409436104036867
1783696089001268500,7.5952685546875,-0.19129764788150785,-0.7201452888801694,-0.9483085862137377
1783696089011231500,7.6052314453125,-0.23913375028967856,-0.4972486799031496,-0.8972960457265376
1783696089021195500,7.615195556640625,-0.3231400672316551,-0.20726795495152472,-0.7938003076776862
1783696089031159300,7.6251591796875,-0.45976212207376954,0.05645955384671688,-0.6895476137816906
1783696089041122600,7.63512255859375,-0.5496867231488227,0.2990861146882176,-0.636159137943387
1783696089051086300,7.64508642578125,-0.48106443782150743,0.497790531694889,-0.5676627074854448
1783696089061049300,7.65504931640625,-0.2961000846147537,0.5477005177676677,-0.5007226761566475
1783696089071013400,7.665013427734375,-0.08284721003472804,0.5552814744159579,-0.4774363104522228
1783696089080976400,7.674976318359375,0.0826139858007431,0.515485762861371,-0.4950359357571229
1783696089090940400,7.6849404296875,0.2500987964183092,0.43480946712493895,-0.5636649065535515
1783696089100904400,7.694904541015625,0.4124807309389114,0.28905951845347877,-0.6197744048535824
1783696089110867500,7.704867431640625,0.4668348369389772,0.14460340898483992,-0.664746423067525
1783696089120831500,7.71483154296875,0.44863867051303385,0.06558803219795227,-0.6953530121248215
1783696089130794500,7.72479443359375,0.38290801497399807,0.05665507641881704,-0.6870333659384399
1783696089140758500,7.734758544921875,0.3006611089199781,0.025179449442028996,-0.6463621136583387
1783696089150722600,7.74472265625,0.28004502187073227,0.01675415092408657,-0.609888678394258
1783696089160685600,7.754685546875,0.3327998759806156,-0.025569910064339636,-0.574118349898234
1783696089170649600,7.764649658203125,0.3674363050758838,-0.06822188783288001,-0.5384777121964842
1783696089180612400,7.7746123046875,0.3570037583887577,-0.08584054663181305,-0.6064855554198846
1783696089190576600,7.78457666015625,0.33743279647827146,-0.08241524835824966,-0.7234137891568243
1783696089200539400,7.794539306640625,0.16984277192056177,-0.13946633835732936,-0.7972277248430997
1783696089210503400,7.80450341796875,-0.07673720272183418,-0.039138416689634324,-0.8341649051614105
1783696089220467500,7.814467529296875,-0.2650076117366552,0.10551379987299442,-0.8139984615758061
1783696089230430500,7.824430419921875,-0.3516635664045811,0.2638093418627977,-0.7261899758718907
1783696089240394200,7.834394287109375,-0.37414077115058897,0.3868170051112771,-0.6463967465803027
1783696089250357500,7.844357421875,-0.3102402536481619,0.4398892546072602,-0.6093327250119298
1783696089260321300,7.8543212890625,-0.25898469818532466,0.47190088815689085,-0.5659294174194336
1783696089270284300,7.8642841796875,-0.30019816758334633,0.5262973719939589,-0.5032016700234264
1783696089280248300,7.874248291015625,-0.374924030482769,0.5958999005302786,-0.4541383639078587
1783696089290212400,7.88421240234375,-0.37300387607514857,0.6870815159291028,-0.3563853342294693
1783696089300174800,7.8941748046875,-0.24660101743042467,0.6929676513582468,-0.2303319648758508
1783696089310139000,7.904138916015625,-0.06034662441313266,0.6204354991108179,-0.16852966176168993
1783696089320102000,7.914101806640625,0.1262801090478897,0.5383107581317425,-0.20069537162818013
1783696089330066000,7.92406591796875,0.25294892515242096,0.33605157125294205,-0.22426625336240977
1783696089340029000,7.93402880859375,0.27268296867012976,0.08753624463379382,-0.23533479639813304
1783696089349993000,7.943992919921875,0.22529110289812088,-0.13456804492175578,-0.33207053879275916
1783696089359957000,7.95395703125,0.18944588253498076,-0.31921208013296126,-0.48815563819147645
1783696089369920000,7.963919921875,0.1507324132591486,-0.38933892480432986,-0.5840224157318472
1783696089379884000,7.973884033203125,0.18590484892725945,-0.40798283499777316,-0.6262846635304391
1783696089389847000,7.983846923828125,0.25835750619769093,-0.4539356078773737,-0.6632920595407485
1783696089399811000,7.99381103515625,0.32129063997268675,-0.4685866490423679,-0.7073245318822562
1783696089409774000,8.003774169921876,0.36183716989457604,-0.42147710734307764,-0.7197166882045567
1783696089419738000,8.013738037109375,0.361180751812458,-0.31466099269986153,-0.715483434548974
1783696089429702100,8.0237021484375,0.3155465433627367,-0.15825988615453243,-0.7457132992483675
1783696089439665200,8.0336650390625,0.16334230398535726,-0.008011457020044327,-0.8037857681844383
1783696089449629200,8.043629150390625,-0.1044207439392805,0.21822598681747912,-0.867909353853017
1783696089459592000,8.053592041015625,-0.3984674031555652,0.4929781629770994,-0.9116380209423601
1783696089469556000,8.063555908203124,-0.5703484029054642,0.7260638652741909,-0.8730974240154027
1783696089479520000,8.07352001953125,-0.5309165562272071,0.9000473902612924,-0.7390105136740952
1783696089489482800,8.083482666015625,-0.384334832906723,0.990305168813467,-0.5151161623639986
1783696089499446800,8.09344677734375,-0.26788345943391323,0.973342928096652,-0.3082227763459086
1783696089509409800,8.103409912109376,-0.19164660744965076,0.9284136530458926,-0.10945855544339865
1783696089519373800,8.113373779296875,-0.14924246696233748,0.830856365135312,0.08918613073267043
1783696089529336800,8.1233369140625,-0.11590952168107033,0.6314022988051176,0.26260592088978735
1783696089539300900,8.13330078125,-0.1738888324409723,0.3929442558199167,0.3656712316321209
1783696089549265000,8.143264892578125,-0.28072189821898935,0.1570189461827278,0.43634661356434223
1783696089559228000,8.153227783203125,-0.31676819411218166,-0.013418284499645232,0.42781076734401285
1783696089569192000,8.16319189453125,-0.32370413085520267,-0.17470307143330574,0.3923217400074005
1783696089579155000,8.173155029296876,-0.2926888148665428,-0.326834830096364,0.3462673699168488
1783696089589119000,8.183118896484375,-0.2069248406022787,-0.4075894517660141,0.2745775137124583
1783696089599082000,8.19308203125,-0.06785714617371559,-0.36675241446495055,0.14050799289736896
1783696089609046000,8.2030458984375,-0.07991407919228076,-0.2754150239825249,-0.03819415810946375
1783696089619010000,8.213010009765625,-0.2863023286998272,-0.1158101529598236,-0.17479177263006568
1783696089628973000,8.22297314453125,-0.536193035325408,0.10019698876440525,-0.27102365715578197
1783696089638937000,8.23293701171875,-0.6466442916005849,0.31915655055344105,-0.28788061086721717
1783696089648900000,8.242900146484375,-0.6268412744998931,0.5278431401312351,-0.25525095501709727
1783696089658864000,8.252864013671875,-0.6477139666587114,0.6624205374032258,-0.154621091260761
1783696089668827100,8.2628271484375,-0.786001324364543,0.7310299632489681,-0.07220313948877155
1783696089678791200,8.272791259765626,-0.8109937268018722,0.8659507671311497,-0.01862118690498173
1783696089688755000,8.2827548828125,-0.828997001004219,0.7843456661120056,0.07514058118015528
1783696089698718000,8.292718017578125,-0.6365390771716832,0.7397483994945884,0.1659049940802157
1783696089708682000,8.302681884765626,-0.30936873151063915,0.6188306942626833,0.2686582797313109
1783696089718645000,8.31264501953125,0.077377254191041,0.3903963249027729,0.41717561075687404
1783696089728609000,8.322609130859375,0.42759471344053746,0.14520780461877583,0.49492907784916457
1783696089738571800,8.33257177734375,0.6454308241575956,-0.12316139250546693,0.5810050041394308
1783696089748535800,8.342535888671875,0.6844891613483428,-0.32547757026851176,0.6391144806176423
1783696089758499800,8.352499755859375,0.6130676006913185,-0.4167164688125252,0.6439486958410591
1783696089768462800,8.362462890625,0.41317105129063125,-0.4752195111855864,0.6579391542054712
1783696089778427000,8.372427001953126,0.14844985527992247,-0.4828200493171811,0.6355760773584246
1783696089788390000,8.382389892578125,-0.2093774944514036,-0.45035891843438147,0.5865690314747393
1783696089798354000,8.39235400390625,-0.5428635991305113,-0.32993133480697867,0.4549721478508785
1783696089808318000,8.40231787109375,-0.8124778278797864,-0.23266280070990322,0.3240568167503923
1783696089818281000,8.412281005859375,-0.9219500099897384,-0.1292795831248164,0.16333280550464988
1783696089828245000,8.422244873046875,-0.9765034379541874,-0.08486907125115394,0.04943674710441846
1783696089838208000,8.4322080078125,-1.004415527230501,-0.03451777115166187,-0.03837675270133186
1783696089848172000,8.442172119140626,-0.928528803858161,0.023393735069036484,-0.08258158136848359
1783696089858135000,8.452135009765625,-0.768425335663557,0.013084522500634193,-0.048390713216783475
1783696089868099000,8.46209912109375,-0.5291840333461761,-0.01949380502104759,0.01922906455408083
1783696089878062800,8.472062744140626,-0.2660112358212471,-0.042995092117786404,0.07636811824769246
1783696089888026000,8.482026123046875,0.01158580837547779,-0.10527823755145073,0.1420919467537198
1783696089897990000,8.491989990234375,0.21263737303018568,-0.18884967020750046,0.18042462741788476
1783696089907953000,8.501952880859376,0.3092658556580543,-0.2395323942184448,0.2095334521980956
1783696089917917000,8.5119169921875,0.36131869897842406,-0.2532973001986742,0.2502711207779124
1783696089927880000,8.5218798828125,0.35915246085524555,-0.27204350172281266,0.3151755180932581
1783696089937844000,8.531843994140624,0.3475497013449669,-0.2551046418815851,0.4200827303752303
1783696089947808000,8.54180810546875,0.30698622028827666,-0.2377683071553707,0.5508635118432342
1783696089957771000,8.55177099609375,0.33497488193213937,-0.24922610523700714,0.722321610005945
1783696089967735000,8.561735107421875,0.4540180254638195,-0.33385669155716896,0.9003685850396752
1783696089977698000,8.571697998046876,0.5833224507689476,-0.42750820420086383,0.9732524002689867
1783696089987662000,8.581662109375,0.6417132649391889,-0.4430120628029108,0.8305942070677876
1783696089997624800,8.591624755859375,0.6498410418152809,-0.41854046936929223,0.6199122058890759
1783696090007588900,8.6015888671875,0.5791325978636741,-0.37445992010235785,0.46767837509103116
1783696090017553200,8.61155322265625,0.40757250063121314,-0.26441724462807176,0.36426951160803434
1783696090027516000,8.621515869140625,0.14247311895787715,-0.09979892935752868,0.25135922654187304
1783696090037480000,8.63147998046875,-0.09331775064468384,0.10720891335308551,0.161490830899775
1783696090047443000,8.64144287109375,-0.3058084086805582,0.3001467296570539,0.130686874373164
1783696090057407000,8.651406982421875,-0.4877016838788986,0.48441783990263937,0.14431039912132546
1783696090067370000,8.661369873046874,-0.5713759923875331,0.6058347268283367,0.15549089636523275
1783696090077334000,8.671333984375,-0.5216624056696891,0.6596136632889509,0.16007453436106442
1783696090087297800,8.6812978515625,-0.332526904258132,0.6618558892577886,0.18971308210380375
1783696090097261000,8.691260986328125,-0.14190613272488117,0.5986638122856617,0.16989110457431525
1783696090107224800,8.701224853515624,0.007715104421973228,0.5280021300852299,0.12271898250021039
1783696090117188000,8.71118798828125,0.11575988407731055,0.46343058145344257,0.08581954037640244
1783696090127151900,8.72115185546875,0.17148294034302233,0.41711949665546416,0.03125577368102968
1783696090137115000,8.731114990234374,0.1331511638611555,0.38413726450800895,-0.051256249582581216
1783696090147079000,8.741078857421876,0.13066226965487002,0.37214112176597114,-0.17012604584135113
1783696090157043000,8.75104296875,0.13235212243795394,0.33890988329350946,-0.23415983433462678
1783696090167006000,8.761005859375,0.11037643747329712,0.2935825488358736,-0.2717834625471383
1783696090176970000,8.770969970703124,0.16823241411447523,0.23872400044500827,-0.322409816728346
1783696090186933000,8.78093310546875,0.25200433777868747,0.17080314138531683,-0.38791017064284533
1783696090196897000,8.79089697265625,0.2807189756095409,0.08232698555290699,-0.41128932919725775
1783696090206860000,8.800860107421874,0.2677098564326763,0.002516366735100746,-0.41623946241792287
1783696090216824000,8.810823974609375,0.22786767538785932,-0.009700725281238555,-0.417874954665266
1783696090226788000,8.8207880859375,0.18147651109099386,-0.020747604474425314,-0.43073469196669756
1783696090236751000,8.830751220703124,0.099035543769598,-0.03736263918876648,-0.5341740967184305
1783696090246715100,8.840715087890626,0.03209609696269035,0.05932137301862239,-0.6986319607302546
1783696090256678000,8.850677978515625,-0.05856967786848545,0.182380766454339,-0.8710442908778786
1783696090266642200,8.86064208984375,-0.226674666211009,0.30306641649603844,-0.9716307173512876
1783696090276605000,8.87060498046875,-0.43641164162456986,0.44867374182641506,-1.0239474723048507
1783696090286569000,8.88056884765625,-0.5755383727639913,0.5308604421257972,-0.994109821793437
1783696090296532700,8.89053271484375,-0.7158943534374237,0.5425163931280375,-0.9211426391296088
1783696090306495700,8.900495849609374,-0.7922621383249759,0.5364326893001794,-0.8400586393751204
1783696090316459800,8.910459716796876,-0.7763631429255008,0.42642157800793645,-0.7343002170912921
1783696090326422800,8.9204228515625,-0.6153279468387365,0.29040391879975797,-0.6479378385424613
1783696090336386600,8.930386474609374,-0.39288697267472744,0.15796762520968913,-0.6372663685329258
1783696090346349800,8.940349853515626,-0.15580138708651065,-0.017949498188495634,-0.6548609158039093
1783696090356313600,8.950313720703125,0.04632628236711025,-0.1993827546596527,-0.6598608429830521
1783696090366277600,8.960277587890625,0.16317337715923785,-0.3477501923531294,-0.6626119683220982
1783696090376240600,8.97024072265625,0.2590174314111471,-0.4333458243131637,-0.671396090215072
1783696090386204700,8.98020458984375,0.30706922239661216,-0.4605541492342949,-0.6849221459381282
1783696090396167700,8.990167724609375,0.35043490139245986,-0.44364100835621356,-0.7374254364397377
1783696090406131700,9.000131591796874,0.3501280274003744,-0.40133682111203667,-0.7596418713577091
1783696090416094700,9.0100947265625,0.32057109352648255,-0.3668763331055641,-0.7485442848905921
1783696090426058800,9.020058837890625,0.29277649314999576,-0.3016080343812704,-0.7539271469727158
1783696090436022800,9.030022705078125,0.29714404070973394,-0.25197043550908566,-0.6908622765768319
1783696090445985800,9.03998583984375,0.3168839294463396,-0.2619675133883953,-0.6364812825698405
1783696090455949800,9.04994970703125,0.3897241247296333,-0.25805589290261266,-0.5530193016376346
1783696090465912600,9.05991259765625,0.45979602434337136,-0.22490414940714834,-0.5136455418221653
1783696090475876600,9.069876708984374,0.5485556732922792,-0.2568126148432493,-0.45148682648576793
1783696090485839600,9.079839599609375,0.651077305611968,-0.28906068749725816,-0.4030505662273615
1783696090495803600,9.0898037109375,0.6753928317010403,-0.3655354398906231,-0.3886107566602528
1783696090505767700,9.099767578125,0.6168389359235763,-0.43000294362604613,-0.3348859980722889
1783696090515730700,9.109730712890626,0.5907751048624515,-0.47463761964440343,-0.31607699697762726
1783696090525694700,9.11969482421875,0.5856792430281639,-0.5181184494525194,-0.2570005203644745
1783696090535657700,9.12965771484375,0.5765291373670101,-0.5613491038918494,-0.19995505638858302
1783696090545621800,9.139621826171876,0.6035387248456477,-0.5919055701971053,-0.2418788477467373
1783696090555584800,9.149584716796875,0.6367161873042583,-0.6403010600537061,-0.26750938369082283
1783696090565548500,9.159548583984375,0.6393845297306776,-0.7109218257218599,-0.29716195995891465
1783696090575512600,9.1695126953125,0.6042793140798807,-0.7489531579524278,-0.3528419625341892
1783696090585475600,9.1794755859375,0.5270937830686568,-0.7585831560850143,-0.3925351270297542
1783696090595439600,9.189439697265625,0.4087526503264904,-0.8053034062057733,-0.4619928768005222
1783696090605402600,9.199402587890624,0.37100773382186886,-0.820438431495428,-0.5371015284724533
1783696090615366700,9.20936669921875,0.39562721129357814,-0.8209481345832348,-0.631036826493591
1783696090625329700,9.21932958984375,0.4351590112149715,-0.812883486071229,-0.6775310127735138
1783696090635293700,9.229293701171875,0.42364626807570455,-0.7671639374256134,-0.7171412847585976
1783696090645257700,9.2392578125,0.30419805087447166,-0.7075473808526992,-0.723892293388769
1783696090655220700,9.249220703125,0.17047113295197486,-0.6336188058108091,-0.7323540514595807
1783696090665184800,9.259184814453125,0.03268821763694286,-0.545441340664029,-0.7761610444821417
1783696090675147800,9.269147705078124,-0.09165537039041519,-0.4405272602498531,-0.8076286342829465
1783696090685111800,9.27911181640625,-0.167951259085536,-0.34945816531479357,-0.8368019026014953
1783696090695074800,9.28907470703125,-0.11864976029992103,-0.3074041534394026,-0.8826255692087114
1783696090705038800,9.299038818359374,-0.0595914221316576,-0.3084387571841478,-0.9451275450248271
1783696090715003000,9.3090029296875,-0.030123920106887817,-0.32449206636250016,-0.9904879780344664
1783696090724965600,9.318965576171875,-0.034215573334693904,-0.2947486700057983,-1.0060701625697315
1783696090734930000,9.328929931640625,-0.1466799229979515,-0.26771160999834537,-1.0104022734899074
1783696090744892700,9.338892578125,-0.2974555908769369,-0.23045535379350185,-1.0377499338164924
1783696090754856700,9.348856689453125,-0.3770066819757223,-0.2159796691954136,-1.0819516252450645
1783696090764819700,9.35881982421875,-0.3590343874335289,-0.2233247712612152,-1.1351333264648913
1783696090774783500,9.368783447265624,-0.3209598005831241,-0.24828736308217048,-1.2128177469089627
1783696090784747500,9.37874755859375,-0.2367839722931385,-0.26536650817692276,-1.292716482401639
1783696090794710500,9.38871044921875,-0.09474281501173973,-0.3204693867176771,-1.2830367999084293
1783696090804674600,9.398674560546874,0.04461129514276981,-0.42360301345586776,-1.166031372749433
1783696090814637600,9.408637451171876,0.10555763901472091,-0.6216156488060951,-0.930241599125415
1783696090824601600,9.4186015625,0.16744272504150867,-0.8075269274741411,-0.7568859967783093
1783696090834564600,9.428564697265625,0.18136019123494623,-0.9565355856806039,-0.7482407718993723
1783696090844528600,9.438528564453126,0.12225099966228008,-0.956723801729083,-0.8302203322540969
1783696090854492700,9.44849267578125,0.02378478021323681,-0.8831640599995851,-0.9464655156303197
1783696090864455700,9.45845556640625,-0.10007365464568138,-0.8146031494706869,-1.0234081047311425
1783696090874419700,9.468419677734374,-0.18836100990772245,-0.650351913946867,-1.069435404151678
1783696090884382700,9.4783828125,-0.28878303959965707,-0.4268248981118202,-1.12206707027331
1783696090894346800,9.4883466796875,-0.3625169688522816,-0.19229659579098224,-1.0772826105207205
1783696090904309800,9.498309814453124,-0.3387684289962053,0.04462999984323978,-0.9282878347091377
1783696090914273800,9.508273681640626,-0.24259353535473346,0.23121815485954283,-0.7076144547395408
1783696090924237800,9.51823779296875,-0.10345102212429046,0.31722061405479907,-0.5576384128056466
1783696090934200800,9.528200927734375,-0.03269873903095722,0.32007191183269024,-0.5066380011476576
1783696090944164900,9.538164794921874,-0.014487375035881996,0.2615706230252981,-0.5169005250301212
1783696090954128000,9.5481279296875,-0.03454115202724933,0.17423896105289458,-0.6092496498383582
1783696090964092000,9.558091796875,-0.09587035773694515,0.10848784724771976,-0.7070207996953278
1783696090974054700,9.5680546875,-0.25260581080317496,0.06268412744998932,-0.7455186534591018
1783696090984018700,9.578018798828126,-0.444397379681468,0.16116554446816445,-0.7744308596886694
1783696090993982700,9.587982666015625,-0.5509224024236202,0.28078268849551674,-0.751419767261669
1783696091003945500,9.597945556640624,-0.6107575701832771,0.44436756906509395,-0.6624966713793575
1783696091013909500,9.607909423828126,-0.5982166530400514,0.6474672984212636,-0.5472459789332003
1783696091023872500,9.61787255859375,-0.5117150121510029,0.8219032433509826,-0.43900918383710086
1783696091033836500,9.62783642578125,-0.36827217137813567,0.9234159908890723,-0.321643545063585
1783696091043799600,9.637799560546876,-0.3024105829358101,0.9973054029643535,-0.22190752487443385
1783696091053763600,9.647763671875,-0.24948271034657954,1.0731792668551206,-0.1536124256748706
1783696091063726600,9.6577265625,-0.16752046645283697,1.1005442436426878,-0.13492073081694542
1783696091073690600,9.667690673828124,-0.09394844976365566,1.0338988113462924,-0.11925050267204641
1783696091083654700,9.677654541015626,-0.03381283775269985,0.913621742105484,-0.11740955098047852
1783696091093617700,9.68761767578125,0.05634440303444862,0.8229688267558812,-0.09586275895237922
1783696091103581700,9.697581787109375,0.14429215107858182,0.7112643555492162,0.00007949497699737548
1783696091113544700,9.707544677734376,0.16175298896729945,0.6178028125196695,0.16120470743477344
1783696091123508700,9.7175087890625,0.17472352969944477,0.5548574037849903,0.3291024097021669
1783696091133472800,9.72747265625,0.16222002195715904,0.4277922818392515,0.5208414446756243
1783696091143435800,9.737435791015624,0.12557692921459673,0.2566723295897245,0.6651368106245994
1783696091153399800,9.74739990234375,0.15396131217777728,0.0558703557819128,0.7001346203781664
1783696091163362800,9.75736279296875,0.21247721403241157,-0.1812836188673973,0.6032065702818333
1783696091173326800,9.767326904296874,0.30332477517127987,-0.3751549166291952,0.39636787359304726
1783696091183289900,9.777289794921876,0.30170564953684803,-0.46887131120264525,0.16817038172893226
1783696091193253600,9.787253662109375,0.1782464431285858,-0.4388502669483423,-0.02545030227266252
1783696091203217000,9.797216796875,0.014694880306720733,-0.2668260593354702,-0.19633184265643358
1783696091213180700,9.8071806640625,-0.1691793395757675,-0.025765724897384643,-0.2926173570655286
1783696091223144700,9.817144775390625,-0.3827063549220562,0.26283669743835925,-0.35041400473490353
1783696091233107700,9.827107666015625,-0.5926064119428396,0.524592613902688,-0.3949850409325212
1783696091243071700,9.83707177734375,-0.7027332585692405,0.7656301519870757,-0.4045588884310797
1783696091253034500,9.847034423828125,-0.7488812617599964,0.8290513615399598,-0.3526598839655518
1783696091262998500,9.85699853515625,-0.6784305919617414,0.7755565027177334,-0.2813319198761135
1783696091272961500,9.86696142578125,-0.5511620563983917,0.7751789015769958,-0.1844842415396124
1783696091282925600,9.876925537109376,-0.41624738999605176,0.7356967860162258,-0.1304649935171008
1783696091292890000,9.88689013671875,-0.23212065665721893,0.6291092194318771,-0.11375650836564599
1783696091302853000,9.89685302734375,0.0006488192975521087,0.4416542184531688,-0.08870959926210344
1783696091312817200,9.906817138671874,0.15737024383842943,0.2514987263441086,-0.09137195033915341
1783696091322780200,9.9167802734375,0.24638006815612315,0.11760638872683048,-0.16903569332137702
1783696091332744200,9.926744140625,0.2775233944386244,-0.0030786767929792402,-0.2132941564384848
1783696091342707200,9.936707275390624,0.24037059860825538,-0.0954278746664524,-0.2350336945597082
1783696091352671200,9.946671142578126,0.1883633479952812,-0.14036884015500545,-0.27211028334870935
1783696091362635000,9.956635009765625,0.1221498773753643,-0.10037059176564216,-0.3113064946401864
1783696091372598300,9.966598388671875,0.037215924194455144,-0.07923194214701652,-0.2847133790079504
1783696091382562000,9.97656201171875,-0.03196808666884899,-0.07667348983585834,-0.27589166505094614
1783696091392525300,9.986525390625,-0.1066518639922142,-0.0319634104937315,-0.3669140347674489
1783696091402489000,9.996489013671875,-0.18904197790920732,-0.002141688203811645,-0.4801847323775291
1783696091412452000,10.0064521484375,-0.24062954180538654,0.04014554790556431,-0.6157867965221404
1783696091422416100,10.016416015625,-0.3558452360033989,0.06861994723975658,-0.7457920635730028
1783696091432380200,10.026380126953125,-0.4791401917606592,0.08077215732634067,-0.7378649238355457
1783696091442343000,10.036343017578124,-0.5956003330618143,0.17403262482583523,-0.6316700098305941
1783696091452307000,10.046306884765626,-0.6787497409135103,0.2959861028462648,-0.5077914454990997
1783696091462270000,10.05627001953125,-0.7452730081349611,0.3824842366039753,-0.4397051302120089
1783696091472234000,10.06623388671875,-0.8517863404393196,0.46143502372205253,-0.4743410843832418
1783696091482197000,10.076197021484376,-0.8367688040494918,0.539365235620737,-0.4333098031517118
1783696091492161000,10.0861611328125,-0.6292822379112243,0.44576749899089335,-0.5082763429392129
1783696091502125000,10.096125,-0.46002281883656976,0.3934747094348073,-0.3860845261182636
1783696091512088000,10.106088134765624,-0.1420961023390293,0.6841931010112166,-0.1608758042739704
1783696091522052000,10.116052001953125,-0.06508183624148368,0.6690507691979408,0.05813271122332662
1783696091532015000,10.12601513671875,-0.31394846051633357,0.5630065157100558,0.24597346011660992
1783696091541979100,10.135979248046874,-0.32157062595784663,0.3192366300523281,0.5380443257478997
1783696091551942100,10.145942138671876,-0.1926853028476238,0.11329086361527442,0.8646298937909305
1783696091561906200,10.15590625,-0.47592298327982424,-0.10416004717648028,0.37247086517699063
1783696091571869200,10.165869140625,-0.4210609277576208,-0.4174883299678564,-0.17671225583124905
1783696091581833200,10.175833251953126,-0.1961848354011774,-0.6947884370446205,-0.45304771912693975
1783696091591797000,10.185796875,-0.20669103184640406,-0.7116746899157762,-0.5770484485333786
1783696091601760300,10.19576025390625,-0.30414953555762764,-0.6343605640888214,-0.7642416202381253
1783696091611724000,10.20572412109375,-0.5120838454633951,-0.3234568780958652,-0.8865583786129951
1783696091621687300,10.215687255859375,-0.47840953939855096,0.027365561309456825,-0.9412205276489257
1783696091631651000,10.225651123046875,-0.5924012447595596,0.2551391286730766,-0.6377037370368838
1783696091641614000,10.235614013671874,-0.293536956128478,0.4356389036864042,-0.5731795346781611
