time,seconds_elapsed,z,y,x
1783696060011656000,0.062656005859375,-0.3114221569091081,-0.508090976434946,-0.28806239717490967
1783696060021620000,0.072619873046875,-0.07806056028008461,-0.31081191605627534,-0.03926160467788577
1783696060031584000,0.082583984375,0.1949345430791378,-0.03875263224244117,0.46622806668486444
1783696060041548000,0.092548095703125,0.43232291100621223,0.2599246093839407,1.0007057129271328
1783696060051511000,0.102510986328125,0.48771045170724386,0.4664163192659616,1.3365059397675096
1783696060061475000,0.11247509765625,0.48982116025090217,0.6049485916435718,1.49115596486181
1783696060071439000,0.122439208984375,0.5844511625379324,0.5465075085908174,1.6068413223981857
1783696060081402000,0.132402099609375,0.6090133568644523,0.3165741328448057,1.5517060028925538
1783696060091366100,0.1423662109375,0.4672030857294798,0.06531389143168925,1.343266666074097
1783696060101330000,0.152329833984375,0.23153905737698077,-0.13686053977310655,1.162572245271504
1783696060111293200,0.162293212890625,-0.0065390463799238204,-0.21342823114693163,1.0454539323225618
1783696060121257000,0.172257080078125,-0.15389701476991174,-0.23518355135917662,1.0379111157275736
1783696060131221000,0.182220947265625,-0.36024376322329044,-0.1839151364147663,1.027383438102901
1783696060141184000,0.19218408203125,-0.6875222454339266,-0.03426175056397915,0.9790553143940866
1783696060151148000,0.20214794921875,-0.9965858565181493,0.17856325399279593,0.8561911512695253
1783696060161112000,0.212112060546875,-1.13800800511837,0.3601490706771612,0.7019488301932811
1783696060171075000,0.222074951171875,-1.1202572443723677,0.5125234059244393,0.5905622292967513
1783696060181039000,0.2320390625,-1.0566273605048655,0.6617839930653572,0.4668624555982649
1783696060191003100,0.242003173828125,-1.017320016989112,0.7497422625035047,0.3255732126627117
1783696060200966100,0.251966064453125,-0.945433176907897,0.7898474783986806,0.24797146553341298
1783696060210930200,0.26193017578125,-0.7964379627048969,0.7686994764298201,0.18618830551113932
1783696060220894200,0.271894287109375,-0.5773731869757175,0.6269307063490152,0.1465686081105843
1783696060230857200,0.281857177734375,-0.3116846072375774,0.5043780933916568,0.0949128378164023
1783696060240821200,0.2918212890625,0.02521159814596176,0.39723406196832656,0.07777195259705186
1783696060250785000,0.301784912109375,0.3740788118302822,0.290317994081974,0.16760829086676238
1783696060260748000,0.311748046875,0.6706722329199314,0.16229776336848734,0.2988269522953778
1783696060270711300,0.321711181640625,0.7842810764431953,0.07157821252346039,0.41840822129175065
1783696060280675300,0.33167529296875,0.7801391543328762,0.0659790773421526,0.45315724391601975
1783696060290638300,0.341638427734375,0.7811971389532089,0.08275368653237819,0.513501968633011
1783696060300602400,0.351602294921875,0.790268334159255,0.014686112478375434,0.6080333328511566
1783696060310566400,0.36156640625,0.7741916441053152,-0.04974339733421802,0.6596501959070563
1783696060320529400,0.371529296875,0.687407679143548,-0.10212123482525348,0.6399225821301341
1783696060330493400,0.381493408203125,0.6044295362055301,-0.12002397126257419,0.6271510711014271
1783696060340457500,0.39145751953125,0.5810416463553905,-0.1588403163909912,0.5634844354201108
1783696060350420500,0.40142041015625,0.5842711297959089,-0.24178806419074533,0.3999797074146568
1783696060360384500,0.411384521484375,0.5015145206540823,-0.28879999073445795,0.3022835224900394
1783696060370348500,0.4213486328125,0.32535189806222914,-0.2745323959290981,0.24375037723965942
1783696060380311600,0.4313115234375,0.19008242687284946,-0.2139262437969446,0.19595270714573562
1783696060390275600,0.441275634765625,0.0726402887970209,-0.14883096355199812,0.1835075054619461
1783696060400239400,0.4512392578125,-0.07067804881334304,-0.0885088890582323,0.23626067907139658
1783696060410202600,0.46120263671875,-0.14365560674071312,0.017997428983449935,0.32131160969547923
1783696060420166400,0.47116650390625,-0.10059271008372306,0.12313128962814807,0.3920745603132993
1783696060430130400,0.48113037109375,-0.04864332713782787,0.1684860966145992,0.4213287118483334
1783696060440093400,0.491093505859375,0.001513327172398567,0.1466232243746519,0.4181844955384731
1783696060450057500,0.501057373046875,0.09120528853535652,0.12655366529226303,0.4543638432268053
1783696060460021500,0.511021484375,0.1763818183004856,0.027600539109110832,0.5324348518356681
1783696060469984500,0.520984619140625,0.3150157974869013,-0.09298691125512122,0.6309232100512832
1783696060479948500,0.530948486328125,0.4300695791214704,-0.20270517708063124,0.6989851580820977
1783696060489912600,0.54091259765625,0.4587935693025589,-0.3099187666088343,0.7348858349595219
1783696060499875600,0.55087548828125,0.4544692763626575,-0.3874123406559229,0.7515076647408306
1783696060509839600,0.560839599609375,0.4435790490359068,-0.4085468986213207,0.7335600662484765
1783696060519803600,0.5708037109375,0.35051790350079537,-0.4308095838338136,0.7204113924704492
1783696060529766700,0.5807666015625,0.09986030415594577,-0.3980243355631828,0.7060412871386855
1783696060539730400,0.59073046875,-0.2482861940383911,-0.30100714587867256,0.6999693468138575
1783696060549694500,0.600694580078125,-0.5337620087862014,-0.22374387345612048,0.7224410716671497
1783696060559657500,0.610657470703125,-0.6939204220384358,-0.29505262138843535,0.8390535539858043
1783696060569621500,0.62062158203125,-0.6744733787685633,-0.45082478238046164,1.023695908696577
1783696060579585500,0.63058544921875,-0.4958668701559305,-0.5501204383909702,1.0308067636150866
1783696060589548500,0.640548583984375,-0.2803144864618778,-0.5268079518646002,0.7536739028640091
1783696060599512600,0.6505126953125,-0.20648352657556532,-0.4356926797002554,0.3977791286304593
1783696060609476600,0.6604765625,-0.2856242833077907,-0.3744529058396816,0.11413513241969048
1783696060619439600,0.670439697265625,-0.4178226764887571,-0.29906127250790593,-0.0570193796865642
1783696060629403600,0.680403564453125,-0.5386562105685472,-0.14368892448842524,-0.13940759390741586
1783696060639367700,0.69036767578125,-0.5863099421471357,0.05192950920164585,-0.05020575414896011
1783696060649330700,0.70033056640625,-0.43188159697949885,0.15093582687675952,0.09290193638540804
1783696060659294700,0.710294677734375,-0.1029261214673519,0.13384206873476504,0.19795593672692774
1783696060669258500,0.720258544921875,0.23175299238860605,0.008839724537730216,0.24063005326204
1783696060679222500,0.730222412109375,0.4645955335795879,-0.1378045426249504,0.20561236976422367
1783696060689185500,0.740185546875,0.5470668960392475,-0.28865093765258787,0.15891623117141424
1783696060699149600,0.750149658203125,0.465781528493762,-0.4638461765170097,0.16034728688783942
1783696060709112300,0.7601123046875,0.2846200747013092,-0.52535366140306,0.1348355367515236
1783696060719076400,0.770076416015625,0.11341653582155704,-0.47489305571019647,0.06142404438629746
1783696060729040600,0.78004052734375,-0.0381938293159008,-0.33282325685620306,-0.022395590877160428
1783696060739003400,0.79000341796875,-0.20383213528394697,-0.08700900588929653,-0.09868366159200667
1783696060748967400,0.799967529296875,-0.4570411726772785,0.2553916421294212,-0.2511397568386048
1783696060758931500,0.809931396484375,-0.7230389644950628,0.573006223937869,-0.41239319878593084
1783696060768894500,0.81989453125,-0.9365881916731595,0.8419833238273858,-0.5197727925308049
1783696060778858500,0.8298583984375,-1.0779904665291309,1.05443715698421,-0.6003307225845754
1783696060788822500,0.839822509765625,-1.159992457911372,1.1742203052282332,-0.6278481865201145
1783696060798785500,0.84978564453125,-1.1373358049452305,1.207456804397702,-0.6311163945358246
1783696060808749300,0.859749267578125,-0.9952724358320235,1.1681593977540732,-0.5880521827045828
1783696060818713300,0.86971337890625,-0.7422785024940967,1.0451993730396032,-0.4805396832950413
1783696060828676400,0.87967626953125,-0.4392541715741157,0.8653916719436645,-0.44215434999503195
1783696060838640400,0.889640380859375,-0.2019488057553768,0.6340712257534266,-0.38957390260398383
1783696060848604400,0.8996044921875,-0.1101636715054512,0.39401743800938127,-0.34116737989671525
1783696060858567400,0.9095673828125,-0.04599076680243015,0.17434475951492787,-0.2986456043791026
1783696060868531500,0.919531494140625,0.016392331874370576,-0.015616086804866789,-0.22312946788482366
1783696060878495500,0.92949560546875,0.11175006391406059,-0.13296587042212485,-0.15100954970009625
1783696060888458500,0.93945849609375,0.26499358321130273,-0.18558979162871836,-0.09375643432289361
1783696060898422500,0.949422607421875,0.34320202752947804,-0.196467159473896,-0.1227675708822906
1783696060908386600,0.959386474609375,0.39877603071331974,-0.14459844054877757,-0.16923676885142921
1783696060918349600,0.969349609375,0.42318975647985935,-0.07675649194419383,-0.1456510183416307
1783696060928313600,0.979313720703125,0.40407413712143897,0.045318566629290576,-0.10832008946537972
1783696060938277400,0.98927734375,0.3785544959396124,0.15019231503307817,-0.10348360921964049
1783696060948240600,0.99924072265625,0.40917642869651316,0.26196459077894685,-0.11707834626473486
1783696060958204400,1.009204345703125,0.4351514124304056,0.27305355554819105,-0.13465491948761046
1783696060968168400,1.01916845703125,0.46419279799759383,0.27750527426004407,-0.14832089513801036
1783696060978131500,1.02913134765625,0.49671384237408633,0.2535924837529659,-0.1732047956995666
1783696060988095500,1.039095458984375,0.5261538718700408,0.18423545441031455,-0.24004648122042416
1783696060998059500,1.0490595703125,0.5156687182128429,0.14970190116763113,-0.23739487073309717
1783696061008023600,1.0590234375,0.5225742598176002,0.0749058956414461,-0.12153664084784686
1783696061017986600,1.068986572265625,0.48312370843887326,0.034946225696802134,-0.03678915014974773
1783696061027950600,1.07895068359375,0.43353404036164284,0.05483049134016037,-0.03356799614615738
1783696061037913600,1.08891357421875,0.39790450857579707,0.03922083427608013,0.006624898032471537
1783696061047877600,1.098877685546875,0.35545945155620573,0.02390928337574005,0.07861220281347632
1783696061057841700,1.108841552734375,0.32907237989008425,0.013852584263682365,0.1520320976808667
1783696061067804700,1.1188046875,0.3454460070639849,-0.0038280338555574415,0.18920622856020927
1783696061077768400,1.1287685546875,0.40862756264209743,-0.04542611865699291,0.20739428474493324
1783696061087732500,1.138732421875,0.5129898543924093,-0.06695113724470138,0.196967948602885
1783696061097695500,1.148695556640625,0.6320663156718015,-0.1320136842638254,0.2069607156332582
1783696061107659500,1.158659423828125,0.6263830093383789,-0.18800035990178585,0.18908143313676118
1783696061117623600,1.16862353515625,0.5004319861143827,-0.20623802738189695,0.12443725766018032
1783696061127586600,1.178586669921875,0.3009276509016752,-0.20509177995622158,0.1172068680152297
1783696061137550600,1.188550537109375,0.13028759112358093,-0.21056115127801894,0.14523359664715826
1783696061147514600,1.1985146484375,-0.026883915272355077,-0.16581073992550371,0.14467333241589367
1783696061157477600,1.2084775390625,-0.12107669518589972,-0.09301087665259837,0.14028262317627668
1783696061167441700,1.218441650390625,-0.19060966561734674,-0.04096270950734615,0.21751557352580128
1783696061177405700,1.22840576171875,-0.18415128325819968,-0.040380525705218315,0.32738245404176414
1783696061187368400,1.238368408203125,-0.12849077083468435,-0.08524374978244305,0.4577488094899803
1783696061197332700,1.248332763671875,-0.09833177941441536,-0.12623510086238385,0.5604644300118088
1783696061207296500,1.258296630859375,-0.08186170612871646,-0.16320260325372218,0.5730858650453389
1783696061217259500,1.268259521484375,-0.06738251439929008,-0.2598714178919792,0.5251746515743434
1783696061227223300,1.278223388671875,-0.09876374109089374,-0.32268121754825113,0.3931664472032338
1783696061237187600,1.2881875,-0.1456295371621847,-0.34818273855149745,0.20338892156109212
1783696061247150300,1.298150390625,-0.24443127217590807,-0.35187457880675793,0.032768662462010975
1783696061257114400,1.3081142578125,-0.3586503565520048,-0.31710254063308235,-0.13032076274082063
1783696061267080200,1.318080078125,-0.4771218376755714,-0.22310089937746524,-0.24543613836951553
1783696061277043200,1.328043212890625,-0.6366115578860044,-0.20265666176378727,-0.20297003856189547
1783696061287007000,1.338007080078125,-0.7133984449684619,-0.2504723059058189,-0.02546915310360491
1783696061296971000,1.347970947265625,-0.666573565429449,-0.5013736508786678,0.3154031163040548
1783696061306934000,1.35793408203125,-0.36591654816269875,-0.6888578779518604,0.41675767760574817
1783696061316898000,1.36789794921875,-0.0751157389998436,-0.7899410019010304,0.22447021496929226
1783696061326862000,1.377862060546875,-0.04115793981850147,-0.946374841672182,0.0312950827781111
1783696061336825000,1.3878251953125,-0.1555932972937822,-1.1375520780444144,-0.06950118705369532
1783696061346789000,1.3977890625,-0.36618133657872676,-1.2584113310873508,-0.16539171079583465
1783696061356753200,1.407753173828125,-0.5760714567273855,-1.1218716938316822,-0.3923867680676281
1783696061366716200,1.417716064453125,-0.7222691491663455,-0.8424293140292167,-0.5459410338144749
1783696061376680200,1.42768017578125,-0.7858283058851957,-0.5098562325417996,-0.4694399779360741
1783696061386644200,1.437644287109375,-0.7058686339855194,-0.18100597096979618,-0.2694916252829134
1783696061396607200,1.447607177734375,-0.5796364557325839,0.15989596292376518,-0.12281228680685162
1783696061406571300,1.4575712890625,-0.4046218341320753,0.4492068257898092,-0.007817761078849435
1783696061416535000,1.46753515625,-0.16426292596161365,0.6089426297158003,0.07459697582274676
1783696061426498000,1.477498046875,0.06636836892068386,0.6476712965607643,0.07455620542094112
1783696061436462000,1.487462158203125,0.15852292100489138,0.5535808079779148,-0.029568258985504508
1783696061446426000,1.497426025390625,0.09283259747624396,0.4984861127436161,-0.24164748667627572
1783696061456389000,1.50738916015625,-0.08569675424695014,0.46783495389223095,-0.4174436140432954
1783696061466353200,1.517353271484375,-0.27627777829170225,0.4890507604002952,-0.46934433554187416
1783696061476317200,1.527317138671875,-0.36097850723862646,0.6015384909391402,-0.4390062612276524
1783696061486280200,1.5372802734375,-0.3105360217243433,0.7565642174780368,-0.3355146148320287
1783696061496244200,1.547244140625,-0.09614566754698753,0.9050012132763862,-0.21776304548084735
1783696061506208300,1.557208251953125,0.1596253292888403,0.9714292034298181,-0.04914557757154107
1783696061516171300,1.567171142578125,0.44901451808810233,0.9192366593778133,0.10619418335258961
1783696061526135300,1.57713525390625,0.6801607767552137,0.7883136929601431,0.2730383579790592
1783696061536099000,1.58709912109375,0.7733926026821136,0.6252835236638784,0.3916642990119755
1783696061546062300,1.597062255859375,0.7485545140236616,0.4475228182256222,0.47330505586639043
1783696061556026000,1.607026123046875,0.6467004057019948,0.29816461592912674,0.558920488505438
1783696061565990100,1.616990234375,0.5631541074872016,0.1315478203177452,0.6106644850723445
1783696061575953200,1.626953125,0.4604781613886356,0.010813070437312125,0.64161798787117
1783696061585917200,1.636917236328125,0.39034137984514233,-0.03868541222512722,0.6222542389705776
1783696061595881200,1.646881103515625,0.3203004598915577,0.004262333619594574,0.48215084481872617
1783696061605844000,1.656843994140625,0.3103536508947611,0.14242401911914349,0.1862402914267033
1783696061615808300,1.666808349609375,0.2428530630737543,0.30854689373373984,-0.1464624077897519
1783696061625772300,1.676772216796875,-0.024507249268889426,0.5208294619768857,-0.4161698677804321
1783696061635735000,1.686735107421875,-0.4933569331616163,0.7363871063679456,-0.571703105450049
1783696061645699000,1.696698974609375,-0.9465005138784647,0.9734195004642009,-0.6369296839244664
1783696061655663000,1.7066630859375,-1.183445229691267,1.1656903772920368,-0.6298579919725656
1783696061665626000,1.716626220703125,-1.1392086130797863,1.3158470364898442,-0.6059189710456877
1783696061675590100,1.726590087890625,-0.9157166685581207,1.3926748401045799,-0.5994281477216631
1783696061685554000,1.736553955078125,-0.596443798148632,1.303122579473257,-0.5030716869682074
1783696061695517200,1.74651708984375,-0.35218846706151963,1.1789543480128049,-0.42389542053118345
1783696061705481000,1.75648095703125,-0.2984147912979126,1.005575803181529,-0.3190780784897506
1783696061715444000,1.76644384765625,-0.24517653758525848,0.8761018665283918,-0.29585334331206975
1783696061725408000,1.776407958984375,-0.10889818161427973,0.6832143191069364,-0.2240189640704542
1783696061735372000,1.7863720703125,0.10949848559498786,0.48593175159692764,-0.11934468376152217
1783696061745335000,1.7963349609375,0.33498131167292594,0.31674189062714575,-0.03666172437779605
1783696061755299000,1.806299072265625,0.4955915603458881,0.1697206068456173,0.03522248535491526
1783696061765263000,1.81626318359375,0.6291939751058817,0.07196048983931541,0.09173610747642814
1783696061775226000,1.82622607421875,0.7028402260750531,0.011736030501127242,0.11901311371959745
1783696061785190100,1.836190185546875,0.6477279951840639,-0.067917936450243,0.1435840028092265
1783696061795154200,1.846154296875,0.5057856221020222,-0.15151684163510798,0.12088168407045304
1783696061805117200,1.8561171875,0.3305734321027994,-0.18780512959063053,0.04255348583012819
1783696061815081200,1.866081298828125,0.16430676510334014,-0.23599895939528942,-0.030018998427689073
1783696061825045000,1.876044921875,0.023742110115289688,-0.2318599598944187,-0.07987301652953029
1783696061835008300,1.88600830078125,-0.10799041911959648,-0.2281394780665636,-0.1583664152689278
1783696061844972000,1.895971923828125,-0.21373568966090678,-0.2275023492068052,-0.24524843377768993
1783696061854936000,1.90593603515625,-0.29682196914851666,-0.21687106507718562,-0.30134733761847016
1783696061864899000,1.915899169921875,-0.38835458994209765,-0.164068280172348,-0.28621070489361883
1783696061874863000,1.925863037109375,-0.4552490285634994,-0.07301672089397906,-0.25118147708848115
1783696061884827100,1.9358271484375,-0.4702905303508043,0.03051847238242626,-0.1579310195263475
1783696061894790100,1.9457900390625,-0.445219801980257,0.13695230970978736,-0.05568455088622868
1783696061904754200,1.955754150390625,-0.4264800301969051,0.20739888785481453,0.05304813796803355
1783696061914718200,1.96571826171875,-0.3818780874043703,0.24634908849596976,0.1401720024086535
1783696061924681200,1.97568115234375,-0.3200508690446615,0.2624637724727392,0.18317856576852498
1783696061934645200,1.985645263671875,-0.2883808885395527,0.21784078689217568,0.1927514268863946
1783696061944609300,1.995609375,-0.31454584188759327,0.17715046458542347,0.18917977894470095
1783696061954572300,2.005572265625,-0.4100280770897865,0.12702829706668853,0.16903825060464442
1783696061964536000,2.0155361328125,-0.563183333581686,0.018880641558766363,0.19059059559069572
1783696061974500000,2.0255,-0.7249246321111917,-0.08927285916805267,0.22950755154937505
1783696061984463000,2.035463134765625,-0.7328034026622772,-0.2730658305078745,0.322982684712857
1783696061994427100,2.04542724609375,-0.5539280139803886,-0.47839726443886754,0.39473618073798716
1783696062004391200,2.05539111328125,-0.33412206449508663,-0.5415986937612295,0.21274894364587962
1783696062014354200,2.065354248046875,-0.25153087504804134,-0.49515024631917476,-0.02118548443503678
1783696062024318200,2.075318115234375,-0.268102070620656,-0.49497898140549657,-0.08203487073853612
1783696062034282200,2.0852822265625,-0.3068482731223106,-0.49139469317793844,-0.1390878604337573
1783696062044245200,2.095245361328125,-0.38304303953051566,-0.45646249600648875,-0.3535479188464582
1783696062054209300,2.105209228515625,-0.4656389051526785,-0.2995481792420149,-0.5792275826707483
1783696062064173300,2.11517333984375,-0.5926344689935445,-0.16199322746396064,-0.7037680084444582
1783696062074136000,2.125135986328125,-0.6536831041961908,-0.07023731930851936,-0.7431319044530391
1783696062084100400,2.135100341796875,-0.6263701498568057,-0.004622983625531196,-0.7267240827485919
1783696062094064000,2.145064208984375,-0.532899254477024,0.05801788920462131,-0.66032385738492
1783696062104027100,2.155027099609375,-0.3703150753825903,0.06747896051108837,-0.6322985169924795
1783696062113991000,2.164990966796875,-0.23439503132998943,-0.0007470189750194549,-0.6214869078598916
1783696062123955200,2.174955078125,-0.10440028567314147,-0.034168227061629294,-0.6326246802069246
1783696062133918000,2.18491796875,-0.0033037177205085754,-0.06342062503099441,-0.6472536556705832
1783696062143882000,2.194882080078125,-0.0044184009641408915,-0.04640928447544575,-0.6671265231370925
1783696062153845000,2.204844970703125,-0.021731939336657524,0.013216039925813675,-0.7319301269590854
1783696062163809000,2.21480908203125,-0.10482874021828174,0.10041267734169959,-0.7932293759219348
1783696062173773000,2.22477294921875,-0.2735913156867027,0.23225042051672934,-0.8025681360229849
1783696062183736000,2.234736083984375,-0.39318683240413665,0.48207390712499615,-0.8965360211394726
1783696062193700000,2.2447001953125,-0.5201783045917749,0.7198731939405203,-1.035193088940531
1783696062203664100,2.2546640625,-0.6386924558132887,0.9606155484706163,-1.203890928609669
1783696062213627100,2.264627197265625,-0.8899450984418391,1.016836617386341,-1.296012601337582
1783696062223591200,2.274591064453125,-0.9973065720081329,1.0538426982223987,-1.3646835481122135
1783696062233555200,2.28455517578125,-0.9328519277542829,1.0064274515748024,-1.3765667319990693
1783696062243518200,2.294518310546875,-0.6345382587432861,0.8554834413915872,-1.3332706111080943
1783696062253482000,2.30448193359375,-0.21352701534628868,0.6860264539182186,-1.2327115110330282
1783696062263445200,2.3144453125,0.14619476982951163,0.4684340888291597,-1.0691288224205373
1783696062273408300,2.324408203125,0.4127355824828148,0.2545616210460663,-0.8408616263210773
1783696062283372300,2.334372314453125,0.5266857867896556,0.08279460306465625,-0.6242056652992963
1783696062293336000,2.344336181640625,0.5316910477310419,-0.07408464238643646,-0.4319344962105155
1783696062303299000,2.354299072265625,0.46008477815687654,-0.18494447946250436,-0.31909444510266183
1783696062313263000,2.36426318359375,0.3701438104689121,-0.2399906593799591,-0.3088444153755903
1783696062323227100,2.37422705078125,0.2610422152370214,-0.23766133964955805,-0.35106998442560433
1783696062333190100,2.384190185546875,0.23103519950807094,-0.16723814238011836,-0.46232890382185576
1783696062343154200,2.394154296875,0.196437348857522,-0.08686112185120583,-0.5260746691539884
1783696062353118200,2.4041181640625,0.09925473947823046,0.02161269687116146,-0.4978424080125987
1783696062363081200,2.414081298828125,0.031031098079681393,0.23836042782962322,-0.6604337475001811
1783696062373045200,2.424045166015625,-0.0697737934499979,0.36904140218496323,-0.7783588467873632
1783696062383009300,2.43400927734375,-0.27146365600824357,0.4009428533583879,-0.6211094528496265
1783696062392972300,2.44397216796875,-0.46517771738171576,0.5009937116503715,-0.6243783915176987
1783696062402936300,2.453936279296875,-0.6322977863401175,0.5284282465428114,-0.6741068835437297
1783696062412900000,2.463900146484375,-0.6710545102357864,0.48407414103150365,-0.653094344522804
1783696062422863400,2.47386328125,-0.6073398706942796,0.4561392554014921,-0.6871383606828749
1783696062432827100,2.4838271484375,-0.47414837482273575,0.40074586948156354,-0.7189766834922134
1783696062442791200,2.493791259765625,-0.3053893064856529,0.26908699000477787,-0.7622526383779943
1783696062452754000,2.50375390625,-0.12580313918590544,0.1201981587857008,-0.725234574843198
1783696062462718200,2.51371826171875,0.0026741876453161236,-0.013383797708153724,-0.6337294265784322
1783696062472681000,2.523680908203125,0.10220832858681678,-0.0945084217339754,-0.5399364596374333
1783696062482645000,2.53364501953125,0.17159399950206278,-0.16892156542241574,-0.4288219171479344
1783696062492609000,2.543609130859375,0.2299386364430189,-0.20584055249691008,-0.3052358694896102
1783696062502572000,2.553572021484375,0.25022622219026086,-0.17675883491933345,-0.2005183345608413
1783696062512536000,2.5635361328125,0.22378186737895012,-0.14889701452553272,-0.07173442599847912
1783696062522500000,2.5735,0.15759119311273098,-0.10229951400160789,0.0486475649215281
1783696062532463000,2.583463134765625,0.039327801781892775,-0.07092763966023921,0.05347878447026014
1783696062542427100,2.59342724609375,-0.08545593122839927,-0.04749941779971122,0.04478972044959664
1783696062552391200,2.60339111328125,-0.1424269417285919,-0.030618425625562665,0.046863750244677066
1783696062562354200,2.613354248046875,-0.1457604700654745,-0.04126023114919662,0.06458484650477767
1783696062572318000,2.62331787109375,-0.12357201913297175,-0.049671501141786575,0.05002645205929875
1783696062582282000,2.633281982421875,-0.11747837843298911,-0.10260755703747272,0.0488338812738657
1783696062592245000,2.643244873046875,-0.13502864817082882,-0.14896540358662605,0.08088190131112932
1783696062602209000,2.653208984375,-0.20943536211848257,-0.1728875464439392,0.09088190179988741
1783696062612173000,2.663173095703125,-0.2490004797875881,-0.20829262182414532,0.06145517017692327
1783696062622136000,2.673135986328125,-0.3079436671435833,-0.26812662054002284,0.05635872382074594
1783696062632100000,2.68310009765625,-0.508704724419117,-0.31921208013296126,0.08851122714579104
1783696062642064100,2.693064208984375,-0.6313759953200817,-0.36794250103235243,0.17682152489200234
1783696062652027100,2.703027099609375,-0.6010948388248681,-0.3627046003788709,0.20589038298800585
1783696062661991200,2.7129912109375,-0.5856213753610849,-0.17012684955894947,-0.03185965785831213
1783696062671955200,2.722955078125,-0.7573410470694303,0.1776227582722902,-0.4615341001823544
1783696062681918200,2.732918212890625,-0.9926473480254411,0.5238830043286085,-0.8725722310975194
1783696062691882200,2.74288232421875,-1.1823358071446417,0.7810743893563747,-1.1410403585515916
1783696062701846000,2.752845947265625,-1.3561439755648375,0.9332733680367469,-1.1940880581282078
1783696062711809300,2.762809326171875,-1.4906290183782576,1.059015716946125,-1.123553509438783
1783696062721773000,2.77277294921875,-1.4143325451612472,1.1942162145525217,-0.9427915763579309
1783696062731737000,2.782737060546875,-1.1447042878866196,1.036389459118247,-0.7849357409596442
1783696062741700000,2.7927001953125,-0.6869611044198274,0.735243197029829,-0.5323085951074957
1783696062751664000,2.8026640625,-0.2037222451686859,0.5074930105417966,-0.3161674517400563
1783696062761628200,2.812628173828125,0.07495090382695198,0.3685100717872381,-0.2075507174156606
1783696062771591200,2.822591064453125,0.11337328120172023,0.26350305239260197,-0.3158392426989972
1783696062781555200,2.83255517578125,-0.1480482887417078,0.22762685236930846,-0.495575924385339
1783696062791519200,2.842519287109375,-0.5403144991695881,0.2180354326814413,-0.7515306072250009
1783696062801482200,2.852482177734375,-0.926988004156947,0.27848727103471754,-0.9580725859895348
1783696062811446300,2.8624462890625,-1.1565420251965521,0.4773971474856138,-1.0992857680141925
1783696062821409300,2.8724091796875,-1.2024521279782057,0.7678419828176498,-1.1481116121120751
1783696062831373300,2.882373291015625,-1.0739321310490368,1.0609615903168916,-1.199586801674962
1783696062841337000,2.892337158203125,-0.8512842361360787,1.287199034154415,-1.1739781670354306
1783696062851300400,2.90230029296875,-0.7377765148997306,1.3721002541095018,-1.1066184489898383
1783696062861264100,2.91226416015625,-0.7863724957644939,1.2165087103813885,-1.158555849236995
1783696062871228200,2.922228271484375,-0.8069593567192554,1.1460603786706924,-1.175295971635729
1783696062881191000,2.93219091796875,-0.8038964620172977,0.8762135102093219,-1.2319567471429704
1783696062891155200,2.9421552734375,-0.6825619926780462,0.7162409749180078,-1.2277309461414814
1783696062901119200,2.952119140625,-0.5555939013659954,0.47851942951381204,-1.2206709446273742
1783696062911082000,2.96208203125,-0.4988607912749052,0.19724398906528948,-1.2015769525788724
1783696062921046000,2.9720458984375,-0.47083296666443347,0.024345921227335927,-1.1465037385240195
1783696062931010300,2.98201025390625,-0.4557283365130424,-0.07904372609853744,-1.1071515329532324
1783696062940973000,2.99197314453125,-0.5714519802331924,-0.1767699408352375,-1.104652263483405
1783696062950937000,3.00193701171875,-0.6178238553076982,0.004616553884744644,-1.0322669723607598
1783696062960901000,3.011901123046875,-0.687299542593956,0.013919219759106635,-1.058405037701875
1783696062970864000,3.021864013671875,-0.7807610856235027,0.1454465818107128,-1.1245717465706169
1783696062980828200,3.031828125,-0.7934498868048191,0.3405167339682579,-1.2063846451215445
1783696062990792000,3.0417919921875,-0.8096937501192092,0.4545189607232809,-1.2969406759679316
1783696063000755000,3.0517548828125,-0.8296306227326392,0.6432745229065417,-1.4045548091210425
1783696063010719000,3.061718994140625,-0.8253811485946178,0.797400085735321,-1.5134613201722502
1783696063020683000,3.07168310546875,-0.7442179461240768,0.952566682049632,-1.4960716478236018
1783696063030646000,3.08164599609375,-0.5811375079452992,1.050587495818734,-1.3433593127936123
1783696063040610000,3.091610107421875,-0.36300796723961826,1.1392635581374169,-1.106935844375938
1783696063050574000,3.101573974609375,-0.10683891099691391,1.2408604768276215,-0.8397492811650037
1783696063060537000,3.111537109375,0.13628186310231685,1.2117127082765102,-0.6543086887486279
1783696063070501000,3.121501220703125,0.3218056037575006,1.0644552776515483,-0.5119730785652995
1783696063080465200,3.131465087890625,0.4629436747193336,0.8977771072417497,-0.37530689232051373
1783696063090428200,3.14142822265625,0.47997255093157287,0.6351975994348525,-0.25856267338097094
1783696063100392200,3.15139208984375,0.4778092354178428,0.4910118313401937,-0.17237185200676322
1783696063110355200,3.161355224609375,0.569356469258666,0.36571371906697747,-0.2068845085918903
1783696063120319200,3.1713193359375,0.6615016689926385,0.1663169358819723,-0.23906784544661638
1783696063130283000,3.181282958984375,0.061220484638214105,1.2510481088429688,2.6880621491506695
1783696063140246300,3.191246337890625,-3.132301415660977,12.615015814137458,23.09651036430597
1783696063150210000,3.2012099609375,1.9883166742205618,-0.493260487049818,-10.327660079240799
1783696063160174000,3.211174072265625,0.2660334476530552,-2.3267063330322504,-3.998020419862866
1783696063170137000,3.22113720703125,-0.38962124887704846,-2.7719331492751835,0.6420839248824864
1783696063180101000,3.23110107421875,-0.23792671258747577,-2.278964338648319,-0.6505284395575524
1783696063190065200,3.241065185546875,-0.31750819882452486,-1.048746836388111,-1.8659578302696347
1783696063200028200,3.251028076171875,-0.2079004076361656,-0.30247663390934465,-1.739209226927161
1783696063209992200,3.2609921875,-0.4994213477671146,0.03212766114473343,-0.2858353687752038
1783696063219956200,3.270956298828125,-0.8424304830729961,0.5244610964775085,0.012092077397182583
1783696063229919200,3.280919189453125,-1.2802701116740702,0.9888882877528666,-0.2025253635343164
1783696063239883300,3.29088330078125,-1.6068600270986555,1.1704507235616446,-0.02478460490554571
1783696063249847300,3.300847412109375,-1.5019073682397603,0.9965367566794157,0.19824264471381903
1783696063259810300,3.310810302734375,-1.110717262610793,0.6396095706582069,0.3717586983196437
1783696063269773800,3.32077392578125,-0.6729261493265628,0.4257487933129072,0.45320378647148607
1783696063279737600,3.330737548828125,-0.6014777006626129,0.2277203758716583,0.5055657688062638
1783696063289700900,3.340700927734375,-0.5095487740278244,0.11779811190664767,0.517515295927599
1783696063299664600,3.35066455078125,-0.3983475761681795,0.023143559700250626,0.37717254006192086
1783696063309628700,3.360628662109375,-0.3252922768294811,-0.01542261005938053,0.07350070501863956
1783696063319591700,3.370591796875,-0.3491805174171924,0.04459843566119671,-0.323529578005895
1783696063329555700,3.3805556640625,-0.3583183481186628,0.16313713680207728,-0.640184886328131
1783696063339519700,3.390519775390625,-0.4548714274227619,0.24863398456275462,-0.7897992553427815
1783696063349482800,3.400482666015625,-0.6288567059755324,0.33748832605779167,-0.9416145684678107
1783696063359446800,3.41044677734375,-0.8362544247865676,0.4372364020109176,-1.0174660743962973
1783696063369410800,3.420410888671875,-0.8510404905080795,0.5947761571973562,-0.8695878084592521
1783696063379373800,3.430373779296875,-0.6333364817380904,0.6794172649115323,-0.6332439080838114
1783696063389337900,3.440337890625,-0.26358897711038587,0.6530670181244611,-0.2751474590875208
1783696063399302000,3.450302001953125,0.12418050642013549,0.5839011274397373,-0.178655462320894
1783696063409265000,3.460264892578125,0.4692687860876322,0.5002326641499996,-0.28415932532176374
1783696063419228700,3.470228759765625,0.5944014786660671,0.39655893918573853,-0.4003716293416917
1783696063429192000,3.48019189453125,0.4735702826738357,0.3984434377580881,-0.49364203371331095
1783696063439155700,3.49015576171875,0.2292202590405941,0.5030009598195553,-0.6072676822409033
1783696063449119700,3.50011962890625,-0.046941199395060536,0.6279845993161202,-0.6497666614048183
1783696063459082800,3.510082763671875,-0.29508418557047844,0.8514923259288072,-0.5869648989245295
1783696063469046800,3.520046875,-0.4784545475840568,1.0574112043589352,-0.49665509792417284
1783696063479010800,3.5300107421875,-0.5803630164414644,1.1546060886979101,-0.4160151886753738
1783696063488973800,3.539973876953125,-0.48479368747770785,1.2120400405347347,-0.3160109460040927
1783696063498937900,3.549937744140625,-0.33568975220322606,1.106080834981799,-0.30380846703499553
1783696063508902000,3.55990185546875,-0.2716957111984491,0.9529793545037507,-0.36753508927524087
1783696063518865000,3.569864990234375,-0.33804420637488364,0.8263421025812625,-0.5398569646604359
1783696063528829000,3.579828857421875,-0.47370881436169143,0.7096879000127315,-0.6839907103069126
1783696063538793000,3.58979296875,-0.5985515840828418,0.5880319436341523,-0.71932827340886
1783696063548755700,3.599755615234375,-0.7411971369981766,0.5273562333971261,-0.7346437698319553
1783696063558720000,3.609719970703125,-0.8244862455815076,0.5434340924948453,-0.7391025028064847
1783696063568683800,3.619683837890625,-0.8815595474123954,0.5736749169796705,-0.6397899687264115
1783696063578646800,3.629646728515625,-0.9306903658062219,0.6460200222223996,-0.48796683762110765
1783696063588610600,3.639610595703125,-0.966416343703866,0.7063678156793117,-0.3731483991123736
1783696063598574600,3.64957470703125,-0.9733972886323928,0.7284960608571768,-0.27784553906507786
1783696063608537600,3.65953759765625,-0.9511433712482452,0.6939999170154333,-0.23289704785719512
1783696063618501600,3.669501708984375,-0.8595727565318345,0.6659072104752063,-0.17358729221113026
1783696063628465700,3.679465576171875,-0.7262590955853462,0.6318325069159269,-0.0479522030685097
1783696063638428700,3.6894287109375,-0.6016261692225933,0.47175651125013823,-0.028646760226413607
1783696063648392700,3.699392822265625,-0.5365168604522943,0.23809563941359518,-0.06732508512362838
1783696063658356700,3.709356689453125,-0.5440490095227957,0.07779401829838753,-0.07017623677104712
1783696063668319700,3.71931982421875,-0.5502963794797658,-0.03415595210194587,-0.2606050659287721
1783696063678283800,3.72928369140625,-0.531970449194312,-0.16709493451714516,-0.29022366686202583
1783696063688246800,3.739246826171875,-0.48557285515666004,-0.19122399812340735,-0.23419132545143365
1783696063698210800,3.7492109375,-0.4347510149359703,-0.21144085672199725,-0.1981433490578085
1783696063708174600,3.759174560546875,-0.47171734828352924,-0.1711801580041647,-0.17727445629127322
1783696063718137900,3.769137939453125,-0.5302431870102882,-0.12172960613667964,-0.09130217303857206
1783696063728101600,3.7791015625,-0.5878501573264598,-0.09460369880199432,-0.030012641752138733
1783696063738065700,3.789065673828125,-0.5648603268831968,-0.07157762800157069,0.0035297815613448617
1783696063748028700,3.799028564453125,-0.4703939907252788,-0.05554419256746768,0.004533186450228095
1783696063757992700,3.80899267578125,-0.36540918316245075,-0.13203648061752318,-0.05460143182463944
1783696063767956700,3.818956787109375,-0.2859820107042789,-0.09976619613170623,-0.07334376089125871
1783696063777919700,3.828919677734375,-0.22022914333343505,-0.011883914539217949,-0.03867598680965602
1783696063787883800,3.8388837890625,-0.44710371603071686,-0.11324527090787886,-0.09168751909434796
1783696063797847800,3.848847900390625,-0.716425099313259,0.0620791472941637,-0.19055355151593684
1783696063807810800,3.858810791015625,-0.7924883482962847,0.2389139700591564,-0.16008169475421308
1783696063817774800,3.86877490234375,-0.8599977039456367,0.1461824948698282,-0.12366736926622689
1783696063827739000,3.87873876953125,-0.8086193988859653,0.20237199960350988,-0.16676329140998422
1783696063837702000,3.888701904296875,-0.7611942153662443,0.16707330720722674,-0.27252076384574175
1783696063847665700,3.898665771484375,-0.5722288098245859,0.2236082643777132,-0.2447090662039816
1783696063857629700,3.908629638671875,-0.30026071142554284,0.21222528509795666,-0.2286937509484589
1783696063867592700,3.9185927734375,-0.15054069007933138,0.1709796669960022,-0.25800723145529625
1783696063877556700,3.928556640625,-0.09182605078220367,0.13232406538724897,-0.3429905036706477
1783696063887520800,3.938520751953125,-0.06258125159740448,0.08319967673420905,-0.35020803383402527
1783696063897483800,3.94848388671875,-0.11873276240825652,0.07042085918188094,-0.3630377047907561
1783696063907447800,3.95844775390625,-0.08964929126501082,0.07848375412821769,-0.3696369569253176
1783696063917411800,3.968411865234375,0.12812427560985087,0.038299627777934074,-0.35080366163961585
1783696063927374800,3.978374755859375,0.37653964898586273,-0.016170213556289673,-0.2442484629549086
1783696063937339000,3.9883388671875,0.574376927769184,-0.0997936686605215,-0.19891499101743101
1783696063947302000,3.998302001953125,0.7043430318534374,-0.17501052994728086,-0.17829408166259525
1783696063957266000,4.008265869140625,0.790941703376174,-0.24256956995725631,-0.1733271069049835
1783696063967230000,4.01822998046875,0.7279454412370919,-0.28944647194445133,-0.15180011555589734
1783696063977192700,4.028192626953125,0.5971878945142031,-0.29321371552348136,-0.16669870174117385
1783696063987157000,4.038156982421875,0.4352110336631536,-0.25990415111780163,-0.20258323120139538
1783696063997120800,4.048120849609375,0.3985445600450039,-0.25410569397211075,-0.20480448744744062
1783696064007083800,4.058083740234375,0.5158206939041614,-0.2625584650188684,-0.2389355973690748
1783696064017047600,4.068047607421875,0.7133844164431095,-0.2857657376050949,-0.26728242480084297
1783696064027011800,4.07801171875,0.6962211001962423,-0.3099462391376495,-0.26711269425712525
1783696064036974600,4.087974609375,0.5807488008886575,-0.25180443129241464,-0.3234859580598771
1783696064046938600,4.097938720703125,0.5310667783528566,-0.1713274575203657,-0.3719962334025651
1783696064056902700,4.107902587890625,0.37207390174865723,-0.251736626753211,-0.24698453685529528
1783696064066865700,4.11786572265625,0.18025369129776952,-0.22002865232527255,-0.3007229951750487
1783696064076829700,4.12782958984375,0.04163081802725792,-0.14688216757178305,-0.45955432454198597
1783696064086793700,4.137793701171875,0.056735448178648944,-0.10788228257000446,-0.4194981354203075
1783696064096756700,4.1477568359375,-0.07969312991797924,-0.125095283177495,-0.21550854455232618
1783696064106720800,4.157720703125,-0.1381271987080574,-0.059662149280309676,-0.2524048814035952
1783696064116684800,4.167684814453125,-0.029691373908519742,-0.09699790046215057,-0.2867722842991352
1783696064126647800,4.177647705078125,0.1772919188827276,-0.23510756351351736,-0.13359642341062425
1783696064136611600,4.187611572265625,0.3239548907458782,-0.4364829532951116,-0.020416326693445442
1783696064146575600,4.19757568359375,0.4230483021825552,-0.7010282082170247,0.09252192409187555
1783696064156538600,4.20753857421875,0.46511341997385025,-0.954480406716466,0.20827567068934438
1783696064166502700,4.217502685546875,0.4733797285377979,-1.046508702072501,0.08149623381718993
1783696064176466700,4.227466796875,0.39205870515704155,-0.9428098426669835,-0.2547963065847754
1783696064186429700,4.2374296875,0.08070610635280609,-0.755502725726366,-0.5243004260230809
1783696064196393700,4.247393798828125,-0.161201784825325,-0.49636546732783315,-0.6767040604300797
1783696064206356700,4.257356689453125,-0.3405155649244785,-0.19180852001309392,-0.7302923696894198
1783696064216320800,4.26732080078125,-0.4034931223630905,0.11279051287770271,-0.6280624868579209
1783696064226284800,4.277284912109375,-0.3505798628211021,0.30288112305700776,-0.43720001552328464
1783696064236247800,4.287247802734375,-0.323147666016221,0.37325755857527254,-0.2543108611553907
1783696064246211800,4.2972119140625,-0.0544587354183197,0.47214171117544174,-0.07989595901370047
1783696064256175900,4.30717578125,0.30644144588708877,0.3589525543689728,0.09135653357431292
1783696064266138600,4.317138671875,0.5508581050157547,0.13220716100931168,0.12558496639057992
1783696064276102700,4.3271025390625,0.5728998409539461,-0.09127660020589828,0.023504794228076935
1783696064286066400,4.33706640625,0.42188919527530666,-0.3089958065450191,-0.034712416940927505
1783696064296029400,4.347029541015625,0.13069909453392028,-0.4078238450437784,-0.0783582280524075
1783696064305993500,4.356993408203125,-0.14651274973750114,-0.3865343887776136,-0.14818155973255634
1783696064315957500,4.36695751953125,-0.15353285763263702,-0.23885610239207744,-0.2089366188161075
1783696064325920500,4.37692041015625,-0.017568974438309667,-0.08331658111214638,-0.17956994681730865
1783696064335884500,4.386884521484375,0.07310615274310112,0.043650925678014756,-0.10112462500333785
1783696064345848600,4.3968486328125,0.23564064747691152,0.2811556134611368,-0.0730317723326385
1783696064355811600,4.4068115234375,0.3625064474582672,0.3774889125347137,-0.09384469712823629
1783696064365775600,4.416775634765625,0.4238040889859199,0.4471861336171627,-0.0789861506924033
1783696064375739600,4.42673974609375,0.5869575924009084,0.6021393794417381,0.021806758138537406
1783696064385702700,4.43670263671875,0.6370178005993365,0.5453121613264084,0.0572461741797626
1783696064395666700,4.446666748046875,0.6397691451340913,0.5623170721411704,0.11223448643013834
1783696064405630500,4.45663037109375,0.6777139681249856,0.5810878235846757,0.22621230939626694
1783696064415593700,4.46659375,0.5713572876870632,0.4006646209388971,0.24665011726915834
1783696064425557500,4.4765576171875,0.5439572395861149,0.4359533764630556,0.1799982552319765
1783696064435520500,4.4865205078125,0.5314893876791,0.37134441843032834,0.19737623714283106
1783696064445484300,4.496484375,0.34087621493041514,0.18815993437767028,0.2605681679844856
1783696064455448300,4.5064482421875,0.118511813133955,0.09501461769044399,0.26987521777302026
1783696064465411300,4.516411376953125,-0.08630290344655513,-0.0034708909809589386,0.36375980852022766
1783696064475375400,4.526375244140625,-0.08313654837012291,-0.08868483014702797,0.5045215935155749
1783696064485339400,4.53633935546875,0.13445523219704628,-0.24550270079970357,0.6585849047631025
1783696064495302400,4.546302490234375,0.38492987619042396,-0.430820105227828,0.801242878768593
1783696064505266400,4.556266357421875,0.5309732548505067,-0.6053484046161175,0.8273727608032524
1783696064515230500,4.56623046875,0.5608025759249925,-0.7921995944827794,0.8178484150022268
1783696064525193500,4.576193359375,0.4977992995232343,-0.9870739318072795,0.7932466193176806
1783696064535157500,4.586157470703125,0.33180268163681026,-1.1253940227389334,0.6539473080903291
1783696064545121500,4.59612158203125,0.13874503834545612,-1.0890034434527158,0.4652589659243822
1783696064555084500,4.60608447265625,-0.09898059871196746,-0.8905132537186146,0.32097806689217684
1783696064565048600,4.616048583984375,-0.209124980995059,-0.6254144565671682,0.24732699361741542
1783696064575012400,4.626012451171875,-0.2087199073255062,-0.4102537025392055,0.26775281879156826
1783696064584975400,4.635975341796875,-0.12863339417576788,-0.187017194083333,0.26457842653915287
1783696064594939400,4.645939453125,-0.1360229199051857,-0.013556231665611266,0.2926462908990681
1783696064604903400,4.6559033203125,-0.0899117415934801,0.14754559991657734,0.30206936828270553
1783696064614866400,4.665866455078125,0.0817687671482563,0.22516075451672077,0.3172672296755016
1783696064624830500,4.67583056640625,0.2851730324089527,0.17189619731903075,0.3613217677183449
1783696064634794500,4.68579443359375,0.4745511104047298,0.12504559881687163,0.38226927867904303
1783696064644757500,4.695757568359375,0.586572392475605,0.04793430208563804,0.3535191311433911
1783696064654721500,4.705721435546875,0.7079290736466646,0.017804536759853364,0.30036855571418997
1783696064664685600,4.715685546875,0.8233242160648107,-0.057199558559060094,0.3615656594768166
1783696064674648600,4.725648681640625,0.9407026412546634,-0.12763327722251414,0.43776101040691134
1783696064684612600,4.735612548828125,0.9962672920882701,-0.19146248305439947,0.4780890752725303
1783696064694575600,4.74557568359375,1.0171364771157503,-0.2677367444396019,0.5159904975131153
1783696064704539600,4.75553955078125,1.0205477468639612,-0.32506022163927556,0.5328074845403432
1783696064714503400,4.76550341796875,0.8958253886520862,-0.3360679378658533,0.47291883302778004
1783696064724466700,4.775466796875,0.6799667154878377,-0.3314478768497705,0.41311508331969377
1783696064734430500,4.785430419921875,0.48778994668424125,-0.2603139009624719,0.3801457837190479
1783696064744394500,4.79539453125,0.35356209350228307,-0.22074001546502112,0.37360323020778596
1783696064754357500,4.805357421875,0.354940396118164,-0.27086569011509415,0.4037821684375405
1783696064764321500,4.815321533203125,0.281845349290967,-0.36368601263165473,0.4697918601136654
1783696064774285600,4.82528564453125,0.23220658137500286,-0.30491292114555835,0.43471163277365266
1783696064784248600,4.83524853515625,0.2801730321645737,-0.23510990160107612,0.4115252568449825
1783696064794212600,4.845212646484375,0.3137000387132168,-0.20305881282389163,0.41641003321185704
1783696064804176600,4.8551767578125,0.30001930388510223,-0.12514964371323584,0.40600737020634114
1783696064814139600,4.8651396484375,0.24027532154023645,-0.026592238849401473,0.3666037267092615
1783696064824103700,4.875103759765625,0.16072072331011295,0.04406184456646442,0.29527108644470573
1783696064834067500,4.8850673828125,0.08409165713787078,0.0672118340075016,0.23912366728708145
1783696064844030700,4.89503076171875,-0.11353577828705311,0.0801350284665823,0.23943865152038632
1783696064853994500,4.904994384765625,-0.2905494647502899,0.16369243259727953,0.2553725721027702
1783696064863958500,4.91495849609375,-0.4638566979110241,0.1255962184369564,0.28877083770520984
1783696064873921300,4.92492138671875,-0.6323433790475129,0.052205403533577915,0.3860997236873954
1783696064883885600,4.934885498046875,-0.7131131982862949,0.0553431170374155,0.41573549495115875
1783696064893849600,4.944849609375,-0.7616770304471254,-0.03266659032702446,0.5166498382046818
1783696064903812400,4.954812255859375,-0.7081137825638055,-0.23937515783011912,0.6891242007378489
1783696064913776400,4.9647763671875,-0.5491548082292079,-0.4549193582177162,0.7763289483949541
1783696064923739400,4.974739501953125,-0.3262368642032146,-0.6134674136638641,0.6728986037325113
1783696064933703400,4.984703369140625,-0.15722235980033875,-0.7158411619454622,0.4708705221958458
1783696064943667500,4.99466748046875,-0.06962357132434845,-0.7534434551090001,0.2456992462851107
1783696064953630500,5.00463037109375,-0.20290157643556594,-0.7064876426666975,0.06731668262146413
1783696064963594500,5.014594482421875,-0.3918728271961212,-0.5942986028134822,-0.07658420411720872
1783696064973558500,5.02455859375,-0.5076753813713789,-0.45800621831715105,-0.18189700152538715
1783696064983521500,5.034521484375,-0.5349070871680974,-0.3730325176477432,-0.2224039300892502
1783696064993485600,5.044485595703125,-0.4782417816162109,-0.30815877119898794,-0.2090143602274358
1783696065003449300,5.054449462890625,-0.3754840024530887,-0.3039075434952974,-0.12706694857664405
1783696065013412400,5.064412353515625,-0.1589542981594801,-0.3416214803397655,-0.10408303641751408
1783696065023376400,5.07437646484375,0.0369651643037796,-0.39982933915853497,-0.11242482137046754
1783696065033340400,5.08434033203125,0.10275602559745312,-0.3782131351560354,-0.1678540823213756
1783696065043303400,5.094303466796875,0.08655892403423786,-0.35730946333706376,-0.2173684932053089
1783696065053267500,5.104267333984375,0.051957566252350804,-0.30185002644360065,-0.2849610701587051
1783696065063231500,5.1142314453125,-0.03751110774874687,-0.15039689769446848,-0.39132644535973665
1783696065073194500,5.124194580078125,-0.17241875988841054,-0.000037409400939941404,-0.4944537884876132
1783696065083158500,5.134158447265625,-0.2930442041754722,0.2232382620215416,-0.5554415603484958
1783696065093122600,5.14412255859375,-0.4895084410399198,0.4019371250927448,-0.6812200765497982
1783696065103085600,5.15408544921875,-0.7178864040374755,0.47110944551825523,-0.8742780851673334
1783696065113049600,5.164049560546875,-0.8131921136289835,0.6940215443253517,-0.9463535796884447
1783696065123013400,5.174013427734375,-0.7959089703947305,0.9014590106248855,-0.943452524484694
1783696065132976600,5.1839765625,-0.7024035882234573,0.9285194515079259,-0.9604025633070618
1783696065142940400,5.1939404296875,-0.5501408966571092,0.9612596915930509,-0.9567007861796766
1783696065152903700,5.203903564453125,-0.3824830675601959,1.0184791238963604,-0.8774188674110919
1783696065162867500,5.213867431640625,-0.3638128538817167,0.9275485606491565,-0.7806245997622608
1783696065172831500,5.22383154296875,-0.3945277256190777,0.8185048330843449,-0.773074257447943
1783696065182794500,5.23379443359375,-0.44225919860899443,0.6729162124544382,-0.7961828919652849
1783696065192758500,5.243758544921875,-0.44185763207077977,0.5208142644077539,-0.85414941630885
1783696065202722600,5.25372265625,-0.39343291611969466,0.3174883250802755,-0.9036950260486454
1783696065212685600,5.263685546875,-0.31490415380597114,0.15150164406597613,-0.8701403277754783
1783696065222649600,5.273649658203125,-0.2092377937197685,0.05934533841609955,-0.7895804249603301
1783696065232613600,5.283613525390625,-0.0407207174450159,0.0013332944303750991,-0.71382404996939
1783696065242576600,5.29357666015625,0.18047171796262262,-0.0020487492233514783,-0.6451385632127523
1783696065252540700,5.303540771484375,0.4490881678462028,0.020098785176873205,-0.5363077477462589
1783696065262504700,5.313504638671875,0.6980915702432393,0.012045242580771446,-0.4210455109927803
1783696065272467700,5.3234677734375,0.8939157556384801,0.005835866546630859,-0.345738560269773
1783696065282431500,5.333431396484375,1.042318264645338,-0.00822831464111805,-0.35717210069298744
1783696065292395500,5.3433955078125,1.1378741496056317,-0.03472352285683155,-0.4449339707762003
1783696065302358300,5.353358154296875,1.116737838074565,-0.014422493106126784,-0.47174394402951
1783696065312322600,5.363322509765625,0.9928227045923471,0.015635960549116135,-0.40070071516558525
1783696065322286600,5.37328662109375,0.8244348076552153,0.031238018828630445,-0.3828839034460485
1783696065332249300,5.383249267578125,0.6346762059092521,0.0393178649097681,-0.36749987183138727
1783696065342213400,5.39321337890625,0.4543576326817274,0.04782090483903884,-0.2986281417876482
1783696065352177700,5.403177734375,0.2748211497426033,0.12431728454232215,-0.23234102140963075
1783696065362140400,5.413140380859375,0.13077391333580016,0.11802607544362545,-0.21180092220604418
1783696065372104400,5.4231044921875,0.08183774073123931,0.0653951399743557,-0.20183423946499823
1783696065382067500,5.4330673828125,0.15454817215502262,0.10297580582797526,-0.10284838005602359
1783696065392031500,5.443031494140625,0.2478770287156105,0.044052492216229436,-0.04946969495937228
1783696065401995500,5.45299560546875,0.30301614761352536,-0.05788111108243465,0.012039178166165947
1783696065411958500,5.46295849609375,0.41678690370023247,-0.04093640602231025,0.09237265181429684
1783696065421922600,5.472922607421875,0.4498737652659416,-0.13856149847209454,0.13466865575201808
1783696065431886300,5.48288623046875,0.4628039739876985,-0.24439853895008562,0.037672654986009
1783696065441849300,5.492849365234375,0.44720600736141203,-0.37856852446496486,-0.10211239393167197
1783696065451813400,5.5028134765625,0.41499768219590183,-0.5215180287629365,-0.22658793777562677
1783696065461777400,5.51277734375,0.31053777529001236,-0.6196914027452468,-0.3648750032205134
1783696065471740400,5.522740478515625,0.20691198112070558,-0.6613917788773774,-0.4534579804282635
1783696065481704400,5.532704345703125,0.03957739262878895,-0.6662216832518577,-0.4797028671447187
1783696065491668500,5.54266845703125,-0.12556056260168552,-0.599013940897584,-0.46400699310190974
1783696065501631500,5.552631591796875,-0.24547347470521924,-0.5115957696855068,-0.43152540395297107
1783696065511595500,5.562595458984375,-0.29140111314356326,-0.4355915574133396,-0.3843655203059315
1783696065521559600,5.5725595703125,-0.3001519903540611,-0.35674247710406776,-0.3528777644999325
1783696065531522600,5.5825224609375,-0.25544717170894143,-0.2840530884683132,-0.31396526552066206
1783696065541486600,5.592486572265625,-0.14935761777460574,-0.28401275645792484,-0.2631226747728884
1783696065551450400,5.602450439453125,-0.13484277020990848,-0.28697511339485643,-0.23243827123902736
1783696065561413600,5.61241357421875,-0.23476503368616103,-0.3264607360869646,-0.25549217989444734
1783696065571377400,5.62237744140625,-0.31276655725538727,-0.4055307656705379,-0.3053839727234095
1783696065581340700,5.632340576171875,-0.35594226663708683,-0.49414311510324477,-0.35861850010901686
1783696065591304400,5.642304443359375,-0.3834147954523563,-0.5717354733496904,-0.39995552282147107
1783696065601268500,5.6522685546875,-0.4142939178407192,-0.6921458135813474,-0.3657609922748059
1783696065611231500,5.6622314453125,-0.44173312890827654,-0.9069272129029035,-0.1507886004257947
1783696065621195500,5.672195556640625,-0.32118250342309473,-1.0934563312083483,0.010906009417772292
1783696065631159600,5.68215966796875,-0.15736498314142225,-1.1033885271579027,-0.11220087642148137
1783696065641122600,5.69212255859375,-0.1748170532017946,-1.0144044218033552,-0.38528424258604643
1783696065651086600,5.702086669921875,-0.3809942903071642,-0.9977332729876041,-0.4830848377332091
1783696065661050600,5.712050537109375,-0.5912076510608196,-0.9604384383380412,-0.4891497637953609
1783696065671013600,5.722013671875,-0.7201023265212774,-0.8719172743201256,-0.5344024986468255
1783696065680977700,5.731977783203125,-0.7432113994300364,-0.704164752677083,-0.5159267846271396
1783696065690941700,5.741941650390625,-0.7103799739301204,-0.4755091417819261,-0.38677009722962974
1783696065700904700,5.75190478515625,-0.5980144084662199,-0.2988701338499784,-0.15048698713071643
1783696065710868500,5.761868408203125,-0.4245581222236156,-0.186107093501091,0.14368344459570945
1783696065720832500,5.77183251953125,-0.22981997849941252,-0.11427753656506538,0.40224173406250774
1783696065730795500,5.78179541015625,-0.08831891944408417,-0.04385141668617725,0.562355358324945
1783696065740759600,5.791759521484375,-0.048365094718337054,0.0024590835899114608,0.6481872101936489
1783696065750723600,5.8017236328125,-0.09600012159645557,0.010818915656208992,0.6748018070053309
1783696065760686300,5.811686279296875,-0.15431553244292734,-0.005212181690335273,0.6703758803218602
1783696065770650600,5.821650634765625,-0.23549977770149708,-0.029347090515494344,0.6320495106674731
1783696065780613400,5.83161328125,-0.3010930705964565,0.06052957976460457,0.5537977386642247
1783696065790577400,5.841577392578125,-0.326228680896759,0.15140870508551596,0.40634405481480057
1783696065800541400,5.85154150390625,-0.2884440169036388,0.2354208672463894,0.17535305977463722
1783696065810504400,5.86150439453125,-0.30088088915050026,0.35885727730095385,-0.11333682164885103
1783696065820468500,5.871468505859375,-0.3749117555230856,0.4560445628553629,-0.2830628353219479
1783696065830432500,5.8814326171875,-0.5066857858121395,0.654510787191987,-0.3017915011893958
1783696065840395500,5.8913955078125,-0.604758037507534,0.8328320491224527,-0.23649478008821606
1783696065850359600,5.901359619140625,-0.5580190826863051,0.9534598314970731,-0.12870171017162502
1783696065860323300,5.9113232421875,-0.3013987755447626,1.033838021069765,0.021485417229682207
1783696065870286600,5.92128662109375,-0.029635844328999517,1.028190955093503,0.22700682077482343
1783696065880250400,5.93125048828125,0.15657295598089693,0.9310065921485423,0.36827962403222914
1783696065890214400,5.94121435546875,0.3768675657659769,0.7838350862413644,0.47253158727586264
1783696065900177400,5.951177490234375,0.6172141989767551,0.5338596239417791,0.5410746698871255
1783696065910141400,5.961141357421875,0.717322340413928,0.32293665361404417,0.607617226330936
1783696065920105500,5.97110546875,0.6272802504390478,0.16859832481741904,0.7031437390662729
1783696065930068500,5.981068359375,0.3990566012203693,-0.0025777415335178373,0.7652887912034988
1783696065940032500,5.991032470703125,0.2972626986533403,-0.12291910818219184,0.8412324323948472
1783696065949996500,6.00099658203125,0.24600655866861343,-0.15714344934523106,0.9238444454342126
1783696065959959600,6.01095947265625,0.17742518987357617,-0.14349720130860805,0.9127520465988666
1783696065969923600,6.020923583984375,0.11869769109487532,-0.01579553502500057,0.7531268634404986
1783696065979886600,6.030886474609375,0.1230079555094242,0.14938684386909007,0.5095805574055761
1783696065989850600,6.0408505859375,0.09388064522445201,0.2927355766177177,0.2852640716932714
1783696065999814400,6.050814453125,-0.07754033579826354,0.46254619983434675,0.027230829013884066
1783696066009777700,6.060777587890625,-0.4768693242192268,0.6789186677396297,-0.1675226584099233
1783696066019741400,6.070741455078125,-0.902744958782196,0.9115051883429288,-0.2680206028822809
1783696066029705500,6.08070556640625,-1.0392232212394474,1.028064113843441,-0.3005691197875887
1783696066039668500,6.09066845703125,-0.8454793492496013,1.0053455015569925,-0.18966208256892858
1783696066049632500,6.100632568359375,-0.4692489123433828,0.9681810152888297,-0.0109546708650887
1783696066059596500,6.110596435546875,-0.01862462097108364,0.9404413599699735,0.06084083767086267
1783696066069559600,6.1205595703125,0.43233810857534405,0.8446785542607307,0.11836268698684871
1783696066079523600,6.130523681640625,0.8521563427954911,0.6575456248432398,0.18247692030519247
1783696066089487600,6.140487548828125,1.0491565862327814,0.42072073601782317,0.23526260794475673
1783696066099450600,6.15045068359375,1.0920371120601893,0.2506260351628065,0.2460029054068029
1783696066109414700,6.16041455078125,1.0280588531464339,0.10315057787299156,0.2764605144474655
1783696066119378700,6.170378662109375,0.9357482337176799,0.0008007949888706207,0.3261938287790864
1783696066129341700,6.180341796875,0.83832012514472,-0.06956395009160041,0.3693593820929527
1783696066139305500,6.190305419921875,0.6791320182293653,-0.10117840101718902,0.3858738059770316
1783696066149268500,6.2002685546875,0.5240957702964544,-0.08410276305377483,0.3903532894786447
1783696066159232500,6.210232421875,0.35350539487898347,-0.05131108504235744,0.3442651267163455
1783696066169196500,6.220196533203125,0.1417307761579752,-0.028802900636196133,0.31683015343248844
1783696066179159300,6.2301591796875,-0.06621230157613754,-0.003994622594118118,0.22570815926641224
1783696066189123300,6.240123291015625,-0.2610638425469398,-0.04293254827558994,0.18161540810503066
1783696066199087600,6.250087646484375,-0.40516602401137347,-0.05188625458180904,0.062156815640255804
1783696066209050400,6.26005029296875,-0.45178339827954767,-0.036268998733162874,-0.09467223399356008
1783696066219014400,6.270014404296875,-0.4258931702196598,-0.07000175698697567,-0.2033630564674735
1783696066228978400,6.279978515625,-0.37777883539199825,-0.11720716027617453,-0.2441899377007037
1783696066238941400,6.28994140625,-0.31448037543594837,-0.16086042404174802,-0.2843067709684372
1783696066248905500,6.299905517578125,-0.19833938308656215,-0.23014088101685046,-0.29915296937935054
1783696066258869500,6.309869384765625,-0.078248191806674,-0.29456863726377486,-0.2650600725762546
1783696066268832800,6.319832763671875,0.04060615115463734,-0.34745325523316856,-0.1995637372497469
1783696066278796800,6.329796875,0.18814824393987656,-0.3097071696847677,-0.11901873974278568
1783696066288760800,6.3397607421875,0.4048679178476333,-0.318011472171545,-0.06758095958083868
1783696066298723600,6.3497236328125,0.5808978539705276,-0.33436873273253437,-0.009458367892727255
1783696066308687600,6.3596875,0.5342407322138547,-0.3441144661992788,0.039973990730941295
1783696066318650600,6.369650634765625,0.20257307513356207,-0.2930909659266472,-0.005647358237206935
1783696066328614700,6.37961474609375,-0.21534487842321395,-0.23330489800572393,-0.06408303446248173
1783696066338578700,6.38957861328125,-0.5024164379298687,-0.14506488901674747,-0.06615889088846742
1783696066348541700,6.399541748046875,-0.6224503460645675,-0.032602292919158934,-0.037650735415145756
1783696066358505700,6.409505615234375,-0.5611953746348619,0.07024784070253372,0.07729125640802086
1783696066368469800,6.4194697265625,-0.4226210166811943,0.08715162923038006,0.2890793191324919
1783696066378432800,6.429432861328125,-0.2831593544989824,-0.1078501338660717,0.583296293414384
1783696066388396800,6.439396728515625,-0.15012392597198485,-0.4191267448246479,0.8863667284984141
1783696066398360800,6.44936083984375,-0.0518967759758234,-0.6020429333299399,0.8598641406938433
1783696066408323800,6.45932373046875,-0.08312544245421886,-0.7111912903130054,0.5902833758227527
1783696066418287900,6.469287841796875,-0.3148784348428249,-0.8463076167672872,0.37770569709055124
1783696066428251600,6.479251708984375,-0.6828320417910814,-0.8910609507292508,0.2713107304688543
1783696066438214700,6.489214599609375,-1.0820271746993064,-0.7767197012782097,0.12253814604058862
1783696066448178700,6.4991787109375,-1.4619547125577925,-0.49539633003473277,-0.06865056157372891
1783696066458142700,6.509142822265625,-1.6744138064116239,-0.17135902170240877,-0.14942593377046287
1783696066468105700,6.519105712890625,-1.6635305933475493,0.08543839557170868,-0.10182999679371714
1783696066478069800,6.52906982421875,-1.468930981311202,0.23623919789195058,-0.02473674717582762
1783696066488033800,6.53903369140625,-1.2328414210230112,0.30676468649208544,-0.03197605077959597
1783696066497996800,6.548996826171875,-1.1014198574334382,0.39429274781942364,-0.15154723677337167
1783696066507960800,6.5589609375,-0.9385095151245594,0.4196446312189102,-0.3084392686408013
1783696066517923800,6.568923828125,-0.8098954101711511,0.38643618910014627,-0.45465668869353826
1783696066527888000,6.578887939453125,-0.7496236045598983,0.34334289730489254,-0.5879821131430566
1783696066537852000,6.588851806640625,-0.6867150207042694,0.375061977648735,-0.6687343967251479
1783696066547815000,6.59881494140625,-0.5733931774288415,0.4710205981910228,-0.6873311798412353
1783696066557779000,6.608779052734375,-0.42088323310315606,0.5752542951256037,-0.6272293239694088
1783696066567742700,6.61874267578125,-0.2002022543489933,0.6920879459142685,-0.5807753235694021
1783696066577706000,6.6287060546875,0.05182487978339195,0.7876046679079532,-0.6097110568050295
1783696066587669800,6.638669677734375,0.2310498125553131,0.8257476438194513,-0.6445809293299913
1783696066597633800,6.6486337890625,0.193296712744236,0.8966776215672493,-0.6154116795994341
1783696066607596800,6.6585966796875,-0.03142214322388172,0.916549612250924,-0.6023190468575805
1783696066617560800,6.668560791015625,-0.3387456326425075,0.8917997863978147,-0.6271742327813059
1783696066627524900,6.67852490234375,-0.5009662391215562,0.8689502412080764,-0.6724770173195749
1783696066637487900,6.68848779296875,-0.4143383415043354,0.7680985879272222,-0.7148322040986269
1783696066647452000,6.698451904296875,-0.16525661317408083,0.633997575995326,-0.7358214353092014
1783696066657415000,6.708414794921875,0.14448153617084025,0.5094868147075176,-0.6931612011689693
1783696066667379000,6.71837890625,0.43634208351969717,0.3595990355789661,-0.6557405481826514
1783696066677343000,6.728343017578125,0.6614134061872958,0.22766659985780716,-0.5700538038730621
1783696066687305700,6.7383056640625,0.7901198655992746,0.11330255405306816,-0.46323958892598743
1783696066697270000,6.74827001953125,0.7853466598480939,0.04138531883358955,-0.3893974500585347
1783696066707233800,6.75823388671875,0.7221709494888782,0.04448796102404594,-0.3951854588754475
1783696066717196800,6.76819677734375,0.7239771221280098,0.01512158128619194,-0.41587614553086455
1783696066727160600,6.77816064453125,0.8040443460553884,0.0013905775755643844,-0.4235769291665405
1783696066737124600,6.78812451171875,0.9011106355786322,0.025831775870919227,-0.44220980650931596
1783696066747087600,6.798087646484375,0.919121508565545,0.07496668591797351,-0.41909832244776185
1783696066757051600,6.8080517578125,0.9060562752872705,0.16974281867742538,-0.3508029309872538
1783696066767015700,6.818015625,0.8850976584106683,0.24964286934435367,-0.23600129748284815
1783696066776978700,6.827978759765625,0.8476976098209619,0.30691666218340397,-0.09409180375710129
1783696066786942700,6.837942626953125,0.7618003645658492,0.36061318105757234,0.022155571576207875
1783696066796905700,6.84790576171875,0.6185200208783149,0.3232236538618803,0.07569412340968847
1783696066806869800,6.857869873046875,0.5060813901782035,0.21884908715188503,0.10066161060146987
1783696066816833800,6.867833740234375,0.45110769097507,0.08990238924324512,0.06321691915243864
1783696066826796800,6.877796875,0.4062544037699699,-0.02453355275392532,0.00022964403741061685
1783696066836760800,6.8877607421875,0.39575346802175043,-0.09849661458730698,-0.02308284248895943
1783696066846724900,6.897724853515625,0.4090121780455112,-0.17472236065566538,-0.05095065423212945
1783696066856687900,6.90768798828125,0.4233142596423626,-0.24037527478337287,-0.04755041733458638
1783696066866651600,6.917651611328125,0.381958751425147,-0.3463414945989847,-0.0659993894778192
1783696066876615700,6.92761572265625,0.37079555237591266,-0.4682411966055631,-0.1439134539593011
1783696066886578700,6.93757861328125,0.3788794901102781,-0.5760942530810833,-0.22470168563760815
1783696066896542700,6.947542724609375,0.41837388063073155,-0.6958177800923585,-0.31956703105047346
1783696066906506800,6.9575068359375,0.4633487483888864,-0.788448132994771,-0.3699669925972819
1783696066916469800,6.9674697265625,0.4566624024927616,-0.8235469189047813,-0.3960105115227401
1783696066926433800,6.977433837890625,0.3477969541043043,-0.8327654136270284,-0.43751390377804633
1783696066936397800,6.987397705078125,0.22337737823128698,-0.7880535807192325,-0.4567118676576763
1783696066946360800,6.99736083984375,0.13326339206397533,-0.7327817753523588,-0.42557891663871705
1783696066956324900,7.007324951171875,0.05613689776360988,-0.674468118071556,-0.3243680015914142
1783696066966288000,7.017287841796875,0.020412088909745215,-0.5564981567293406,-0.2741939577549696
1783696066976252000,7.027251953125,-0.003361585387587547,-0.47019174615144727,-0.18783318664133547
1783696066986216000,7.0372158203125,0.03058160074651241,-0.391906729465723,-0.08039061066284775
1783696066996179000,7.047178955078125,0.057902738392353055,-0.3587456336200237,0.01910670539960265
1783696067006143000,7.05714306640625,0.062111295998096464,-0.33187048617601395,0.08993066548965871
1783696067016106800,7.067106689453125,0.027363807743787764,-0.3263683816283941,0.07897292588464916
1783696067026069800,7.07706982421875,-0.014321955341100692,-0.3192939131975174,0.08230630809105932
1783696067036033800,7.08703369140625,-0.06129530344009399,-0.3168266463011503,0.10314217537082732
1783696067045997800,7.096997802734375,-0.12498130140900611,-0.28386370337605477,0.12074388303495943
1783696067055960800,7.1069609375,-0.08727087169587612,-0.22562837202847003,0.08985796557962894
1783696067065924900,7.1169248046875,-0.04714052135944366,-0.19676117398440837,0.05989610416665673
1783696067075889000,7.126888916015625,-0.1355073715984821,-0.1592857220709324,-0.0101290336959064
1783696067085852000,7.136851806640625,-0.33150866712629795,-0.09011398616731166,-0.08833221731707454
1783696067095816000,7.14681591796875,-0.6526876634180545,-0.1499877323716879,-0.019189122986048458
1783696067105778700,7.15677880859375,-0.8939245234668254,-0.39010055682659145,0.3052946139395237
1783696067115742700,7.16674267578125,-0.8504559686183929,-0.5446785395979881,0.39241950129345055
1783696067125707000,7.17670703125,-0.7699334021389483,-0.5442372255712747,0.18571970161870122
1783696067135669800,7.186669677734375,-0.8175158220469951,-0.5796235962510109,-0.02591930802389979
1783696067145633800,7.1966337890625,-0.8266074755191802,-0.6277361775130033,-0.17115560808479785
1783696067155597600,7.20659765625,-0.8355331247746944,-0.6656248864024877,-0.399196155821532
1783696067165560800,7.216560791015625,-0.9224339941143989,-0.5925339312285185,-0.7233757952339946
1783696067175524600,7.226524658203125,-1.0502432124257086,-0.41652211528420446,-0.8181183179847895
1783696067185488600,7.236488525390625,-1.1153069284886121,-0.32339199616611003,-0.7212076574146747
1783696067195451600,7.24645166015625,-0.9549234743088483,-0.13785071985423564,-0.4677648112654686
1783696067205415700,7.256415771484375,-0.5871551607996225,0.10087094250321388,-0.12925401029214262
1783696067215379700,7.266379638671875,-0.17697978419363497,0.25511633231937886,0.1732575488001108
1783696067225342700,7.2763427734375,0.1910790366947651,0.3916887028008699,0.2881979331880808
1783696067235306800,7.286306640625,0.39768180573582645,0.4319289432525634,0.23250980210527777
1783696067245269800,7.296269775390625,0.23025778539478778,0.3879425020098686,0.13205591597035526
1783696067255233800,7.30623388671875,-0.18718027569055556,0.39507308454215523,-0.10255378102362156
1783696067265197800,7.31619775390625,-0.6238064368486405,0.44981472855508325,-0.38153614209890363
1783696067275161300,7.326161376953125,-0.9323083223968743,0.517951276192069,-0.55731034989506
1783696067285125400,7.33612548828125,-1.0005202733576297,0.6822504425108432,-0.650602819968015
1783696067295089400,7.34608935546875,-0.8943255054831505,0.8764256916552782,-0.6190880300246179
1783696067305052200,7.35605224609375,-0.6771259391039609,1.0909469787359236,-0.4863628364905715
1783696067315016200,7.36601611328125,-0.43444414094388484,1.2380465884506702,-0.3600733750924468
1783696067324980500,7.37598046875,-0.3576490705549717,1.2268816358357668,-0.22747896833121775
1783696067334943200,7.385943115234375,-0.291375394180417,1.1814940956234932,-0.13378463945910335
1783696067344907300,7.3959072265625,-0.14172025476396083,1.061130517143011,-0.15759981481060384
1783696067354871300,7.405871337890625,0.05890460891127586,0.7934697605490684,-0.17097104529812931
1783696067364834300,7.415834228515625,0.32480712366104125,0.5098065481811761,-0.15868687939494847
1783696067374798300,7.42579833984375,0.42646600167155263,0.24592706369161604,-0.11381021131426096
1783696067384761300,7.43576123046875,0.28666005609631534,0.05719312881827354,-0.05620733265131712
1783696067394725400,7.445725341796875,0.008489595925807952,-0.07279694066345692,0.07425415373444556
1783696067404689400,7.455689453125,-0.2503343587398529,-0.14788520713448525,0.1995927441485226
1783696067414652400,7.46565234375,-0.40706396658718585,-0.11551146227419376,0.1888070001095533
1783696067424616400,7.475616455078125,-0.4737012155771255,-0.00312660758793354,0.004707812364771962
1783696067434580200,7.485580322265625,-0.48075288765430446,0.16736790623962877,-0.32237003270722925
1783696067444543500,7.49554345703125,-0.4118319116413593,0.37500820163488385,-0.7310917033735662
1783696067454507300,7.50550732421875,-0.31977906636595727,0.586279547008872,-1.1002949450567363
1783696067464471300,7.51547119140625,-0.33854923328757286,0.8141326093494892,-1.2933056804664431
1783696067474434300,7.525434326171875,-0.5065700504779815,1.0127589926838874,-1.2912852805547415
1783696067484398300,7.5353984375,-0.7052455336511134,1.2212316472500562,-1.1977646277491003
1783696067494362400,7.5453623046875,-0.7562620196610689,1.3258704178541898,-1.0486079393740744
1783696067504325400,7.555325439453125,-0.6738736593097447,1.3548796547174453,-0.9402095239754765
1783696067514289400,7.565289306640625,-0.5556722272992134,1.3203034313768147,-0.8893770892955363
1783696067524252400,7.57525244140625,-0.39418870292305946,1.1899649868488311,-0.8351473403275013
1783696067534216400,7.585216552734375,-0.18295652051568032,0.9874036021530628,-0.8114148748233914
1783696067544180500,7.595180419921875,0.04859539634287357,0.6962900737792254,-0.814148464505747
1783696067554143500,7.6051435546875,0.2877653869897127,0.41000352717041966,-0.7964306561812758
1783696067564107500,7.615107421875,0.5568798495233058,0.18451485587358474,-0.7821531245037913
1783696067574071300,7.6250712890625,0.7298258481562138,-0.00037818566262722014,-0.7126846706759185
1783696067584034600,7.63503466796875,0.7253747139662504,-0.08397124562859534,-0.5731720089588314
1783696067593998300,7.644998291015625,0.6475023697346448,-0.07125614096224307,-0.496969132309407
1783696067603962400,7.65496240234375,0.515280595678091,-0.037115386429429055,-0.4095332062449306
1783696067613925400,7.66492529296875,0.3984375925391912,0.03431435753405094,-0.3521971618246287
1783696067623889400,7.674889404296875,0.25484686772823334,0.07390636321008205,-0.37121743104979393
1783696067633853400,7.684853515625,0.05869710364043712,0.09004442806243897,-0.4347781952038407
1783696067643816400,7.69481640625,-0.1308855570167303,0.1455728385388851,-0.4984102710284292
1783696067653780500,7.704780517578125,-0.3264829479187727,0.18682430185973642,-0.5920965627245605
1783696067663744500,7.71474462890625,-0.5149509253323078,0.2715051570624113,-0.664868076685816
1783696067673707500,7.72470751953125,-0.6592354776263236,0.3742921623200178,-0.7598267994705588
1783696067683671600,7.734671630859375,-0.7311012749195098,0.46172728466689583,-0.8248310404311865
1783696067693634300,7.74463427734375,-0.7303209381967782,0.4613713108360767,-0.8449736647497862
1783696067703598600,7.7545986328125,-0.619981910124421,0.49130643037259575,-0.8583894650314002
1783696067713562400,7.764562255859375,-0.46672553134560585,0.5101642755776643,-0.7834940907839685
1783696067723525400,7.774525390625,-0.3617974224060774,0.5133265390008688,-0.6493954900048673
1783696067733489200,7.7844892578125,-0.25871640263795853,0.5691688377320766,-0.5521444915644824
1783696067743453200,7.794453125,-0.12278349910378455,0.5373784457176923,-0.4944290924377739
1783696067753416200,7.804416259765625,-0.10426175398528575,0.4850473699778318,-0.4874166563924402
1783696067763380200,7.814380126953125,-0.22192834846675394,0.4410509918630123,-0.5844429792314767
1783696067773344300,7.82434423828125,-0.4263718936473131,0.43134968205988405,-0.677958079079166
1783696067783307300,7.834307373046875,-0.6234960557252168,0.453692446771264,-0.7370440359067172
1783696067793271300,7.844271240234375,-0.7194359715670346,0.444749846380949,-0.7655038952589035
1783696067803235300,7.8542353515625,-0.7062789683520794,0.4109446074128151,-0.7443065742556005
1783696067813198300,7.8641982421875,-0.6209516319394112,0.20842472377121446,-0.5695017229482531
1783696067823162400,7.874162353515625,-0.41274376578927036,-0.021280103915929792,-0.42610644764415917
1783696067833125400,7.88412548828125,-0.1728010372042656,-0.0947919148504734,-0.5490281861748546
1783696067843089400,7.89408935546875,-0.11046002410352229,-0.0858247645407915,-0.7628402290076017
1783696067853053400,7.904053466796875,-0.23039222542941568,-0.0656692807406187,-0.9391502972461283
1783696067863016400,7.914016357421875,-0.4160539132505655,-0.09228431594371796,-1.0143551027689128
1783696067872980500,7.92398046875,-0.6205033036500215,-0.05634615660011768,-1.09283038132973
1783696067882944300,7.9339443359375,-0.7101742222249507,0.012791677033901213,-1.1028246827300636
1783696067892907300,7.9439072265625,-0.6567179418474436,0.03866203134953976,-1.0934432525310664
1783696067902871300,7.953871337890625,-0.591102437120676,0.05426233606338501,-1.1025276725448667
1783696067912835300,7.96383544921875,-0.540723079970479,0.09784019650518894,-1.1162047541111706
1783696067922798300,7.97379833984375,-0.4437374544680118,0.12592004356384276,-1.0524768166966736
1783696067932762400,7.983762451171875,-0.41318858694732186,0.0972708721846342,-0.9870623874999582
1783696067942725400,7.993725341796875,-0.45175300314128397,0.11039163504242896,-0.8720229266516863
1783696067952689400,8.003689453125,-0.5025204828262329,0.1103419506818056,-0.7972539552628993
1783696067962653400,8.0136533203125,-0.49931847191452977,0.055826516640186306,-0.7605873355142772
1783696067972616400,8.023616455078125,-0.4992389769375324,-0.060095280000567436,-0.7402148479625582
1783696067982580500,8.03358056640625,-0.4396592452436685,-0.028479660031199453,-0.8046009570248425
1783696067992544500,8.04354443359375,-0.432463196259737,0.04077157084941864,-0.8011733206637203
1783696068002507500,8.053507568359375,-0.3675812665045261,0.23529051886498928,-0.7519048473648726
1783696068012471600,8.063471435546875,-0.4541197322726249,0.3634814299702644,-0.7054359416566789
1783696068022435300,8.073435302734374,-0.59657823818326,0.5524690473437309,-0.7318139532335102
1783696068032398300,8.0833984375,-0.7384750185579061,0.7292594464451074,-0.7813485301226377
1783696068042362400,8.0933623046875,-0.7984124776482582,0.82334408980906,-0.8108664471603929
1783696068052326400,8.103326416015625,-0.7862275343358516,0.9123077368974685,-0.8388809738978743
1783696068062289400,8.113289306640626,-0.8136649918377399,0.8892734827905893,-0.9225042098063975
1783696068072253400,8.12325341796875,-0.7616384520024061,0.9118290134698152,-0.9893797245316207
1783696068082216200,8.13321630859375,-0.7765712327182293,0.8458060969859361,-1.1344564501166343
1783696068092180500,8.143180419921874,-0.7641776150912046,0.7596119146108626,-1.2749135530769824
1783696068102144500,8.15314453125,-0.7349795776575804,0.7250853756308555,-1.5901485462725162
1783696068112107300,8.163107177734375,-0.6897270620018243,0.7126631164312363,-1.657538951717317
1783696068122071300,8.1730712890625,-0.44107145012915133,0.7550280939519405,-1.6735422842741012
1783696068132035600,8.18303564453125,-0.23505671010911464,0.8059434576749801,-1.6696192656114697
1783696068141998300,8.192998291015625,-0.22278116590380667,0.9076695557028055,-1.6381582516819237
1783696068151962400,8.20296240234375,-0.24754268219470976,0.8804273285120725,-1.7104650707408784
1783696068161926100,8.212926025390624,-0.2791781759083271,0.866062118551135,-1.7690065454281865
1783696068171889400,8.222889404296875,-0.3049789721190929,0.8495710024774074,-1.7668043592087923
1783696068181853200,8.232853271484375,-0.3576128301978111,0.8606494458526373,-1.7574553699746727
1783696068191817200,8.242817138671874,-0.3238327256709337,0.8284533956468105,-1.5998109853699802
1783696068201780200,8.2527802734375,-0.20764204896092414,0.9999386740773916,-1.6544235961757598
1783696068211744300,8.262744140625,0.04570610464215279,0.8452987319856882,-1.6415566619485615
1783696068221707300,8.272707275390625,0.19258534960448742,0.6185375565350055,-1.318291653162986
1783696068231671300,8.28267138671875,0.30167466987669467,0.6260510009050368,-1.2635590692393481
1783696068241635300,8.29263525390625,0.2324398056089878,0.6149181969940662,-1.1962590454917401
1783696068251598300,8.302598388671875,0.02474631872177124,0.6850543940156698,-1.19847153390944
1783696068261562400,8.312562255859374,-0.21043021837472914,0.7812661125361919,-1.1898475710142402
1783696068271525600,8.322525634765626,-0.4402326612174511,0.8398603403240442,-1.2102361329179256
1783696068281488400,8.33248828125,-0.5795996308535337,0.8987211100935936,-1.2086235831547527
1783696068291452400,8.342452392578124,-0.6303004750430583,0.9409896415024995,-1.1421317339848727
1783696068301416400,8.35241650390625,-0.5529729052126408,0.9836737679749726,-1.0989714413680136
1783696068311379500,8.36237939453125,-0.46174598936736583,0.9537111759096384,-1.0573080362454057
1783696068321343500,8.372343505859375,-0.3128045511782169,0.9884902283459901,-0.9704765788801014
1783696068331306500,8.382306396484376,-0.2335106497108936,0.9898860666185617,-0.942706382292509
1783696068341270500,8.3922705078125,-0.27394319786429405,0.9207081932350992,-0.9253098418116569
1783696068351234600,8.402234619140625,-0.28697745148241516,0.9682321609541773,-0.8393322247967123
1783696068361197600,8.412197509765624,-0.41185587703883647,0.8430509530588984,-0.7906411129944027
1783696068371161300,8.422161376953126,-0.5237988331764936,0.7444085002601146,-0.7725629469249397
1783696068381125400,8.43212548828125,-0.5283183564275503,0.6338143283829093,-0.8271981348887085
1783696068391088400,8.44208837890625,-0.4452992969572544,0.47769671495407817,-0.8000074186895042
1783696068401052400,8.452052490234376,-0.3276613440483808,0.2726642639696598,-0.8299269022654742
1783696068411016400,8.462016357421875,-0.28372049551308154,0.14273936867862938,-0.8929231644045561
1783696068420979500,8.4719794921875,-0.3142559190303087,0.07952361856997013,-0.9149513102088123
1783696068430943500,8.481943603515624,-0.28412147752940653,0.029490590639412402,-0.9213036749102175
1783696068440907500,8.491907470703126,-0.23524784876704213,-0.013935001850128173,-0.8709462373308837
1783696068450870500,8.50187060546875,-0.24682956548929214,-0.055310968333482737,-0.7985840348228812
1783696068460834600,8.51183447265625,-0.21953940750360487,-0.11050269420146941,-0.7594512441564351
1783696068470797600,8.521797607421876,-0.18972996017336843,-0.18480945490598677,-0.7325329882230609
1783696068480761600,8.53176171875,-0.180726569506526,-0.23992080901414153,-0.7437672066818922
1783696068490725600,8.5417255859375,-0.19580431165099144,-0.30548341450989247,-0.7485736571155488
1783696068500688600,8.551688720703124,-0.24649814157783984,-0.35345746408402917,-0.7363627025790512
1783696068510652400,8.56165234375,-0.2732709976911545,-0.34462358476519583,-0.7151528874203562
1783696068520616400,8.571616455078125,-0.24122575413286684,-0.2823027376696467,-0.6670624449249356
1783696068530579500,8.581579345703124,-0.29836276884973045,-0.18033406305760144,-0.6267816532671451
1783696068540543500,8.59154345703125,-0.44035015011727807,-0.03712181617021561,-0.5782964393004775
1783696068550507500,8.601507568359375,-0.5455787033081054,0.10379676682204007,-0.482095680565387
1783696068560470500,8.611470458984375,-0.5715788214832545,0.17901771976202727,-0.398456224174425
1783696068570434600,8.6214345703125,-0.5439262599259614,0.29405191991329194,-0.3729283266209066
1783696068580397600,8.6313974609375,-0.5245177951008081,0.39247371569871903,-0.4145416089914739
1783696068590361600,8.641361572265625,-0.5531131904661655,0.3896533975809812,-0.4223837738592177
1783696068600325600,8.65132568359375,-0.713370387917757,0.39135406401902434,-0.4133695695374161
1783696068610288600,8.66128857421875,-0.9312456616014242,0.3369111106917262,-0.29769546404741704
1783696068620252700,8.671252685546875,-1.0332388861328363,0.13311609254777432,-0.017042466346174477
1783696068630216700,8.681216796875,-0.8687462430685758,-0.07515665553212166,0.20243366666287183
1783696068640179500,8.691179443359376,-0.46568449786007404,-0.1531336291819811,0.1567279273469001
1783696068650143700,8.701143798828125,-0.1573725819259882,-0.1541740781456232,-0.08576631235182285
1783696068660107500,8.711107421875,-0.16039806722700595,-0.1676353250041604,-0.28266258395798505
1783696068670070500,8.721070556640624,-0.3451747889071703,-0.12349778485298156,-0.4508280703160912
1783696068680034300,8.731034423828126,-0.6452841091632843,0.02292290268689394,-0.6027381490524858
1783696068689997300,8.740997314453125,-0.9076081809043883,0.2813479211628437,-0.6621447892017662
1783696068699961300,8.75096142578125,-0.9608487727046012,0.5362772064775229,-0.5407127777721733
1783696068709925400,8.76092529296875,-0.6713397569179534,0.7307160749942064,-0.3104107879094779
1783696068719888400,8.770888427734375,-0.1682598866432905,0.7877893768250942,-0.07812821868881582
1783696068729852400,8.780852294921875,0.39126609347462654,0.7327794372648,0.06618906683102249
1783696068739816400,8.79081640625,0.7271446462482214,0.6142991883128881,0.09723090550042689
1783696068749779500,8.800779541015626,0.7534709276378154,0.4215484190136194,0.07965360162518918
1783696068759743500,8.810743408203125,0.5604997935861349,0.24588205550611017,0.08739413274936378
1783696068769707500,8.82070751953125,0.27748130886256694,0.12461480618417262,0.12224288942106068
1783696068779670500,8.83067041015625,0.0596697480648756,0.16203355947434903,0.12241006268151104
1783696068789634600,8.840634521484375,-0.3414554761230945,0.17397300359308718,0.2925618274860084
1783696068799597600,8.85059765625,-0.66632923527956,0.34132863487303255,0.27604893797188995
1783696068809561600,8.8605615234375,-0.8571621882587671,0.5589420427501202,0.2079394975375384
1783696068819525400,8.870525390625,-0.8509037123858928,0.6823913122862577,0.33305735787302254
1783696068829488600,8.880488525390625,-0.6808154412716627,0.8116302711397408,0.4011607338927686
1783696068839452400,8.890452392578124,-0.44723523345589633,0.8825684321939945,0.46180860627479847
1783696068849416400,8.90041650390625,-0.3031500031262636,0.8557078977972269,0.5052197318475693
1783696068859379500,8.91037939453125,-0.2535439684361219,0.7925918086707592,0.5828587057147174
1783696068869343500,8.920343505859375,-0.1694195780724287,0.755437259274721,0.6011378742489963
1783696068879307500,8.9303076171875,-0.07475567351579665,0.6340817471474409,0.5917132624953985
1783696068889270500,8.9402705078125,0.02220481754541397,0.5059101252645254,0.6240086083572357
1783696068899234600,8.950234619140625,0.08592705587148666,0.4079647148191929,0.6993943964701146
1783696068909198600,8.960198486328125,0.14510522102713583,0.33454116668999195,0.788635983717069
1783696068919161600,8.97016162109375,0.20663024156987667,0.2778442969560623,0.8513060095764696
1783696068929125600,8.980125732421875,0.26736674208343025,0.19141455225944518,0.9265563347414135
1783696068939088600,8.990088623046875,0.3139952222675085,0.20511048465669154,0.9362626860458403
1783696068949052700,9.000052734375,0.2741407662630081,0.25782149962484835,0.9009980420496314
1783696068959016400,9.010016357421875,0.16905132928192615,0.35215573383569715,0.8155281553611159
1783696068968979700,9.019979736328125,0.05972527764439582,0.4621650915622711,0.7297850046891718
1783696068978943500,9.029943603515624,-0.06851648686528206,0.5287585014104843,0.6465703495815396
1783696068988907500,9.039907470703126,-0.1834445962935686,0.5150187298715114,0.5327320081513375
1783696068998870500,9.04987060546875,-0.3009270663797855,0.49644496230483054,0.43051988017223775
1783696069008834600,9.05983447265625,-0.35996377723813056,0.48859249523878096,0.35991109720282255
1783696069018798600,9.069798583984374,-0.3787228382438421,0.4622989470750093,0.29275376986153423
1783696069028761600,9.07976171875,-0.4171960690230131,0.4277963734924793,0.2690547682356089
1783696069038725600,9.0897255859375,-0.42926001630425453,0.43152854575812816,0.21865970205962657
1783696069048688400,9.0996884765625,-0.4521674291610718,0.44782326247692106,0.2180433967921883
1783696069058652400,9.10965234375,-0.452996865722537,0.42259880484938617,0.23331585779115557
1783696069068616400,9.119616455078125,-0.3835316998302936,0.3898690861582756,0.18965835624188185
1783696069078579500,9.129579345703124,-0.22104455136954784,0.322541516816616,0.16692060086354613
1783696069088543500,9.13954345703125,-0.016584639576077462,0.17276479684710502,0.17398367111757396
1783696069098507500,9.149507568359375,0.1969774470835924,0.08657996682226657,0.12312712490968405
1783696069108470500,9.159470458984375,0.40985739669799803,0.006720248165726661,0.07087656706012785
1783696069118434300,9.169434326171874,0.5444353784918785,-0.09899754984676837,0.06045834115929901
1783696069128398300,9.1793984375,0.5606143598765134,-0.18046704178750514,0.03529591591730714
1783696069138361300,9.189361328125,0.46644086918532845,-0.2143020913720131,-0.01995060887783766
1783696069148325400,9.199325439453125,0.29713527288138863,-0.25217852530181406,-0.04783515256009996
1783696069158288400,9.209288330078126,0.19584990435838698,-0.2734697351336479,-0.03311265359409153
1783696069168252400,9.21925244140625,0.1736883414328098,-0.25736031185388564,-0.04292166155539453
1783696069178216400,9.229216552734375,0.22510347137153147,-0.26392157006561756,-0.06558372134901583
1783696069188179500,9.239179443359374,0.32426760995686055,-0.2851186718732118,-0.07233275721780956
1783696069198143500,9.2491435546875,0.3409890276551246,-0.2894721909075975,-0.10328202223293483
1783696069208107500,9.259107421875,0.33187808496057986,-0.2432534605681896,-0.16387370744831858
1783696069218070500,9.269070556640624,0.27453590306043624,-0.22140578589737414,-0.1436830792695284
1783696069228034600,9.27903466796875,0.21325287458002565,-0.19721184036135672,-0.12038381755091249
1783696069237997600,9.28899755859375,0.16529811422824858,-0.15271101985573768,-0.10724551903642714
1783696069247961600,9.298961669921875,0.15107728117406366,-0.1289911215722561,-0.11249942097663879
1783696069257925600,9.308925537109374,0.16171850217580794,-0.10040507855713367,-0.10107640194743871
1783696069267888600,9.318888671875,0.16104630200266837,-0.1380994339182973,-0.06682955669164657
1783696069277853200,9.328853271484375,0.18149521579146385,-0.16717881340831517,-0.05420110739544034
1783696069287817200,9.338817138671875,0.18472177662253378,-0.17527882549464702,-0.023540596193820238
1783696069297780200,9.3487802734375,0.13805764060318468,-0.2061094325661659,0.04030132298916578
1783696069307744300,9.358744140625,0.07098200019598007,-0.1761550238072872,0.07298501058146357
1783696069317708300,9.368708251953125,0.07613163804411888,-0.1915232733309269,0.1259229661732912
1783696069327671300,9.37867138671875,0.13898469232022762,-0.23050883754640816,0.14403876083940267
1783696069337635300,9.38863525390625,0.12352642642557621,-0.2824076593488455,0.1761542931549251
1783696069347598300,9.398598388671875,0.025709026274085042,-0.2870221674069762,0.15123510208427904
1783696069357562400,9.408562255859374,-0.13676175557374953,-0.2556301270604133,0.13797230040729044
1783696069367526400,9.4185263671875,-0.2747597749441862,-0.20489859547168016,0.14678572145998478
1783696069377489400,9.428489501953125,-0.387113649970293,-0.14744740023911,0.14896525745615363
1783696069387453400,9.438453369140625,-0.43672669892311095,-0.11846212877333163,0.10215236061587929
1783696069397417200,9.448417236328124,-0.42112288707792755,-0.12164952663779258,0.006512889025360346
1783696069407380200,9.458380126953125,-0.37641222321391105,-0.15672668523788452,-0.06486614766418934
1783696069417344300,9.46834423828125,-0.3738081781953573,-0.17236352256983517,-0.10907865274772047
1783696069427308300,9.478308349609375,-0.46906128081679344,-0.18525076893270015,-0.10102043397650122
1783696069437271300,9.488271240234376,-0.6313339097440243,-0.25912439891695976,0.03158478643968701
1783696069447235300,9.4982353515625,-0.6821200941294431,-0.3727504858359694,0.09906491599455475
1783696069457198000,9.508197998046874,-0.5960679505735635,-0.3726040631026029,-0.08318535594791174
1783696069467162400,9.518162353515624,-0.45734220145046706,-0.30074498781114817,-0.3532259934157133
1783696069477126400,9.52812646484375,-0.4192641074687242,-0.2637929752498865,-0.48263694783523675
1783696069487089200,9.538089111328125,-0.36891806806623934,-0.3029299306347966,-0.5199883349776268
1783696069497053200,9.54805322265625,-0.24804420197606086,-0.3535375435829162,-0.5366808188423514
1783696069507017500,9.558017578125,-0.14493454063534736,-0.3107897042244673,-0.534772793263942
1783696069516980200,9.567980224609375,-0.19485797071158883,-0.1954009915471077,-0.5780043244861066
1783696069526944300,9.5779443359375,-0.3241056973934173,-0.047884325464069843,-0.6400828872583806
1783696069536908000,9.587907958984376,-0.34811844114363194,0.054609542065858836,-0.6821330997414886
1783696069546871300,9.597871337890625,-0.22501813117563724,0.10926409231722355,-0.7422901929318905
1783696069556835000,9.6078349609375,-0.10407704506814479,0.1861719754308462,-0.8035834505453705
1783696069566798300,9.61779833984375,-0.060201078462600706,0.3094061409115791,-0.8629385797031224
1783696069576762000,9.62776220703125,-0.058065235477685925,0.42938510398864743,-0.9721246383480727
1783696069586726100,9.63772607421875,-0.08142156114578247,0.49813539960980413,-1.0592156234323977
1783696069596689200,9.647689208984374,-0.0887397752046585,0.5509405226022005,-1.0494877178832889
1783696069606653200,9.657653076171876,-0.12245558232367038,0.5979957037657498,-1.0265214144460857
1783696069616617200,9.6676171875,-0.2307709956139326,0.6214321089327335,-1.033630808059871
1783696069626580200,9.677580322265625,-0.3440606901854276,0.6561077009946108,-1.0496199659608303
1783696069636544300,9.687544189453124,-0.3702478553652763,0.6718260791301727,-1.06751057356894
1783696069646508300,9.69750830078125,-0.37078736906945703,0.6593623188763856,-1.0571420320287346
1783696069656471300,9.70747119140625,-0.3142243548482656,0.6618167262911796,-1.1151261650942266
1783696069666435300,9.717435302734375,-0.22209844433665274,0.6538327417999505,-1.1451663524404168
1783696069676398300,9.7273984375,-0.1776239273160696,0.6338835942268372,-1.1727118734266608
1783696069686362400,9.7373623046875,-0.23232465479671954,0.6616629970341921,-1.2312056365147233
1783696069696326100,9.747326171875,-0.36138942612707614,0.7443027017980813,-1.3313748604893683
1783696069706289400,9.757289306640626,-0.4996311911255121,0.8401829964071512,-1.46383365817219
1783696069716253200,9.767253173828125,-0.590718406239152,0.9423059847980737,-1.5782960497848688
1783696069726217200,9.77721728515625,-0.6934247474759817,1.0417384189307688,-1.6993544786617159
1783696069736180200,9.78718017578125,-0.9317892669588327,1.1240250724732874,-1.7757042895011603
1783696069746144300,9.797144287109376,-1.1690841113835573,1.2447767734885216,-1.8493217527672647
1783696069756107300,9.807107177734375,-1.3211878129959105,1.3741729687303303,-1.8467388966672122
1783696069766071300,9.8170712890625,-1.368449914908409,1.4757126042753457,-1.8201735458247363
1783696069776035300,9.827035400390624,-1.3217805181920528,1.5107944390505552,-1.8293346112713216
1783696069785998300,9.836998291015625,-1.2255097629606724,1.512734467202425,-1.795117722762376
1783696069795962400,9.84696240234375,-1.1358867751806974,1.4709230319112538,-1.7712208604767918
1783696069805926400,9.856926513671874,-1.0281266576856374,1.398545777964592,-1.7534031719744205
1783696069815889400,9.866889404296876,-0.9009767800658941,1.3288240069627761,-1.726173219743371
1783696069825853400,9.876853515625,-0.8674129486382007,1.2908224853485821,-1.6806380877539515
1783696069835817200,9.886817138671875,-0.9384539855450391,1.2975012324601412,-1.648784567375481
1783696069845780500,9.896780517578126,-1.066772322422266,1.3480378259986638,-1.6166260727010666
1783696069855744300,9.906744140625,-1.1720914765059947,1.4030927737444638,-1.5821502409949897
1783696069865707300,9.916707275390625,-1.2304407896220684,1.4503285721719263,-1.5603639411225914
1783696069875671000,9.926671142578124,-1.2736281894415615,1.524851021453738,-1.5184052063152194
1783696069885635000,9.936635009765626,-1.3036433884769678,1.5448381629496812,-1.5403770918875932
1783696069895598000,9.94659814453125,-1.2510077768325805,1.5445266127824782,-1.5321617828585206
1783696069905562000,9.95656201171875,-1.1767109530001878,1.5307003320038317,-1.5197174579575656
1783696069915526100,9.966526123046876,-1.0842436817049979,1.4828706593364476,-1.5303398281283676
1783696069925489200,9.9764892578125,-0.9449404249548912,1.4804694434136152,-1.5172574975848196
1783696069935453200,9.986453125,-0.8359387829661369,1.4588164145320652,-1.4141205098457634
1783696069945417200,9.996417236328124,-0.687282591459155,1.4639724821209907,-1.2318493412457405
1783696069955380200,10.006380126953125,-0.5422101036578416,1.4839716063156723,-1.0435175574325024
1783696069965344300,10.01634423828125,-0.5061866041183471,1.4093611864894628,-0.8876423744574189
1783696069975307300,10.026307373046874,-0.5871580834090709,1.3638915209516882,-0.8370014437615871
1783696069985271300,10.036271240234376,-0.6117459966987371,1.2820058494254947,-0.7678461475361138
1783696069995235300,10.0462353515625,-0.6226017372339964,1.13825964179188,-0.752720109270513
1783696070005198300,10.0561982421875,-0.6977449487626552,1.023991165316105,-0.7060347843326628
1783696070015162000,10.066162109375,-0.8307984974682331,0.9810349439039826,-0.7072696598898619
1783696070025126100,10.076126220703125,-0.8094950126767158,0.9430378062039613,-0.7551644336827099
1783696070035089200,10.086089111328125,-0.701212332612276,0.8794865405306219,-0.8198535442795604
1783696070045053200,10.09605322265625,-0.6960165175348519,0.83680972058177,-0.9208419026173651
1783696070055017200,10.106017333984376,-0.7789426380246878,0.8771797248929738,-1.0162371171232312
1783696070064980200,10.115980224609375,-0.85228902926445,0.9621087096378207,-1.02534316444695
1783696070074944300,10.1259443359375,-0.8984668430715799,1.074243388955295,-0.9102604489788413
1783696070084907300,10.1359072265625,-0.9448656061530113,1.1685066037565468,-0.8050459243133664
1783696070094871300,10.145871337890625,-1.0416051479399204,1.1996101825505494,-0.7556609850279986
1783696070104835300,10.15583544921875,-1.1305687950283287,1.2288166955515742,-0.8025251005988567
1783696070114798300,10.16579833984375,-1.0726000056624412,1.1921221648827194,-1.0173761310905218
1783696070124762400,10.175762451171876,-0.8349439267098904,1.1508552117317914,-1.129179094235599
1783696070134726400,10.185726318359375,-0.9103191934287548,1.1355530131816864,-1.0386715056408196
1783696070144689400,10.195689453125,-0.6470867746710777,0.9609604163855314,-0.5041789906229823
1783696070154653200,10.205653076171876,-0.9359837960392237,0.8362973871454596,-0.883566430255398
1783696070164616400,10.215616455078125,-1.3432055835366248,0.8521236095696687,-1.3475716697916387
1783696070174580200,10.225580322265625,-1.3301836048781872,0.7208382395803928,-1.27274526912719
1783696070184544300,10.235544189453124,-1.3341390645056963,0.6738441409543157,-1.1893733045659958
1783696070194507300,10.24550732421875,-1.224456454515457,0.8588228149473667,-1.4800900887072086
1783696070204471300,10.25547119140625,-1.1516817256838083,0.9967828403949737,-1.3327980251602827
