time,seconds_elapsed,z,y,x
1783696038417418200,0.052418212890625,-0.9258242210745811,0.7760434094518422,0.16570899658408014
1783696038427382300,0.06238232421875,-0.8897837704002857,0.7786410247296095,0.3127093106428161
1783696038437346300,0.07234619140625,-0.5547650493264198,0.8869564380198717,0.5079254836749285
1783696038447309300,0.082309326171875,-0.009371639457345008,0.8682675196409225,0.7838055678859353
1783696038457273300,0.0922734375,0.5028162509024143,0.7373989137589931,1.0192001316472887
1783696038467237000,0.102237060546875,0.8015203805357217,0.589692570322752,1.0947918175958096
1783696038477201200,0.112201171875,0.8733733183473348,0.4190086714029312,1.0250681468978524
1783696038487164200,0.1221640625,0.7506266441226005,0.2504308048516512,0.926548151434958
1783696038497128200,0.132128173828125,0.5742442413002252,0.10064122540056705,0.8022709066420793
1783696038507092200,0.14209228515625,0.4194382949918508,-0.022527473628520964,0.7430171920321881
1783696038517055200,0.15205517578125,0.282962370622158,-0.11240122129917145,0.7065611462943255
1783696038527019300,0.162019287109375,0.14062252265512942,-0.1368295601129532,0.629401334246248
1783696038536983300,0.1719833984375,0.058384968951344485,-0.05212240142524242,0.6105210580136626
1783696038546947300,0.181947265625,0.09886310981214046,-0.007129998010396957,0.5887858307413757
1783696038556910300,0.191910400390625,0.167736739552021,-0.015518179388344287,0.5279645745538175
1783696038566874400,0.201874267578125,0.1447545078933239,-0.06990706444084643,0.48057040722686795
1783696038576838100,0.211838134765625,-0.014838672691583633,-0.07902268331050873,0.35999004419054836
1783696038586801400,0.221801513671875,-0.17673077786862848,-0.029328970336914062,0.17730024831965566
1783696038596765200,0.23176513671875,-0.2201701066225767,-0.052589434415102,0.030245171866379678
1783696038606729200,0.241729248046875,-0.211805013859272,-0.16007833375334737,-0.10368581726085394
1783696038616693200,0.251693359375,-0.21468612225353717,-0.18736089295446873,-0.17792619819827377
1783696038626656300,0.26165625,-0.2522860773295164,-0.10881839437633752,-0.17529716486893593
1783696038636620300,0.271620361328125,-0.22414310190677642,-0.06514817947596312,-0.12733374628666788
1783696038646584300,0.281584228515625,-0.1653109737098217,-0.03208352974206209,-0.033146884657256306
1783696038656547300,0.29154736328125,-0.12927636825442312,0.009905015681684016,0.0011184826359152793
1783696038666511400,0.301511474609375,-0.20017069016695022,0.06131400814056396,0.0573015210961923
1783696038676475400,0.311475341796875,-0.2996943097144365,0.13689210395514964,0.14277772792764007
1783696038686439200,0.321439208984375,-0.3495475971639156,0.15581015491485595,0.20009254689682274
1783696038696402400,0.33140234375,-0.44720074666440485,0.12329554027915,0.22848460170980542
1783696038706366200,0.3413662109375,-0.4975432789355516,0.1601817941278219,0.19218791125211865
1783696038716330200,0.351330322265625,-0.5289876339912414,0.21656886726021765,0.15992456796374172
1783696038726293200,0.361293212890625,-0.48667467891871924,0.22100480388104915,0.16569767147246747
1783696038736257300,0.37125732421875,-0.41024025853574275,0.18633447251617907,0.17719708020612596
1783696038746221300,0.38122119140625,-0.3805354406237602,0.14436521631479263,0.23231395073961464
1783696038756185300,0.391185302734375,-0.38360944124162194,-0.0804179370611906,0.45969866491612044
1783696038766148400,0.4011484375,-0.36465631896853445,-0.4824421559154987,0.7894463502518833
1783696038776112400,0.4111123046875,-0.21530571545660496,-0.7087211008071899,0.7697885137755424
1783696038786076400,0.421076416015625,-0.1748831041753292,-0.8092021672099828,0.5725434652643278
1783696038796039200,0.4310390625,-0.2992038958489895,-0.9451263029158115,0.5209717565244063
1783696038806003200,0.441003173828125,-0.4204425035983324,-0.9475731115460395,0.5568932204615324
1783696038815967200,0.45096728515625,-0.48813890625238415,-0.8267080132842063,0.35390239483993496
1783696038825931300,0.46093115234375,-0.5609305862188338,-0.6356956120848656,-0.06569689939990639
1783696038835894000,0.47089404296875,-0.6259428643554449,-0.5058645325571298,-0.39941655710656193
1783696038845858000,0.480858154296875,-0.6663064389258623,-0.29046763168573375,-0.5169520725542679
1783696038855822300,0.490822265625,-0.6305033041387796,0.010330839878320694,-0.4952997743250802
1783696038865786400,0.500786376953125,-0.5602671538740396,0.29706162312328815,-0.43365514599066224
1783696038875749000,0.5107490234375,-0.4207680822908878,0.4807949732303619,-0.38511604641228914
1783696038885713200,0.520713134765625,-0.3172714674592018,0.5634954682707787,-0.39538839756902305
1783696038895677400,0.530677490234375,-0.21066110452115536,0.5749287164330482,-0.48435153320077806
1783696038905640200,0.54064013671875,-0.1299672731280327,0.5627466957300901,-0.6315419995367527
1783696038915604200,0.550604248046875,-0.2206663657069206,0.49785015292763707,-0.6876557356204838
1783696038925568000,0.560568115234375,-0.42234395330548286,0.5189180753976106,-0.7588951446436345
1783696038935532000,0.570531982421875,-0.5368061987876892,0.681596362516284,-0.8701317060776055
1783696038945495000,0.5804951171875,-0.5632984843939542,0.7643453728735446,-0.8758321096763014
1783696038955459000,0.590458984375,-0.47817046994566914,0.7679892823338508,-0.847516042708978
1783696038965423000,0.600423095703125,-0.2554009944796562,0.7588923681646585,-0.8435717620626092
1783696038975386000,0.61038623046875,0.031637247279286386,0.6786211460977792,-0.8530231887578964
1783696038985350100,0.62035009765625,0.25154198096394537,0.5578080702841282,-0.8103061829291284
1783696038995314200,0.630314208984375,0.35854806522130966,0.4109299943655729,-0.7935893683407456
1783696039005277200,0.640277099609375,0.35123218924999233,0.2536111884534359,-0.7204388649992645
1783696039015241200,0.6502412109375,0.29768413893580437,0.07813187195062637,-0.6610878274947405
1783696039025205200,0.660205322265625,0.2654489257633686,-0.010910101071000098,-0.6228607534963637
1783696039035169000,0.6701689453125,0.3064624886751175,-0.08669570215642451,-0.5886825164973736
1783696039045132300,0.68013232421875,0.3371861282408237,-0.1590051515638828,-0.45509873337261375
1783696039055096000,0.690095947265625,0.3650970484733581,-0.17386545156538485,-0.2426491379994899
1783696039065060000,0.70006005859375,0.3903706059396267,-0.1130301668524742,-0.07691723546385765
1783696039075023000,0.710023193359375,0.4891740945190191,-0.01930734253823757,0.05476137162670493
1783696039084987100,0.719987060546875,0.606637859904766,0.08610533504784107,0.1789660626400262
1783696039094951200,0.729951171875,0.6958791548907757,0.2094482216000557,0.17332250379510222
1783696039104915200,0.739915283203125,0.6699018330693245,0.34872108321189876,0.08806099916025996
1783696039114878200,0.749878173828125,0.5142337169736624,0.4556207844853401,-0.06828866945877671
1783696039124842200,0.75984228515625,0.2541442724168301,0.5771107366472482,-0.19463015330508351
1783696039134806300,0.76980615234375,-0.0842436328291893,0.667992784577608,-0.19229506142102182
1783696039144769300,0.779769287109375,-0.35148528722822664,0.6867372325360774,-0.10746486087553203
1783696039154733000,0.789733154296875,-0.4095136978268623,0.6975374434918165,0.0061738663293421266
1783696039164697000,0.799697021484375,-0.2775917834997177,0.6675567312479018,0.04360336020924151
1783696039174661000,0.8096611328125,-0.09956044442653655,0.540950458985567,0.06595386983565986
1783696039184624000,0.8196240234375,0.0797118346184492,0.3676794661819935,0.03776062553040683
1783696039194588200,0.829588134765625,0.23480419665277003,0.1265764616459608,-0.004483173296041787
1783696039204552200,0.83955224609375,0.407763054767251,-0.058280339533090586,-0.08120989115647971
1783696039214515200,0.84951513671875,0.43729777680933474,-0.3807043674498796,0.003833038824237883
1783696039224479200,0.859479248046875,0.5026724585175514,-0.5563724845230579,-0.2640660200376063
1783696039234443300,0.869443359375,0.4939350253105163,-0.7659609913766384,-0.33111933901514856
1783696039244406800,0.87940673828125,0.3956166898995638,-0.9603034137815236,-0.16318448307514188
1783696039254369800,0.889369873046875,0.23169746280908582,-0.9266185863226651,-0.1783314545309171
1783696039264333800,0.899333740234375,0.06591419541239738,-0.9068401191413402,-0.23452603729851543
1783696039274297600,0.909297607421875,-0.08708090208172797,-0.9280337138175964,-0.23373167205043135
1783696039284260900,0.9192607421875,-0.32061142553687094,-0.9597592239022255,-0.17903854335434735
1783696039294224600,0.929224609375,-0.4265110098570585,-0.9370154771745204,-0.16386998112127185
1783696039304188700,0.939188720703125,-0.3567155890971422,-0.8521475749671459,-0.1282858959123492
1783696039314152700,0.949152587890625,-0.1840975072443485,-0.7958505182057619,-0.06628061757199466
1783696039324115700,0.95911572265625,-0.06124737264513969,-0.7599035910338163,-0.04865348320566117
1783696039334079700,0.969079833984375,-0.03939969797432422,-0.6069780516445636,-0.059389835144951934
1783696039344043800,0.979043701171875,-0.05400222382247448,-0.40289340290427206,0.007133285946026444
1783696039354006800,0.9890068359375,-0.1492155789554119,-0.1528928061634302,0.09122326258346437
1783696039363970800,0.998970703125,-0.2836415850579738,0.1324935767352581,0.14330876606442033
1783696039373934800,1.008934814453125,-0.45704234172105784,0.3675222297936678,0.19008359591662882
1783696039383898600,1.018898681640625,-0.6505629263490438,0.5527513714164495,0.2351482608500868
1783696039393862000,1.02886181640625,-0.787854843276739,0.6404279013037681,0.262593682462722
1783696039403825700,1.03882568359375,-0.8450655077517032,0.6383861663430929,0.24316110610961914
1783696039413789700,1.048789794921875,-0.7967424986094236,0.5611287391394376,0.1890769030921161
1783696039423752700,1.058752685546875,-0.7440636323451996,0.31150398997366424,0.15106683284528552
1783696039433716700,1.068716796875,-0.6307458807229995,-0.05613806680738925,0.19691081158816814
1783696039443680800,1.0786806640625,-0.41597792540490625,-0.28954350257813927,0.12266118789836764
1783696039453643800,1.088643798828125,-0.25643618274629115,-0.2784966233849525,-0.1642950016003102
1783696039463607800,1.09860791015625,-0.19510756155848502,-0.16623510281741619,-0.3984401498224586
1783696039473571800,1.10857177734375,-0.2610965757727623,-0.05878828905522823,-0.5478456253267824
1783696039483536000,1.118535888671875,-0.30475510023534297,0.08437924190759659,-0.7586001802850514
1783696039493499000,1.128498779296875,-0.3867079917788505,0.08361936345100403,-0.9428774280104786
1783696039503463000,1.138462890625,-0.41145431050062176,0.17639233969449997,-0.8175428561843932
1783696039513426700,1.1484267578125,-0.3332213162630796,0.2759609674274921,-0.5110082521211355
1783696039523389700,1.1583896484375,-0.16576514721810817,0.20492226860821247,-0.0727313280813396
1783696039533353700,1.168353759765625,0.09527005375623702,0.0950362450003624,0.4171338174417615
1783696039543317800,1.17831787109375,0.3292886529892683,-0.051368368187546726,0.7576375457979738
1783696039553281800,1.18828173828125,0.4443441881895065,-0.17180910355746745,0.8449779025334865
1783696039563244800,1.198244873046875,0.4907891285002231,-0.2747229500651359,0.688551734612137
1783696039573208800,1.208208740234375,0.34745559332072734,-0.43890112035274503,0.4750882129561156
1783696039583172900,1.2181728515625,0.08308043426871299,-0.4263882602602243,0.2416791969887912
1783696039593135600,1.228135498046875,-0.2940215247750282,-0.26942835078835486,0.005525193162262439
1783696039603100000,1.238099853515625,-0.6487240204840898,0.05078793795108795,-0.10979074653983116
1783696039613064000,1.24806396484375,-0.857832050344348,0.4807914660990238,-0.02663995044864714
1783696039623027700,1.25802783203125,-0.892416456991434,0.8723241015553473,0.2408277677912265
1783696039632990700,1.26799072265625,-0.8181289855092764,1.1700965032964945,0.5925003212198615
1783696039642954800,1.277954833984375,-0.547132947012782,1.297600016659498,0.8141123702790588
1783696039652918800,1.287918701171875,-0.2070598651587963,1.2264210325866938,1.0063685609944164
1783696039662881500,1.297881591796875,0.18466332443356512,1.0910182904064654,1.0987783299487084
1783696039672845600,1.307845458984375,0.47848669628798957,0.8204507064551114,1.0251743106860667
1783696039682809900,1.317809814453125,0.6720704092800617,0.522225884771347,0.8619016378708183
1783696039692774000,1.32777392578125,0.6785071643292904,0.1794710164874792,0.7508408713951706
1783696039702736600,1.337736572265625,0.5766431191354989,-0.015547113221883773,0.7516027956783771
1783696039712700700,1.34770068359375,0.5142161813169718,-0.1051917283117771,0.7970048028074205
1783696039722664700,1.357664794921875,0.4145990382671356,-0.1807476122945547,0.9323502618424594
1783696039732627700,1.367627685546875,0.29464813224077224,-0.02010463039577007,1.0217429479978979
1783696039742591700,1.377591796875,0.21526070727109908,0.19055881221294402,0.9256902194313704
1783696039752555500,1.387555419921875,0.17229367220401762,0.34844752696752546,0.6862790404397994
1783696039762518500,1.3975185546875,0.007910919255018235,0.4917389765709638,0.5238440605577082
1783696039772482600,1.407482666015625,-0.16476035408973694,0.7339864749670029,0.22463563466407357
1783696039782446600,1.417446533203125,-0.32789573732614513,0.8241039682656526,0.0168023009147495
1783696039792410600,1.42741064453125,-0.38644671049416063,0.8548930742830038,-0.03603708967342972
1783696039802373600,1.43737353515625,-0.4221417087316513,0.876823166540265,-0.12535546848364174
1783696039812337700,1.447337646484375,-0.4088736463576555,0.8572621415019035,-0.235423862921074
1783696039822301700,1.4573017578125,-0.32333003684580325,0.7761807720959186,-0.2635078016329557
1783696039832264700,1.4672646484375,-0.19233108258247375,0.6862777983307838,-0.239109638761729
1783696039842228700,1.477228759765625,-0.10399462748169898,0.5978986731320619,-0.18471541994698346
1783696039852192800,1.48719287109375,-0.007355038937926292,0.536536149674654,-0.16983838800638912
1783696039862156500,1.497156494140625,0.08081950359940529,0.48282735584080216,-0.08477978553250431
1783696039872119600,1.50711962890625,0.06617080052196979,0.35465748752355575,-0.0347528950817883
1783696039882083600,1.51708349609375,0.04474515065550804,0.338545141634345,-0.04957863522656262
1783696039892047600,1.527047607421875,0.11125205126404762,0.359252414098382,0.003971899305656552
1783696039902010600,1.5370107421875,0.15409399864673615,0.2944435495793819,0.0882975843951106
1783696039911974700,1.546974609375,0.15388064815700053,0.22108722146749496,0.1563823287796229
1783696039921938700,1.556938720703125,0.1598731665700674,0.2076613381832838,0.1686721937712282
1783696039931901700,1.566901611328125,0.14850830746889113,0.20263035827875137,0.2021654441807419
1783696039941865700,1.57686572265625,0.20484861885011196,0.24194530057907104,0.27426110470704734
1783696039951829800,1.586829833984375,0.31261925773918625,0.1794195785611868,0.3333386590324342
1783696039961793500,1.59679345703125,0.46557460774481296,0.11917056930363178,0.40749212887138125
1783696039971756800,1.6067568359375,0.4942804777473211,0.04547521849572658,0.472831154744327
1783696039981720600,1.616720458984375,0.3897504282146692,0.033797640183568,0.48834604619704186
1783696039991684600,1.6266845703125,0.3136731507062912,0.09954173972606659,0.4399837279576808
1783696040001647600,1.636647705078125,0.3419067270219326,0.08656301568746566,0.4309705465491861
1783696040011611600,1.646611572265625,0.4271604136765003,0.049527124235033984,0.42400209577605125
1783696040021575700,1.65657568359375,0.38983986006379123,0.014386837270855903,0.4363976861644536
1783696040031539700,1.666539794921875,0.19533260248601436,0.0811935976088047,0.40408896936438976
1783696040041502700,1.676502685546875,-0.0410609091848135,0.1331423960328102,0.3327197234164923
1783696040051466800,1.686466796875,-0.24289281056225298,0.13927403065562247,0.22828889647461473
1783696040061430800,1.6964306640625,-0.34179975951611996,0.07947218064367771,0.2019306125115603
1783696040071393800,1.706393798828125,-0.39638475166261194,0.06183014096915722,0.17957783786281942
1783696040081357800,1.71635791015625,-0.45127544875741005,0.027861820393800734,0.14253244792968034
1783696040091321600,1.726321533203125,-0.4755845451056957,0.018430559703707695,0.1301571696769446
1783696040101285600,1.73628564453125,-0.5037777894109488,-0.04657762677967548,0.13152100537605582
1783696040111248600,1.74624853515625,-0.5644418092101812,-0.18589549657702445,0.11520166567265987
1783696040121212700,1.756212646484375,-0.6189128195881843,-0.3915981019079685,0.2046592337578535
1783696040131176700,1.7661767578125,-0.6350146440833807,-0.5561258162856102,0.348248789525032
1783696040141139700,1.7761396484375,-0.6045382572770118,-0.5819809730321168,0.3260645033109933
1783696040151103700,1.786103759765625,-0.5124070860683918,-0.4331517630457878,0.25526341263987123
1783696040161067800,1.79606787109375,-0.29138240844309327,-0.3034779199063778,-0.03386668683178723
1783696040171030800,1.80603076171875,-0.24982290208637714,-0.2824970911979675,-0.08358699555136263
1783696040180994800,1.815994873046875,-0.2464122168600559,-0.118629302033782,-0.2561610921319574
1783696040190958800,1.825958740234375,-0.3652461015552282,0.031660628154873846,-0.48080001473166045
1783696040200922600,1.835922607421875,-0.5176332962840795,0.1480699160516262,-0.5408016250994057
1783696040210886000,1.845885986328125,-0.6329758317321539,0.322530410900712,-0.5988637187719345
1783696040220849700,1.855849609375,-0.619698417007923,0.41819501693248745,-0.6566932457976042
1783696040230813700,1.865813720703125,-0.4955611652076244,0.40759938863813877,-0.6977745401833206
1783696040240777000,1.87577685546875,-0.33935528897345063,0.3389659973949194,-0.7105906210061163
1783696040250741000,1.885740966796875,-0.27818682678341866,0.24029227267503736,-0.7863052026819437
1783696040260705000,1.895705078125,-0.21827508665621279,0.17638006473481654,-0.8618991536527871
1783696040270669000,1.9056689453125,-0.11785422600805759,0.15321780033409593,-0.8890432542312889
1783696040280632000,1.915632080078125,-0.023272154515981674,0.11966332125663756,-0.8416964697100222
1783696040290596000,1.92559619140625,0.10845043784677982,0.1521171456158161,-0.9030850043915212
1783696040300560000,1.935559814453125,0.09596271219551562,0.17700199602544306,-0.787084735687077
1783696040310523100,1.945523193359375,-0.006255553263425827,0.27684768713414665,-0.7338376410808414
1783696040320487000,1.95548681640625,-0.18854045812785625,0.3883563435077667,-0.8547390527650713
1783696040330451000,1.965450927734375,-0.3221896346390247,0.4437199188113212,-0.9884132906522601
1783696040340414000,1.9754140625,-0.360240840613842,0.4827899464398622,-1.1279781940132378
1783696040350378000,1.9853779296875,-0.34235914696455,0.4495382497012615,-1.270076634439826
1783696040360342000,1.995342041015625,-0.2944318591415882,0.4340869980692863,-1.378722302597761
1783696040370306000,2.00530615234375,-0.23728724564015863,0.4668284071981907,-1.434827343918383
1783696040380269000,2.01526904296875,-0.21217267812788485,0.5345101968050002,-1.4561846047237514
1783696040390233000,2.025233154296875,-0.2618780815392732,0.5827560490578413,-1.3838710636630653
1783696040400197000,2.035197021484375,-0.3786754919707775,0.6073118136435747,-1.1771299821298569
1783696040410160000,2.04516015625,-0.5061252293199301,0.6166852066665888,-0.9864632525630295
1783696040420124200,2.055124267578125,-0.4896709381252527,0.6056278060793876,-0.8951547959141433
1783696040430088000,2.065087890625,-0.3399275359034538,0.5055477216929197,-0.7578543303538113
1783696040440052000,2.075052001953125,-0.14236732049584389,0.40052901186048984,-0.6085382866986095
1783696040450015000,2.085014892578125,0.1197270341426134,0.30583705025315283,-0.5256755137685686
1783696040459979000,2.09497900390625,0.3361351578831672,0.19288345576822757,-0.4200605916086584
1783696040469943000,2.104943115234375,0.4742816458135843,0.11957272036373615,-0.2471460110273212
1783696040479905800,2.11490576171875,0.46682490006685257,-0.04512099823057651,-0.11523001498430967
1783696040489870000,2.1248701171875,0.44601066009700296,-0.06544599337875842,-0.07276121176294982
1783696040499834000,2.134834228515625,0.44470425367355343,-0.08206570426821708,-0.12071231885291635
1783696040509796900,2.144796875,0.4104880958169698,-0.1103682541668415,-0.13747618745341897
1783696040519761000,2.154760986328125,0.38026363794505597,0.005796703580021858,-0.0981841876372695
1783696040529725200,2.16472509765625,0.30309973424375053,0.06796294463574885,-0.1438054635401815
1783696040539689000,2.17468896484375,0.18558160832226275,0.16031974129378795,-0.1397265236634761
1783696040549652000,2.18465185546875,0.023104981255531308,0.3031850744396448,-0.10166019318476319
1783696040559615700,2.19461572265625,-0.1993739868313074,0.35352819123268125,-0.08446947747431695
1783696040569580000,2.204580078125,-0.3599281214028597,0.42852994846403597,-0.11188019309975206
1783696040579542800,2.214542724609375,-0.4962789580881595,0.4546954863339662,-0.12549589986763893
1783696040589506800,2.2245068359375,-0.5730804582178592,0.4164899665802717,-0.12197992763593792
1783696040599470800,2.234470947265625,-0.5342600214362144,0.33866789123117924,-0.09145473325178026
1783696040609435000,2.244434814453125,-0.39071956550776954,0.25803952628970145,-0.06030797290317714
1783696040619398000,2.25439794921875,-0.1412245802015066,0.16452537629008293,-0.046883258662745356
1783696040629362000,2.26436181640625,0.034653964751958845,0.02108545812666416,0.00953245604224503
1783696040639326000,2.274325927734375,0.10747603985667228,-0.15303952115774153,0.028177900605648756
1783696040649289000,2.2842890625,0.11918868948221206,-0.3538490937501192,-0.015168854494020343
1783696040659253000,2.2942529296875,0.12627367930710315,-0.5822925231993198,-0.07869279376901686
1783696040669216800,2.304216796875,0.16705401798486708,-0.7651753939568996,-0.0892305543962866
1783696040679180000,2.314179931640625,0.24853169323205945,-0.858098592326045,-0.10754274841733276
1783696040689143800,2.324143798828125,0.28063012828230854,-0.9267389978319406,-0.17789857953898608
1783696040699107800,2.33410791015625,0.33883331092596053,-0.952693523299694,-0.2988261485777795
1783696040709072000,2.34407177734375,0.4165858281701803,-0.9299158743023872,-0.424365230000019
1783696040719035000,2.354034912109375,0.43619069235026836,-0.9461720125764608,-0.5423580607611685
1783696040728999000,2.3639990234375,0.3943810106247663,-0.9289888225853442,-0.7001870081525295
1783696040738963000,2.373962890625,0.28216858989596366,-0.8301531853020191,-0.7517562326744198
1783696040748926000,2.383926025390625,0.14137304876148699,-0.7360258718401194,-0.7742924010660499
1783696040758890000,2.393889892578125,0.048205520242452615,-0.5447533583998679,-0.7761855944015085
1783696040768854000,2.40385400390625,0.043187984341382976,-0.33976971499323844,-0.6910370486218482
1783696040778817000,2.413817138671875,0.08191840475201606,-0.18429682920873164,-0.5278673247244209
1783696040788780800,2.42378076171875,0.1546352659165859,-0.02945581158697605,-0.38665874580964443
1783696040798744800,2.433744873046875,0.2586310624420643,0.07219429859519004,-0.3081104750778526
1783696040808708900,2.443708984375,0.25453940921425816,0.08565233058333396,-0.25577523461952806
1783696040818671900,2.453671875,0.21332710886001585,0.11770166579484939,-0.2381909164816141
1783696040828636000,2.463635986328125,0.1740676961392164,0.09448562538027763,-0.22641353105679152
1783696040838600000,2.473599853515625,0.11302256806790828,0.06423252593576907,-0.1623358303565532
1783696040848563000,2.48356298828125,0.02081540901362896,-0.004131400716304779,-0.11324863190874457
1783696040858527000,2.49352685546875,-0.07985562700331211,-0.028665537992119787,-0.15044044457525013
1783696040868491000,2.503490966796875,-0.24339199225604533,-0.10863748485147952,-0.1523722894206643
1783696040878455000,2.513455078125,-0.37062194937467574,-0.2931687073379755,-0.04371171595454216
1783696040888418000,2.52341796875,-0.460352489182353,-0.5867313824295998,0.23295732667706906
1783696040898381800,2.5333818359375,-0.4164683392703533,-0.8462251991808414,0.5342412436705082
1783696040908345900,2.543345947265625,-0.15643208620548246,-0.8702420345842837,0.5259375257056206
1783696040918308900,2.553308837890625,-0.026778701332211493,-0.7522627208918332,0.15423238420411944
1783696040928273000,2.56327294921875,-0.1662777729153633,-0.5241372713506222,-0.27991167781464754
1783696040938237000,2.57323681640625,-0.5651075796425342,-0.33717560684680936,-0.5223241575140506
1783696040948201000,2.583200927734375,-1.0615192241996525,-0.23131810810267925,-0.6297304931353778
1783696040958164000,2.5931640625,-1.478584360319376,-0.11047405262887477,-0.6555275630190968
1783696040968128000,2.6031279296875,-1.6238129154652357,0.046561260166764255,-0.603796645129472
1783696040978092000,2.613092041015625,-1.473274563473463,0.13891805682480335,-0.498091341272369
1783696040988055000,2.623054931640625,-1.124725329697132,0.13401508721411226,-0.40534934468902645
1783696040998019000,2.63301904296875,-0.8270791846841573,0.09927753583192825,-0.4257756082545966
1783696041007982800,2.64298291015625,-0.7264543258965015,0.1250210488975048,-0.6695486357174814
1783696041017946000,2.652946044921875,-0.8057225084006786,0.20107494553029537,-0.9762003633543849
1783696041027910000,2.662909912109375,-0.9454664946556091,0.2883984241962433,-1.2476688416682182
1783696041037874000,2.6728740234375,-1.0784195055961607,0.4382008631289005,-1.3848318715192376
1783696041047838000,2.682837890625,-1.0707190142214298,0.6669476594388485,-1.4033819659493862
1783696041057801000,2.692801025390625,-0.966194225385785,0.904574512296915,-1.2760045631840824
1783696041067765000,2.702764892578125,-0.8992249679625034,1.0537941829055546,-0.9853482770584523
1783696041077729000,2.71272900390625,-0.8042740631580352,1.321782271757722,-0.7109061897613108
1783696041087692000,2.722692138671875,-0.6735287913948297,1.4789222139716147,-0.5282018904410303
1783696041097656000,2.732656005859375,-0.5703238529860973,1.4360703297168016,-0.4378482502989471
1783696041107620000,2.7426201171875,-0.28651334110200405,1.2847124780356882,-0.3474965098530054
1783696041117584000,2.752583984375,0.019541735816001892,1.0955787301898001,-0.21729659701287746
1783696041127547100,2.762547119140625,0.10667407582402229,0.8873521593391894,-0.17562559310570358
1783696041137511000,2.772510986328125,0.06214636731147766,0.7088415123164653,-0.19456629428863526
1783696041147475000,2.782474853515625,0.06904021847844123,0.6420803446859121,-0.39083646988570686
1783696041157438000,2.79243798828125,-0.022578327032923697,0.48487961219549175,-0.5004727565161884
1783696041167402000,2.802402099609375,-0.16028057832717896,0.42672786747813224,-0.5276301549676805
1783696041177366000,2.812365966796875,-0.31323300572335716,0.48015258367359637,-0.6206245919421315
1783696041187329000,2.8223291015625,-0.4779460135400295,0.5130260947495698,-0.7301823334436863
1783696041197293000,2.83229296875,-0.592266220203042,0.6468097112953662,-0.7966226716220378
1783696041207257000,2.842257080078125,-0.6549369036495685,0.765500972649455,-0.8437965837944299
1783696041217221000,2.85222119140625,-0.6428782170653343,0.9184130680352449,-0.9175112238246947
1783696041227184000,2.86218408203125,-0.5824310548871755,1.0076882652908563,-1.001378862948343
1783696041237148200,2.872148193359375,-0.5803612628757954,1.045662314376235,-1.0291826695445925
1783696041247111700,2.882111572265625,-0.5610895761728286,1.0367980399191379,-1.119356569205597
1783696041257074700,2.89207470703125,-0.5572071817815304,0.9768325237780808,-1.1728205944981425
1783696041267038500,2.90203857421875,-0.557080925053358,0.9285311419457196,-1.1262829344026744
1783696041277002500,2.91200244140625,-0.4958545951962471,0.8986591507732867,-1.1022911603752523
1783696041286966500,2.921966552734375,-0.4118845186114311,0.8179168040633201,-1.1029670868754387
1783696041296929500,2.931929443359375,-0.36153321851193904,0.7512877383798361,-1.0443383722960948
1783696041306893600,2.9418935546875,-0.3580313478708267,0.7327408588200807,-1.0026321509450673
1783696041316857600,2.951857666015625,-0.39689387022852896,0.681812635615468,-0.9712859225016087
1783696041326820600,2.961820556640625,-0.3789274209052324,0.6631441755026578,-0.9649623455032705
1783696041336784600,2.97178466796875,-0.32340076399445533,0.6604746640324592,-0.952253012990579
1783696041346748700,2.981748779296875,-0.4006307186692953,0.6876900032162666,-0.883088145219162
1783696041356711700,2.991711669921875,-0.5900052895337343,0.7492571093350648,-0.8493850514512509
1783696041366675700,3.00167578125,-0.6722212159276009,0.8555074067890643,-0.8359834258254617
1783696041376639500,3.011639404296875,-0.6629150429219007,0.8391653437972069,-0.7471621828824281
1783696041386603500,3.021603515625,-0.5755775357306003,0.761675861403346,-0.7266432725973427
1783696041396566500,3.03156640625,-0.5280523989677429,0.7379699916452169,-0.7745691721808164
1783696041406530600,3.041530517578125,-0.569472204592824,0.7503489962249994,-0.851446148699522
1783696041416494600,3.05149462890625,-0.7497925313860178,0.8176444168627262,-0.8923599044986069
1783696041426457600,3.06145751953125,-0.9422411028683185,0.8693523922681808,-0.8808164739601314
1783696041436421600,3.071421630859375,-1.0867664781808852,0.953887116998434,-0.8372315992556512
1783696041446385700,3.0813857421875,-1.2931126421123742,0.9788333422064781,-0.739659552167356
1783696041456349700,3.091349609375,-1.4752783045113085,1.0292337421447038,-0.6621236002832651
1783696041466312700,3.101312744140625,-1.5933926427602767,1.0580331356495618,-0.6067425623882562
1783696041476276700,3.11127685546875,-1.677561456787586,1.037791727131605,-0.6052394643489271
1783696041486240500,3.121240478515625,-1.763592557555437,0.9734522336900233,-0.5196821916379034
1783696041496203800,3.131203857421875,-1.7443226244181393,0.9256675692081451,-0.3668129124805331
1783696041506167600,3.14116748046875,-1.6269535515785216,0.8974941986471414,-0.3419784040186554
1783696041516131600,3.151131591796875,-1.3414508488237857,0.9640864394515752,-0.5345645573407412
1783696041526095600,3.161095703125,-1.0474182181328535,1.1143477280676364,-0.7677122189581393
1783696041536058600,3.17105859375,-0.874299785542488,1.2072364396452904,-0.9094083621941507
1783696041546022700,3.181022705078125,-0.8096358824521303,1.2536352027267217,-0.9928678589083254
1783696041555986700,3.190986572265625,-0.7854378452628851,1.2865005304962396,-1.1060412336237728
1783696041565949700,3.20094970703125,-0.8172861049443483,1.2707909201890228,-1.109823090250045
1783696041575913700,3.210913818359375,-0.8150456325411796,1.215217501527071,-0.9758598062884062
1783696041585877800,3.220877685546875,-0.7261497899919748,1.1624065333157778,-0.8690770093929022
1783696041595840800,3.2308408203125,-0.589114478173852,1.0393857183247803,-0.7609354182995856
1783696041605804800,3.2408046875,-0.46185412591695785,0.97679686794281,-0.638599005376175
1783696041615768600,3.2507685546875,-0.38836335777044295,0.9356722458720207,-0.5726741424392908
1783696041625732600,3.260732666015625,-0.3703793727904558,0.8632096517294645,-0.5193626773599535
1783696041635695600,3.270695556640625,-0.40793899585604665,0.8681465236097574,-0.5137981020353735
1783696041645659600,3.28065966796875,-0.51274610876441,0.8550824593752622,-0.4746501137997955
1783696041655623700,3.290623779296875,-0.6234130536168814,0.899762728101015,-0.4261470719154924
1783696041665586700,3.300586669921875,-0.6956196271717549,0.9943512293338775,-0.3677836572088301
1783696041675550700,3.31055078125,-0.711757107502222,1.053495492219925,-0.2446136430054903
1783696041685514800,3.3205146484375,-0.720726011377573,1.100679852721095,-0.14482523504197597
1783696041695477800,3.330477783203125,-0.6665986998707055,1.1827987484812736,-0.1131840422399342
1783696041705441800,3.34044189453125,-0.6268307531058788,1.2021943538248538,-0.15802461609393356
1783696041715405800,3.35040576171875,-0.5822820018053054,1.1418337008863686,-0.25199418171085414
1783696041725369600,3.36036962890625,-0.5405196663528681,1.0255512542396783,-0.3266016058623791
1783696041735332600,3.37033251953125,-0.5306535213768482,0.9721551796168089,-0.4258211278967559
1783696041745296600,3.380296630859375,-0.4743365908712148,0.9569564414411783,-0.5118445568148047
1783696041755260700,3.3902607421875,-0.38994039782881734,0.9338801017582415,-0.541876122463122
1783696041765223700,3.4002236328125,-0.3580056289076805,0.9275871390938758,-0.5074052591931074
1783696041775187700,3.410187744140625,-0.34257132841050625,0.9740396781891584,-0.5030401227861643
1783696041785151700,3.42015185546875,-0.309667422196269,1.0300468120932578,-0.4601289095595479
1783696041795115800,3.43011572265625,-0.3028916444510221,1.0684756192088127,-0.34949016788825393
1783696041805078800,3.440078857421875,-0.32014614611268044,1.082870639786124,-0.29066125456169245
1783696041815042800,3.450042724609375,-0.37273850313723084,1.004587376666069,-0.32252931492216885
1783696041825006800,3.4600068359375,-0.38713352371454235,0.9555892447412013,-0.42011129888258875
1783696041834969600,3.469969482421875,-0.3234615542709827,0.8292074288845062,-0.4136748360943049
1783696041844933600,3.47993359375,-0.31220716980695723,0.6207365278840065,-0.3514559880685061
1783696041854897700,3.489897705078125,-0.305959799849987,0.5021376209884881,-0.30772271786928174
1783696041864860400,3.4998603515625,-0.30114333947896954,0.43101416649520397,-0.36207908889167006
1783696041874824400,3.509824462890625,-0.27938918831050397,0.4193751666277647,-0.44602198520861563
1783696041884788500,3.51978857421875,-0.26044892551898957,0.3942687824219465,-0.45362961066812274
1783696041894752800,3.529752685546875,-0.3463420791208744,0.338837987101078,-0.47972222943231463
1783696041904715500,3.539715576171875,-0.42815702349841595,0.342847807264328,-0.5323619327299296
1783696041914679600,3.549679443359375,-0.44107904891371724,0.32907237989008425,-0.5636343652848154
1783696041924643600,3.5596435546875,-0.37022856614291666,0.261126970911026,-0.5856452676933258
1783696041934606600,3.569606689453125,-0.24991350297927856,0.1833966654986143,-0.621950068392232
1783696041944570600,3.579570556640625,-0.12416297076344489,0.06595978811979293,-0.6153956052474677
1783696041954534700,3.58953466796875,-0.013096212938427925,-0.04619534946382046,-0.6331263461187482
1783696041964498400,3.59949853515625,0.025003508353233336,-0.14672142405211924,-0.6322904067512601
1783696041974461400,3.60946142578125,0.01907996352314949,-0.1997352213591337,-0.6482246195945889
1783696041984425500,3.619425537109375,-0.07219780572652816,-0.27185002497732635,-0.686815047012642
1783696041994389500,3.629389404296875,-0.203265149050951,-0.28072715891599653,-0.6611321050278842
1783696042004352500,3.6393525390625,-0.30994039391875267,-0.23252456128299234,-0.5828767528280615
1783696042014316500,3.649316650390625,-0.32317747663259505,-0.14992460400760174,-0.5285416437894106
1783696042024280600,3.659280517578125,-0.3185182526499033,-0.0895242035806179,-0.4939369250066578
1783696042034243600,3.66924365234375,-0.3279460062086582,-0.047805122748017306,-0.48424613659754395
1783696042044207600,3.67920751953125,-0.2885936545073986,-0.031661212676763535,-0.4912419137690216
1783696042054171600,3.689171630859375,-0.23525135589838025,-0.0743576141089201,-0.5096881094332784
1783696042064135400,3.699135498046875,-0.1986035869807005,-0.16428513779342174,-0.5231095357380807
1783696042074098700,3.7090986328125,-0.21736557059586048,-0.23004969560205935,-0.5416894407846033
1783696042084062500,3.7190625,-0.2517582540631294,-0.2770651292771101,-0.5665647927135229
1783696042094026500,3.729026611328125,-0.25389117443859577,-0.2944675149768591,-0.573866055637598
1783696042103989500,3.738989501953125,-0.17172317883968352,-0.3167056502699852,-0.5386528495676816
1783696042113953500,3.74895361328125,-0.07748363717496394,-0.3458873210906982,-0.45479244390241796
1783696042123917600,3.75891748046875,0.014918752190470695,-0.34372108296751974,-0.43573301171064377
1783696042133881600,3.768881591796875,0.08067863382399082,-0.3184779206395149,-0.40610418164432044
1783696042143844600,3.7788447265625,0.2130126360833645,-0.23865151973068713,-0.32140769048109646
1783696042153808600,3.78880859375,0.19355156428813933,-0.26997429423332214,-0.25161789574436844
1783696042163772700,3.798772705078125,0.1298135438710451,-0.21956454194486139,-0.20544928815700111
1783696042173735700,3.808735595703125,0.038872459229826926,-0.15102818133533,-0.19368147427812218
1783696042183699700,3.81869970703125,-0.06344634399414062,-0.17547347128391264,-0.15710158296488225
1783696042193663500,3.82866357421875,-0.09802081376910209,-0.17005729145407675,-0.144640526124835
1783696042203627500,3.83862744140625,-0.0526157379001379,-0.1584960329979658,-0.11601086316369473
1783696042213590500,3.848590576171875,0.09727847096920013,-0.1708265222609043,-0.054457420244067904
1783696042223554600,3.858554443359375,0.2791045261502266,-0.26184359474778174,0.101858711431548
1783696042233518600,3.8685185546875,0.37912089765071866,-0.4339443747282028,0.3396321331534535
1783696042243481000,3.878481201171875,0.4618810139238834,-0.6525029545009136,0.5945884526055306
1783696042253445000,3.888445068359375,0.5633569365829229,-0.8318944760113954,0.7243745970129967
1783696042263409200,3.8984091796875,0.5930787056297063,-0.8115811713010073,0.5990560995388776
1783696042273372200,3.9083720703125,0.422848980218172,-0.6481301462441682,0.31024434530138967
1783696042283336200,3.918336181640625,0.0863999340802431,-0.43662616115808484,0.06629625353254377
1783696042293300200,3.92830029296875,-0.22884616503119468,-0.12909282838106154,-0.048507864189893
1783696042303264300,3.93826416015625,-0.4028220912337303,0.241035199996829,-0.13394742880538105
1783696042313227300,3.948227294921875,-0.42435237051844593,0.4727601353347301,-0.07286730248592793
1783696042323191000,3.95819091796875,-0.40415012496709823,0.5802075336188077,0.19369813315197823
1783696042333155000,3.968155029296875,-0.38997020844519137,0.7506658070892095,0.4585522348273545
1783696042343118000,3.9781181640625,-0.2567711137890816,0.8737889134109019,0.5632639976024627
1783696042353082000,3.98808203125,0.03340717956125736,0.7978548437654972,0.618862112314254
1783696042363046100,3.998046142578125,0.35795068385004997,0.6025923839062451,0.6768156310457736
1783696042373009200,4.008009033203125,0.5002677354633808,0.3837859668523073,0.6556555733129382
1783696042382973200,4.01797314453125,0.4302712391734123,0.18800445155501364,0.5685285670671612
1783696042392937200,4.027937255859375,0.32442776895463465,0.0653816959708929,0.5739529302034527
1783696042402901200,4.0379013671875,0.058415364089608186,-0.12147826172411441,0.5019453132867813
1783696042412864300,4.0478642578125,-0.3368167104065418,-0.18729951815605161,0.4147002336192876
1783696042422828300,4.057828369140625,-0.5774328082084655,-0.05664192467629909,0.43524245171472425
1783696042432792000,4.0677919921875,-0.6880097366899252,-0.005880290210247039,0.569284719196707
1783696042442755300,4.07775537109375,-0.8058984494894742,0.07145897005796432,0.6351549293369054
1783696042452719000,4.087718994140625,-0.8779729210972785,0.25215806703567506,0.6833979320455342
1783696042462683100,4.09768310546875,-0.9490145425260066,0.3171031251549721,0.6779349173992871
1783696042472647200,4.107647216796875,-0.9473638527095317,0.36845921838283535,0.6539589985281229
1783696042482610200,4.117610107421875,-0.88501991699934,0.35259061812162396,0.5632680892556905
1783696042492574200,4.12757421875,-0.7545482014805078,0.2895394109249115,0.5005941178735346
1783696042502538200,4.137538330078125,-0.6637140843451023,0.2701134104430675,0.4676837819185108
1783696042512501200,4.147501220703125,-0.5738438438057899,0.3016717472672462,0.46645358253642916
1783696042522465300,4.15746533203125,-0.3988648780405521,0.27944004171490666,0.5097078370470554
1783696042532429300,4.16742919921875,-0.18616203855872154,0.23811200602650642,0.5805735173869878
1783696042542392300,4.177392333984375,0.062110711476206774,0.19063129292726516,0.6355256623454392
1783696042552356400,4.1873564453125,0.2682201440423727,0.15095102444589137,0.6209032627530395
1783696042562320100,4.197320068359375,0.39063831696510315,0.1591401761204004,0.5804343281120061
1783696042572284200,4.2072841796875,0.43531858569085596,0.18404723836183548,0.5056283857136965
1783696042582247200,4.2172470703125,0.3855547300904989,0.23254735763669013,0.40845615159794685
1783696042592211200,4.227211181640625,0.3624941724985838,0.31951369342803954,0.3439816335998475
1783696042602175200,4.23717529296875,0.3372054174631834,0.3531991054087877,0.3451749350376427
1783696042612138200,4.24713818359375,0.312640300527215,0.4205664222389459,0.3965159037616104
1783696042622102300,4.257102294921875,0.338280353218317,0.46298634481728074,0.3990571126770228
1783696042632066300,4.26706640625,0.3933107510447502,0.44416707805693145,0.4011860875297337
1783696042642029300,4.277029296875,0.45513855392634867,0.41085283747613427,0.414477530779317
1783696042651993300,4.286993408203125,0.4733844047129154,0.332000834557414,0.35583902545832097
1783696042661957400,4.296957275390625,0.4106938475221395,0.23959610710442064,0.2648705413535237
1783696042671921200,4.306921142578125,0.28347616536319253,0.2015571760892868,0.16079378854632376
1783696042681884400,4.316884521484375,0.16373159556388853,0.18478958116173744,0.07783851502723992
1783696042691848200,4.32684814453125,0.10730711303055286,0.1800765811651945,-0.0041861996434628965
1783696042701812200,4.336812255859375,0.09747720841169356,0.15689970371723175,0.002528641694784164
1783696042711775200,4.346775146484375,0.11038812791109084,0.16866671387851237,0.049776495886221524
1783696042721739300,4.3567392578125,0.17078443668484686,0.1547235287219286,0.06407185548134148
1783696042731703300,4.366703369140625,0.2367535771548748,0.09841828865408897,0.10600457906462252
1783696042741667300,4.376667236328125,0.28420681772530076,0.04389467130601406,0.08932422402910888
1783696042751630300,4.38663037109375,0.341771702465415,-0.014362287351489067,0.10611892615929246
1783696042761594400,4.396594482421875,0.41429625592827796,-0.11017594646513461,0.12869856836646795
1783696042771558400,4.406558349609375,0.510045617634058,-0.18169103062450884,0.13426745453998445
1783696042781521400,4.416521484375,0.6156804135382176,-0.22982757728397846,0.14486878192275762
1783696042791485200,4.426485107421875,0.7129290738910437,-0.30264789882302284,0.14529387546703218
1783696042801449200,4.43644921875,0.8021072405129671,-0.3828834650546312,0.18408983539454638
1783696042811412200,4.446412109375,0.828763776770234,-0.3998720092564821,0.160018931716308
1783696042821376300,4.456376220703125,0.7602560577332973,-0.37082536299228663,0.2165139222025871
1783696042831340300,4.46634033203125,0.6782792007923126,-0.3207581405311823,0.28894444070644676
1783696042841304300,4.47630419921875,0.642576603770256,-0.2752519423753023,0.36729872323609886
1783696042851267000,4.48626708984375,0.5473907211661339,-0.23865970303714273,0.3961171137023717
1783696042861231400,4.4962314453125,0.4648784421741962,-0.1788952624261379,0.39310258818678556
1783696042871195400,4.5061953125,0.35639819371104237,-0.18353753527402877,0.3378328286465257
1783696042881158100,4.516158203125,0.23738193818628786,-0.2246487133413553,0.2654026024036109
1783696042891122200,4.5261220703125,0.11983926234543323,-0.2455897945612669,0.20542788004279136
1783696042901086200,4.536086181640625,-0.037809213912487025,-0.26304712531864644,0.17389233957231043
1783696042911050200,4.54605029296875,-0.12676117056310177,-0.25362287889122964,0.17433650314323604
1783696042921013000,4.556012939453125,-0.16302549312114714,-0.24343232426643371,0.2067101749382913
1783696042930977000,4.56597705078125,-0.16787527123987675,-0.24441899721622465,0.2662514743179083
1783696042940941000,4.575941162109375,-0.16758827099204063,-0.2483475688368082,0.31495529947131873
1783696042950904000,4.585904052734375,-0.1860112319111824,-0.297742591124773,0.3349231517449021
1783696042960868000,4.5958681640625,-0.25530337932407854,-0.3195657158762216,0.29772257125005125
1783696042970832100,4.60583203125,-0.36828035468459125,-0.3362234206885099,0.26110512440539896
1783696042980795100,4.615795166015625,-0.5588754072546959,-0.34237843618690966,0.18987594451531767
1783696042990759200,4.62575927734375,-0.7353536716669797,-0.34112463673353194,0.15374847314469514
1783696043000723200,4.63572314453125,-0.8899538662701845,-0.4011930287271738,0.20585253519564867
1783696043010687200,4.645687255859375,-0.9760428347051143,-0.5858382329821586,0.39967648668438194
1783696043020650200,4.655650146484375,-0.9210451701045036,-0.7910492554038763,0.5021863555010407
1783696043030614000,4.665614013671875,-0.8035586083650589,-0.8417571138560771,0.3842896785907447
1783696043040578000,4.675578125,-0.7233832478880882,-0.8180541667073965,0.1815198387760669
1783696043050541000,4.685541015625,-0.7525532282710075,-0.8005196790605783,0.05651340292580426
1783696043060505000,4.695505126953125,-0.7045908691346645,-0.7100695928066969,-0.020644728621840476
1783696043070469000,4.70546923828125,-0.6407821215689182,-0.6244038182199001,-0.1425665693949908
1783696043080432000,4.71543212890625,-0.5524135177642107,-0.41107144866287704,-0.2654384774345904
1783696043090396200,4.725396240234375,-0.43772506231069563,-0.20719781232476234,-0.27481888472028076
1783696043100360200,4.735360107421875,-0.35539340058267116,-0.07973696905970573,-0.2262052951335907
1783696043110324200,4.74532421875,-0.3201519913315773,-0.023182722666859626,-0.21422551900446413
1783696043120287200,4.755287353515625,-0.3088233725875616,0.0357797539114952,-0.2529802701387554
1783696043130251300,4.765251220703125,-0.34561025771498677,0.03870762405693531,-0.2955596210625022
1783696043140215000,4.775215087890625,-0.36432021888196464,-0.012435118681192398,-0.3385941684078425
1783696043150178300,4.78517822265625,-0.3519055584669113,-0.027858897784352302,-0.38705717054270206
1783696043160142000,4.79514208984375,-0.3257534646004438,0.040435470762848855,-0.45138102802373464
1783696043170106000,4.805106201171875,-0.30317104591429234,0.172686470913887,-0.4792644757274538
1783696043180070100,4.815070068359375,-0.30916940954625605,0.3688368195235729,-0.4863170976527035
1783696043190033200,4.825033203125,-0.38046822060644625,0.541004819521308,-0.4845259764522314
1783696043199997200,4.8349970703125,-0.46253743200600145,0.678123717969656,-0.5108157982889563
1783696043209961200,4.844961181640625,-0.5499941816627979,0.8109364436566829,-0.5818033514428883
1783696043219924200,4.85492431640625,-0.5875941367387771,0.9000386224329471,-0.6890953399695455
1783696043229888300,4.86488818359375,-0.5839478891909122,0.9523153376370668,-0.7649133820198476
1783696043239852300,4.874852294921875,-0.5762947440892457,0.9599404256880283,-0.8347699583824724
1783696043249816000,4.884816162109375,-0.5376251139551401,0.8740449339985847,-0.901507014485076
1783696043259779800,4.89477978515625,-0.44622517963051794,0.7740028435349464,-0.9134151136174797
1783696043269743900,4.904743896484375,-0.3358627706825733,0.6721399673849344,-0.8779338311959057
1783696043279708000,4.9147080078125,-0.1738718813061714,0.5613841752052307,-0.8650621477283537
1783696043289671000,4.9246708984375,-0.03410100704431534,0.5063315655469894,-0.8330962530165911
1783696043299635000,4.934635009765625,0.08192775710225104,0.4601987599253654,-0.7752671643823384
1783696043309599000,4.944598876953125,0.18553484657108782,0.39121290198266506,-0.6856710646092892
1783696043319562000,4.95456201171875,0.27827684315443035,0.31509470794200894,-0.6108980746325106
1783696043329526000,4.964526123046875,0.3679389939010143,0.26250936518013473,-0.5761783511679619
1783696043339490000,4.974489990234375,0.45520928107500075,0.21476503270864486,-0.5433468526028097
1783696043349453800,4.984453857421875,0.5464209993511439,0.19889993957877158,-0.5381825286421924
1783696043359417000,4.9944169921875,0.6078367143005132,0.1903553985953331,-0.5746063526108861
1783696043369380900,5.004380859375,0.6400573144257068,0.22297522717118262,-0.6024773792244493
1783696043379345000,5.014344970703125,0.6215764858394861,0.2895306430965662,-0.6427274104177951
1783696043389308000,5.024307861328125,0.5622714794337749,0.37390930048227305,-0.7174277735497802
1783696043399272000,5.03427197265625,0.4243891953974962,0.4710889872521162,-0.7328412504546343
1783696043409236000,5.044236083984375,0.23052257381081578,0.5418313334733248,-0.6994353130023926
1783696043419200000,5.054199951171875,0.08290800031125545,0.6023392859280109,-0.6251135008592158
1783696043429163000,5.0641630859375,0.07476093421280383,0.6206874280452728,-0.5513419430099428
1783696043439127000,5.074126953125,0.12487316485941409,0.5680559080541133,-0.4414086461942643
1783696043449091000,5.084091064453125,0.2512123106181621,0.4765086742132902,-0.34639782789610324
1783696043459054000,5.09405419921875,0.4262152417808771,0.34986791515946386,-0.2890630255848169
1783696043469017900,5.104017822265625,0.6087608434081078,0.18895780675709248,-0.23374314329251647
1783696043478982000,5.11398193359375,0.7341781981468201,0.017985154023766516,-0.17360943097770212
1783696043488946000,5.12394580078125,0.7337211020290851,-0.1303150636523962,-0.0946907194983214
1783696043498909000,5.133908935546875,0.617555559760332,-0.2675099499464035,-0.019037951012328264
1783696043508873000,5.143873046875,0.47267128800749775,-0.3700514560103416,0.04925298346877098
1783696043518837000,5.1538369140625,0.38787528199255467,-0.44183775832653044,0.043614685320854184
1783696043528800000,5.163800048828125,0.30662089410722254,-0.4996598326981067,0.06394932508021593
1783696043538764000,5.173763916015625,0.19526655151247976,-0.5005407071858644,0.04981317463479936
1783696043548728000,5.18372802734375,0.10887246265113353,-0.5129197117656469,0.010005845707654953
1783696043558692000,5.193692138671875,0.01537467926442623,-0.539040825971961,-0.025166809156164524
1783696043568655000,5.203655029296875,-0.06188625507056713,-0.49071255613267417,-0.10649974217042327
1783696043578619000,5.213618896484375,-0.13923194507956504,-0.4750274957448244,-0.13163060323037207
1783696043588583000,5.2235830078125,-0.19480244113206863,-0.43849487763941286,-0.11161277433522045
1783696043598546000,5.2335458984375,-0.2740191857099533,-0.3897679638713598,-0.07289148707911372
1783696043608510000,5.243510009765625,-0.4032055375933647,-0.34209903472363945,-0.005663651784881949
1783696043618474000,5.253473876953125,-0.4755681784927845,-0.2700935366988182,-0.00473163163177669
1783696043628438000,5.26343798828125,-0.4944768771022558,-0.23664076443016527,0.009284911021962761
1783696043638401000,5.273401123046875,-0.4648270042479038,-0.2248579721778631,0.04160122660659253
1783696043648365000,5.283364990234375,-0.37725159664750096,-0.2487345223277807,0.06456913747899234
1783696043658329000,5.2933291015625,-0.2774444839835167,-0.273648598831892,0.06428622888438404
1783696043668292000,5.3032919921875,-0.20055764365792272,-0.28275720343887806,0.021337240930646657
1783696043678256000,5.313256103515625,-0.14269523727595806,-0.3172264592736959,-0.054017494456842535
1783696043688220000,5.323219970703125,-0.07519055780172347,-0.33207389979362484,-0.1260349021151662
1783696043698184000,5.333183837890625,-0.07040683065652847,-0.33747722014188763,-0.2140592955920845
1783696043708147000,5.34314697265625,-0.10641747071444987,-0.33108021258115766,-0.27050518623963
1783696043718111000,5.353111083984375,-0.27396599421799184,-0.33168928439021106,-0.33210765593275426
1783696043728075000,5.363074951171875,-0.3817775496393442,-0.31298692200779915,-0.3621830607227981
1783696043738038000,5.3730380859375,-0.39937691921591756,-0.30868951707482334,-0.3634945086475462
1783696043748002000,5.383001953125,-0.3335048093795776,-0.3345762380033731,-0.3464980734001845
1783696043757966000,5.392966064453125,-0.21419512386620043,-0.43262627786695956,-0.2601522075947374
1783696043767930000,5.40293017578125,-0.029896541091799733,-0.6907868001878261,0.017736513024941086
1783696043777893000,5.41289306640625,0.2045931827843189,-1.0287257926225661,0.34089265460856255
1783696043787857200,5.422857177734375,0.4525193113386631,-1.2197592366099357,0.36909963517822325
1783696043797821000,5.432821044921875,0.4746604159981012,-1.218839199155569,0.13286547878757118
1783696043807784200,5.4427841796875,0.249144272172451,-1.0886480541437864,-0.04253375821635127
1783696043817748000,5.452748046875,0.024308511826395988,-0.9384949020773172,-0.22048764813914895
1783696043827712000,5.4627119140625,-0.23754501979351042,-0.8112526699990034,-0.4689253064122051
1783696043837676000,5.472676025390625,-0.47720483978390693,-0.5178647669523954,-0.7097831040155143
1783696043847639000,5.48263916015625,-0.7588865229457616,-0.2198123792260885,-0.6621384325262158
1783696043857603000,5.49260302734375,-0.9030541708618401,0.04473112213015556,-0.46060945961810645
1783696043867567000,5.502567138671875,-0.7941302702844143,0.23735738826692104,-0.2723362741243094
1783696043877530000,5.512530029296875,-0.5124561859071255,0.36077918527424335,-0.20793372538387775
1783696043887494100,5.522494140625,-0.227476630243659,0.38318566287159916,-0.2486494013275951
1783696043897458200,5.532458251953125,-0.08837269545793533,0.36630583974123,-0.4241528293583542
1783696043907422000,5.542421875,-0.09626958618760108,0.334220264172554,-0.6405979971736669
1783696043917385200,5.55238525390625,-0.16430150440633295,0.32778234007954593,-0.8288041087806224
1783696043927349000,5.562348876953125,-0.2251461414694786,0.33945173508524895,-0.8754467636205255
1783696043937313000,5.57231298828125,-0.20031331350803375,0.38439796127080916,-0.7864957568179816
1783696043947276000,5.582276123046875,-0.24546646044254303,0.4880073888272047,-0.673144175991416
1783696043957240000,5.592239990234375,-0.282600551572442,0.6930541605979204,-0.532331537591666
1783696043967204000,5.6022041015625,-0.22251637748777864,0.836166161981225,-0.36144963188171386
1783696043977168100,5.612168212890625,-0.01736146916747093,0.8549339908152818,-0.14960194792449474
1783696043987131100,5.622131103515625,0.30186697757840153,0.8275164070576428,0.01313844464495778
1783696043997095200,5.63209521484375,0.6602174744009971,0.7787842325925827,0.09589037761166691
1783696044007059200,5.64205908203125,0.8635024971961974,0.6339636737257242,0.2330798570781946
1783696044017022000,5.65202197265625,0.8822574665486812,0.4806523498892784,0.291285962331295
1783696044026986000,5.661986083984375,0.7555150006860494,0.3579074292302131,0.2614619019538164
1783696044036950000,5.671949951171875,0.5433960985720158,0.20607202316522596,0.30150296657159925
1783696044046914000,5.6819140625,0.36720132727622984,0.06584463730752468,0.3613015286479145
1783696044056876800,5.691876708984375,0.2589163091242313,-0.04047346468567848,0.3854224089477211
1783696044066840800,5.7018408203125,0.24240531930625436,-0.14436346274912357,0.4062117336720228
1783696044076805000,5.71180517578125,0.25620178946852684,-0.1635854650914669,0.3672531305287033
1783696044086767900,5.721767822265625,0.26487492526769635,-0.1077758995860815,0.20502024908997118
1783696044096732000,5.73173193359375,0.24365970328152178,-0.024926935985684393,-0.002579568164423108
1783696044106696000,5.741696044921875,0.13406418705284595,0.07759644989967346,-0.21476817451380192
1783696044116660200,5.75166015625,-0.1076712701678276,0.19876959119737148,-0.42257754286564886
1783696044126623000,5.761623046875,-0.41560850757062434,0.3501987545490265,-0.5368734918702394
1783696044136587000,5.7715869140625,-0.6215086813002825,0.5285363830924034,-0.5596601278916001
1783696044146550800,5.78155078125,-0.607762480020523,0.610127455586195,-0.523224321224168
1783696044156514000,5.79151416015625,-0.5146422977745533,0.6186246502965689,-0.42518816375546153
1783696044166477800,5.801477783203125,-0.49850949361920355,0.6362503233581781,-0.32277773672528565
1783696044176441900,5.81144189453125,-0.5056675486803055,0.6573346124410628,-0.35458763715773817
1783696044186406000,5.821406005859375,-0.4228086482077837,0.6043827744543552,-0.41935587740540503
1783696044196369000,5.831368896484375,-0.24918518870472905,0.46074236528277396,-0.38710385922864077
1783696044206333000,5.8413330078125,-0.05780336967110634,0.32079788801968095,-0.3788902307000011
1783696044216297000,5.851296875,0.2141840179502964,0.17245675381124018,-0.36850780676491557
1783696044226260000,5.861260009765625,0.5141320101648569,0.04686579607129097,-0.3180055538874119
1783696044236224000,5.87122412109375,0.7212018121957778,-0.09673018943667411,-0.20213935989141463
1783696044246187800,5.881187744140625,0.7674480150640011,-0.1550929465562105,-0.08441153674200176
1783696044256151600,5.891151611328125,0.7287596802294254,-0.1435463011473417,-0.05425006110370159
1783696044266114800,5.90111474609375,0.6465355705291033,-0.12451952911615372,0.007511763869598507
1783696044276078600,5.91107861328125,0.5301940871715546,-0.05754442647397518,0.07668408429510891
1783696044286042600,5.921042724609375,0.42482349516153334,-0.0067144029468297955,0.1678027905255556
1783696044296005600,5.931005615234375,0.3076449764579534,0.01625087757706642,0.20725443788282572
1783696044305969700,5.9409697265625,0.2503741062283516,0.005353635987639427,0.24544023002274332
1783696044315933700,5.95093359375,0.3132750912994146,-0.0010965630650520324,0.25278956987224516
1783696044325897700,5.960897705078125,0.332058702224493,-0.07576748090684414,0.23995595339275896
1783696044335860700,5.97086083984375,0.30486031417548654,-0.13982874192893505,0.22572781381495297
1783696044345824800,5.98082470703125,0.2753559872716665,-0.1535726051211357,0.2590432234395295
1783696044355788800,5.990788818359375,0.183994046869874,-0.20979367403686044,0.2675530584357679
1783696044365751800,6.000751708984375,0.06701894178390502,-0.2554249598771334,0.2695835413500666
1783696044375715800,6.0107158203125,-0.04776712882518768,-0.22685352990925312,0.2443153176460415
1783696044385679600,6.0206796875,-0.09630231941342353,-0.22065935144424437,0.2378397649563849
1783696044395643600,6.0306435546875,0.0016805004328489302,-0.25560557714104654,0.3048500119771808
1783696044405606700,6.040606689453125,0.16603168919980524,-0.2424386370539665,0.40413777694217856
1783696044415570700,6.05057080078125,0.3242027280271053,-0.2263438268214464,0.45710488556325435
1783696044425534700,6.06053466796875,0.43910102683901786,-0.25386487095355986,0.5100650529868901
1783696044435497700,6.070497802734375,0.4673842875152826,-0.28673487489819527,0.48287587115764613
1783696044445461800,6.080461669921875,0.39307869585454464,-0.3248117998361587,0.41371363373473286
1783696044455425800,6.09042578125,0.3008791355848312,-0.3826268599450588,0.36289975762479004
1783696044465389800,6.100389892578125,0.26278409046828743,-0.4410550835162401,0.31597967408299443
1783696044475352800,6.110352783203125,0.2117301950573921,-0.4935521634727716,0.28680969370007514
1783696044485316900,6.12031689453125,0.10146072508990764,-0.4937888948380947,0.2522617466058582
1783696044495280600,6.13028076171875,-0.0037853637576103208,-0.4398404470294714,0.24503048017807302
1783696044505244000,6.140243896484375,-0.15130641375482082,-0.37461248031556604,0.2185708547323942
1783696044515207700,6.150207763671875,-0.3851017256259918,-0.44211131457090375,0.2722706615421921
1783696044525171700,6.160171630859375,-0.6362000544756651,-0.5875087965428829,0.5160656085759401
1783696044535135700,6.1701357421875,-0.8667255508959293,-0.9444014957726001,0.9451522410746663
1783696044545098800,6.1800986328125,-0.8199263903200625,-1.1232944201111792,1.02965591307953
1783696044555062800,6.190062744140625,-0.8160393197536469,-0.8623772925585508,0.6245828280486166
1783696044565026800,6.20002685546875,-1.0688672488749027,-0.6849637931227683,0.3412505281355232
1783696044574990800,6.209990966796875,-1.2151321613311767,-0.5889823762267827,0.2597472069904208
1783696044584953900,6.219953857421875,-1.0810627135813236,-0.5129390009880066,0.13477847280204294
1783696044594918000,6.22991796875,-0.9040554568588733,-0.33659634565412994,-0.04547850643135607
1783696044604881700,6.239881591796875,-0.8541846337527036,-0.04774667055904865,-0.1704228368308395
1783696044614844700,6.2498447265625,-0.8205296169102192,0.1178968961060047,-0.13468531462587416
1783696044624808700,6.25980859375,-0.5937275249272584,0.21658815648257732,-0.029518063168227672
1783696044634772700,6.269772705078125,-0.27736031283140183,0.25124679740965367,0.05004157656319439
1783696044644736800,6.27973681640625,-0.10021569346487522,0.26276480124592777,0.09269004720039666
1783696044654699800,6.28969970703125,-0.062391866505146026,0.3099906628012657,0.04233041766397655
1783696044664663800,6.299663818359375,-0.0715992553114891,0.3232791834414005,-0.07459675662703812
1783696044674627800,6.3096279296875,-0.10019874233007431,0.3541922080993652,-0.23764226962290702
1783696044684590800,6.3195908203125,-0.26182547456920147,0.5009621474683285,-0.3411081239901483
1783696044694555000,6.329554931640625,-0.5502817664325237,0.7073433827131986,-0.300370309279859
1783696044704519000,6.339518798828125,-0.690820702457428,0.9987047483682632,-0.3135221979282796
1783696044714482700,6.349482666015625,-0.6200748491048812,1.2306623234182597,-0.3803268393743783
1783696044724445700,6.35944580078125,-0.4102764988929033,1.3584288716316222,-0.37571766507849097
1783696044734409700,6.36940966796875,-0.23002222307324408,1.4031442116707562,-0.38757871019877493
1783696044744373800,6.379373779296875,-0.07787468231916427,1.388673787769675,-0.4405860046997666
1783696044754336500,6.38933642578125,0.005613748228549957,1.218393793475628,-0.5131770475275814
1783696044764300800,6.39930078125,0.03472527642250061,0.9292308146476745,-0.5457887658622116
1783696044774264800,6.409264892578125,0.04866144731640815,0.6120382576435804,-0.6129645787082613
1783696044784228900,6.419228759765625,0.05540040018260479,0.31038053890168665,-0.6516205456431955
1783696044794191600,6.429191650390625,0.09944470909237861,0.09883855989277363,-0.6729368168510497
1783696044804156000,6.439156005859375,0.12382219450175762,-0.11997720951139926,-0.5619174052990973
1783696044814120000,6.449119873046875,0.18402911818325518,-0.29245032993555065,-0.47732101350948214
1783696044824082700,6.459082763671875,0.27776246389150616,-0.3994751188933849,-0.5042479642059654
1783696044834046700,6.469046630859375,0.3242471516907215,-0.488467407554388,-0.5357426612094044
1783696044844010800,6.4790107421875,0.3539005316764116,-0.45937867571413515,-0.5498555038444698
1783696044853974800,6.488974853515625,0.3479857546746731,-0.39044542474150656,-0.5449884823299944
1783696044863937500,6.4989375,0.31324294259548185,-0.33033553169369695,-0.503579636490345
1783696044873901600,6.508901611328125,0.3086187899261713,-0.20365502515137193,-0.4615280357677489
1783696044883865600,6.518865478515625,0.2754728916496038,-0.022963526958227155,-0.43187640934772786
1783696044893830000,6.528829833984375,0.23262217643857,0.1174567511230707,-0.3919187852296978
1783696044903792600,6.538792724609375,0.18444179063737393,0.21676994279026984,-0.36462132072038944
1783696044913756700,6.548756591796875,0.14893851557970045,0.24878011503517627,-0.3100589057318866
1783696044923720700,6.558720703125,0.19367431388497353,0.22423428732156753,-0.2457796180449426
1783696044933683700,6.56868359375,0.3798310917466879,0.16814882748425006,-0.18048399292230605
1783696044943647700,6.578647705078125,0.5612053115069866,0.11057809752523898,-0.13522453606911003
1783696044953611500,6.588611572265625,0.7044190196990966,0.03441664886474609,-0.11788505953773855
1783696044963575600,6.598575439453125,0.7980091575443744,-0.07510054143071174,-0.07227715457305312
1783696044973538600,6.60853857421875,0.8074363265812396,-0.19429682969748974,-0.030081323074176904
1783696044983502600,6.618502685546875,0.7340969496041536,-0.2801917368650436,-0.012443667313829064
1783696044993466600,6.628466552734375,0.6472551169753075,-0.361814958062768,0.033558351534977555
1783696045003429600,6.6384296875,0.6087842242836952,-0.43106618894338605,0.08689991949163377
1783696045013393700,6.6483935546875,0.6112813017964362,-0.48203006798326964,0.10448993671797216
1783696045023357700,6.658357666015625,0.6227437760531902,-0.5169663568079471,0.11907156590856612
1783696045033321700,6.66832177734375,0.5679471869826317,-0.5394371318131685,0.06922127413377166
1783696045043284700,6.67828466796875,0.43344577755630015,-0.5405675971478223,-0.016893267133831977
1783696045053248800,6.688248779296875,0.2264046170979738,-0.5086018485665321,-0.1424322024255991
1783696045063212500,6.698212646484375,0.053285015463829036,-0.4682692536562681,-0.23727577439807354
1783696045073176600,6.708176513671875,-0.05840250460803508,-0.40159050361216064,-0.28277568894363936
1783696045083139600,6.7181396484375,-0.08398235154449939,-0.2888572738796472,-0.2838262209098786
1783696045093103600,6.728103515625,-0.050775078469514845,-0.16361352214217184,-0.19941190768890082
1783696045103067600,6.738067626953125,0.030704350343346593,-0.05820844334065914,0.004856646250933409
1783696045113030700,6.74803076171875,0.13898410779833792,0.04735094923973083,0.15556027180701493
1783696045122994700,6.75799462890625,0.20624737973213195,0.10030161818265915,0.2599333041470498
1783696045132958700,6.767958740234375,0.2276478951573372,0.137782915315032,0.3531761629246175
1783696045142922800,6.7779228515625,0.1785819586932659,0.1121457852333784,0.4033743182890117
1783696045152885800,6.7878857421875,0.10811842941343784,0.08058160319030284,0.39867483536116777
1783696045162849800,6.797849853515625,-0.03795768247246742,0.034056583380699154,0.3947377881731838
1783696045172813600,6.8078134765625,-0.19674071571826934,-0.01301145726442337,0.40330037626996634
1783696045182776600,6.817776611328125,-0.3326590062052011,-0.08328209432065486,0.45656288764104247
1783696045192740600,6.82774072265625,-0.4559966320604086,-0.20043430953919886,0.5752171049203724
1783696045202704600,6.83770458984375,-0.5987129121243954,-0.4493856894880533,0.8631240923378616
1783696045212668700,6.847668701171875,-0.592833206436038,-0.8160551018446683,1.2216066911075263
1783696045222631700,6.857631591796875,-0.4037678476512432,-0.9785849204033613,1.102798086984083
1783696045232595700,6.867595703125,-0.40171266868710515,-0.8196388055503367,0.39626660517565904
1783696045242559700,6.877559814453125,-0.7688911996096373,-0.6207780289381742,-0.36435127160735425
1783696045252524000,6.88752392578125,-1.2216706231892107,-0.4753086507737636,-0.7398948222279548
1783696045262488000,6.897488037109375,-1.7884248009949921,-0.37984921192526816,-0.9995614382628351
1783696045272452000,6.9074521484375,-2.2236703214496374,-0.17976386195421218,-0.9910697965104133
1783696045282416000,6.917416015625,-2.248028517636657,0.08467325641810894,-0.755369308605045
1783696045292379100,6.927379150390625,-1.7825369120001793,0.19370704711079598,-0.4087358453221619
1783696045302343200,6.93734326171875,-1.1533844379484652,0.04161445141434669,0.12152509654052555
1783696045312307200,6.94730712890625,-0.3910673560321331,0.09314707025289536,0.5967481879226864
1783696045322271200,6.957271240234375,0.16603227372169493,0.04720540328919887,0.7613791434790939
1783696045332234200,6.967234130859375,0.4916220721930265,-0.12066636081933975,0.6864153801705688
1783696045342198000,6.977197998046875,0.5621230108737946,-0.35281507452726363,0.5804955567799508
1783696045352162000,6.987162109375,0.2949602669298649,-0.48328912813365454,0.5080991597414016
1783696045362125000,6.997125,-0.14718319634497165,-0.373320102417469,0.38820955544821917
1783696045372089000,7.007089111328125,-0.5983154372394085,-0.11709668563902377,0.3387511856004596
1783696045382053000,7.01705322265625,-0.8243091354489326,0.2369792026042938,0.3054519233930856
1783696045392017200,7.02701708984375,-0.8057797915458679,0.7090209605365991,0.2025185684673488
1783696045401980200,7.036980224609375,-0.743176912638545,1.0109826306611298,0.14010967776216565
1783696045411944200,7.046944091796875,-0.6244347978800535,1.2599316725224257,0.10783362112268804
1783696045421908200,7.056908203125,-0.4816092122226953,1.3918191000580786,0.1427366652648896
1783696045431871200,7.066871337890625,-0.2987339402496815,1.4001304168075321,0.20016462575234473
1783696045441835300,7.076835205078125,-0.012916180196404456,1.3220499827831982,0.2690845057867467
1783696045451799000,7.086799072265625,0.3315414003521204,1.2090893740355968,0.37631197770982977
1783696045461763000,7.09676318359375,0.5728706148594618,1.0704454579770564,0.4811532851487398
1783696045471726000,7.10672607421875,0.7096072359919547,1.0070499673873186,0.5729293593093753
1783696045481690000,7.116690185546875,0.7215174540162086,0.8886299241900444,0.6226398042220622
1783696045491654100,7.126654052734375,0.6100064595550299,0.6870218946963548,0.7600955334093421
1783696045501617200,7.1366171875,0.4382674986243248,0.4993523741841316,0.9224638777960091
1783696045511581200,7.146581298828125,0.26969489277005193,0.37649171819090843,1.0242428019896148
1783696045521545200,7.156545166015625,0.20685352893173695,0.3427612980246544,1.0625775010809302
1783696045531509200,7.16650927734375,0.20357377660870551,0.3228577431589365,1.001086967329681
1783696045541472300,7.17647216796875,0.22609482049643992,0.3722019120424986,0.7843325874347239
1783696045551436300,7.186436279296875,0.17880641509890555,0.38201837265789507,0.40985483941473067
1783696045561400000,7.196400146484375,0.04680734388232231,0.4147995292752981,-0.05768814579360187
1783696045571363000,7.206363037109375,-0.088901103246212,0.558451628884673,-0.5120953167054801
1783696045581327000,7.2163271484375,-0.2675689866572618,0.7376490891277789,-0.8219190254420041
1783696045591291100,7.226291015625,-0.5933475856989622,0.8790876043409108,-1.0029553184848279
1783696045601255200,7.236255126953125,-0.8970873714119195,0.994715970993042,-1.0117557339254766
1783696045611218000,7.246218017578125,-1.0574480292379855,1.0597212348669767,-0.8857239736154675
1783696045621182200,7.25618212890625,-1.033103277054429,1.0493652605473995,-0.7067695283479988
1783696045631146200,7.266146240234375,-0.8506096978753804,0.9716092361718416,-0.5781987876122817
1783696045641110300,7.2761103515625,-0.5494347942143678,0.8624708160609006,-0.5256165501229465
1783696045651073000,7.286072998046875,-0.21865970205962657,0.6771393831074237,-0.513246569099836
1783696045661037000,7.296037109375,0.08524024265110493,0.4353472272634506,-0.5055250714696944
1783696045671001000,7.3060009765625,0.3524123389452696,0.1617471437484026,-0.4777186345249414
1783696045680964000,7.315964111328125,0.5716992329925298,-0.011496961048245428,-0.42083738466743376
1783696045690927900,7.325927978515625,0.7139817978143692,-0.14027648569643497,-0.3267085368355736
1783696045700892000,7.335891845703125,0.7673761188715695,-0.1923638158082962,-0.2425716523164883
1783696045710856200,7.345856201171875,0.7988070299237966,-0.16045768845975397,-0.2074271641012281
1783696045720819000,7.35581884765625,0.6984656642526388,-0.17118424965739248,-0.16937544666975735
1783696045730783000,7.365782958984375,0.5505202513635158,-0.0948398456454277,-0.13892207541279494
1783696045740747000,7.3757470703125,0.3290554287552833,0.00046001872718334194,-0.13456245543118567
1783696045750711300,7.385711181640625,0.11277180817723273,0.038591888722777364,-0.17137706881575285
1783696045760674000,7.395674072265625,-0.016363105779886245,0.061117024263739585,-0.22548180316463112
1783696045770638000,7.40563818359375,-0.07812719577550888,0.035468203744292257,-0.28644666907396166
1783696045780601900,7.415601806640625,-0.06709376058578491,0.019113281270861624,-0.38762627566754815
1783696045790565000,7.425565185546875,-0.02324877364039421,0.018581366351246832,-0.4832277533352375
1783696045800529000,7.43552880859375,0.04656593634188175,0.009900631767511367,-0.5472978187182918
1783696045810493000,7.445492919921875,0.10072831916213035,0.043406011006236075,-0.6047317340224981
1783696045820457000,7.45545703125,0.09863339270949363,0.07405892342329025,-0.6358605933882295
1783696045830420000,7.465419921875,0.04512099823057651,0.11597265004515647,-0.6399841030590235
1783696045840384000,7.475384033203125,-0.07645604769289494,0.13817863663434982,-0.6291354498516768
1783696045850348000,7.48534814453125,-0.22237375414669514,0.1437865396440029,-0.5889712337782607
1783696045860311000,7.49531103515625,-0.3240805629521608,0.19354104289412496,-0.520948083387874
1783696045870275000,7.505275146484375,-0.40618776827454567,0.24052841951847076,-0.48010995010826735
1783696045880239000,7.515239013671875,-0.4507183993965387,0.19386369897723196,-0.4230095045421272
1783696045890203000,7.525202880859375,-0.4502618878006935,0.1593763229638338,-0.3713804761243984
1783696045900166100,7.535166259765625,-0.5050386031270027,0.034437107130885124,-0.19180925066545604
1783696045910130000,7.5451298828125,-0.5143775093585252,-0.17251988217532635,0.05670852363910526
1783696045920094000,7.555093994140625,-0.4523971462637186,-0.41976153559684753,0.2223229372749105
1783696045930058000,7.56505810546875,-0.40414895592331884,-0.5358177722722292,0.13929269882347434
1783696045940021000,7.57502099609375,-0.47994507840275763,-0.5625117179304361,-0.12070906744990498
1783696045949985000,7.584985107421875,-0.6436626454412937,-0.5933510928303003,-0.31856921565216034
1783696045959949000,7.594948974609375,-0.7231552843511104,-0.5730366190761328,-0.47988523797430094
1783696045969912000,7.604912109375,-0.8000012081444263,-0.4802104513406753,-0.6092312008662149
1783696045979876000,7.6148759765625,-0.8805109151422977,-0.29107144279778,-0.6821751853175461
1783696045989840100,7.624840087890625,-1.0032733714580535,-0.09759995800852775,-0.6669866762749851
1783696045999804000,7.634803955078125,-0.9842197114199399,0.054957332590222355,-0.6242276579353958
1783696046009767200,7.64476708984375,-0.8973626812219619,0.16274083096086978,-0.6116168538937344
1783696046019731000,7.65473095703125,-0.7024485964089632,0.18943945279419422,-0.6596965923320501
1783696046029695000,7.664695068359375,-0.4662058913856745,0.13212883507609366,-0.7814506022576242
1783696046039659000,7.674658935546875,-0.25241174953579903,0.03969371248483657,-0.9458044944383204
1783696046049622000,7.6846220703125,-0.14169687388837338,-0.07060556809902191,-1.084033692216128
1783696046059586000,7.6945859375,-0.136296476149559,-0.13716624472141264,-1.17371381701082
1783696046069550000,7.704550048828125,-0.2087947261273861,-0.14923194556832312,-1.1816739091698079
1783696046079513000,7.71451318359375,-0.3154290544629097,-0.05111293212175369,-1.1817206709209829
1783696046089477000,7.72447705078125,-0.42815059375762937,0.16856676063537596,-1.2107645407062022
1783696046099441200,7.734441162109375,-0.5399748919516801,0.4030757737338543,-1.2381088400319218
1783696046109405000,7.744405029296875,-0.6350818641006947,0.5797656350702047,-1.314318219487369
1783696046119368200,7.7543681640625,-0.6649591159701347,0.7914560826390982,-1.4439201664343475
1783696046129332000,7.76433203125,-0.6554863542258739,0.9420622391700744,-1.6447843918234109
1783696046139296000,7.7742958984375,-0.6268149710148573,1.0316700293809176,-1.8530118394568562
1783696046149259000,7.784259033203125,-0.47463761964440343,1.1423065790951252,-2.026836374489963
1783696046159223000,7.79422314453125,-0.39040626177489757,1.1208008497297763,-2.1121128574982286
1783696046169187000,7.80418701171875,-0.4567097487658262,1.1265320868581532,-2.135720235317945
1783696046179151000,7.814151123046875,-0.5961667347729206,1.2327572498708963,-2.06705089597851
1783696046189114000,7.824114013671875,-0.7191068857431411,1.2426286555439232,-1.9997149971999226
1783696046199078100,7.834078125,-0.7751292172163724,1.2131570618659258,-1.8982946041204034
1783696046209042200,7.844042236328125,-0.7186486205816268,1.1788298448503016,-1.8182082371011374
1783696046219006000,7.854005859375,-0.5869254436969756,1.0252923110425471,-1.6786679567247629
1783696046228969200,7.86396923828125,-0.3836643862992525,0.8202683356255293,-1.5924685136526822
1783696046238933000,7.87393310546875,-0.20957214024066922,0.6709720926493405,-1.556887643314153
1783696046248895500,7.8838955078125,-0.07001578551232815,0.57662266086936,-1.5680634095840156
1783696046258858500,7.8938583984375,-0.024856208837032316,0.5207014516830444,-1.5845558408319949
1783696046268822500,7.903822509765625,-0.01993044287264347,0.4907990653723478,-1.634343661829829
1783696046278786300,7.913786376953125,-0.04590834921598434,0.5052519536167382,-1.6078825020141898
1783696046288750300,7.923750244140625,-0.0028407763838768003,0.5105243410617113,-1.7672709538072346
1783696046298713300,7.93371337890625,0.011638999867439269,0.48925943471491334,-1.8814090819016098
1783696046308677400,7.943677490234375,-0.027885201269388198,0.5667658682435751,-1.884026424793154
1783696046318641400,7.953641357421875,-0.07161386835873126,0.7009165645360946,-1.9236989483594893
1783696046328605400,7.96360546875,-0.07193243278861046,0.8168430373519658,-1.9761691403090953
1783696046338568400,7.973568359375,-0.04314648328721523,0.8541916480153798,-1.9268442606478928
1783696046348532500,7.983532470703125,0.03743044372797012,0.9778326407313346,-1.7764963166616856
1783696046358496500,7.99349658203125,0.08927753534317016,1.0131354247808455,-1.6759341478466987
1783696046368459500,8.00345947265625,0.17344693389236926,0.9771697929084301,-1.577736370075494
1783696046378423600,8.013423583984375,0.19362638309001923,0.9202660024255513,-1.4196442417033015
1783696046388387300,8.02338720703125,0.058093292528390884,0.8396914134979248,-1.298570761387795
1783696046398351400,8.033351318359376,-0.06875263370871544,0.8534645027846097,-1.2058512688972056
1783696046408314400,8.043314453125,-0.18951193350851533,0.7287433136165141,-1.157531401560083
1783696046418278400,8.0532783203125,-0.2969417961359024,0.6219324596703052,-1.0484479995720088
1783696046428242400,8.063242431640624,-0.3497662083506584,0.5724748935401439,-0.938471959593147
1783696046438206500,8.07320654296875,-0.37142858958244324,0.5211877738952636,-0.8565694099973886
1783696046448169500,8.08316943359375,-0.3833364695191383,0.5646463918715715,-0.8045878052823245
1783696046458133500,8.093133544921875,-0.45109190888404843,0.5801099184632301,-0.7467588627785444
1783696046468097500,8.10309765625,-0.5593617294669151,0.5639157395094633,-0.7459077258419246
1783696046478060500,8.113060546875,-0.6394120022594928,0.5497060123711824,-0.83093469106853
1783696046488024600,8.123024658203125,-0.7371691966563463,0.5229547835677862,-0.9562934474878012
1783696046497988400,8.13298828125,-0.8450906421929597,0.48737347483783955,-1.0588776236496864
1783696046507952400,8.142952392578126,-0.8974041822761297,0.48319911176264285,-1.136892006700486
1783696046517915400,8.152915283203125,-0.9536346035420894,0.4320277274519205,-1.0933728176433593
1783696046527879400,8.16287939453125,-1.0379501325637102,0.3703913554891944,-0.968242828478664
1783696046537843500,8.172843505859374,-1.0985673906117677,0.31243484108299013,-0.8380940613038838
1783696046547807500,8.182807373046876,-1.07676121699512,0.2701546192362904,-0.716128746715188
1783696046557770500,8.1927705078125,-0.9898077406853437,0.1669879670113325,-0.6309290552701801
1783696046567734500,8.202734619140625,-0.7849298957407475,0.14945727875679732,-0.5267048933489248
1783696046577698600,8.212698486328126,-0.5744318728268146,0.055606444148719306,-0.4734939295019954
1783696046587661600,8.22266162109375,-0.4105523932248354,-0.10087298832982777,-0.41157209166139364
1783696046597625600,8.23262548828125,-0.30866262906789776,-0.1881114190608263,-0.28658721005581317
1783696046607589400,8.24258935546875,-0.29174130488336086,-0.22875556413829326,-0.15621183105092495
1783696046617553400,8.252553466796876,-0.17814122918844222,-0.3352946154057979,-0.14373206951040773
1783696046627516400,8.262516357421875,-0.003760813838243484,-0.4549655354470014,-0.023472645524144173
1783696046637480400,8.27248046875,0.1550152051448822,-0.5668968011468648,0.18959018637649713
1783696046647444500,8.282444580078124,0.1643956124305725,-0.5448451283365487,0.1852045186381787
1783696046657408500,8.292408447265625,0.21555647534728048,-0.49495267792046066,-0.023954437691718337
1783696046667371500,8.30237158203125,0.2229460010766983,-0.36571430358886714,-0.2288802134312689
1783696046677335600,8.31233544921875,0.05773731869757175,-0.319283391803503,-0.3074839772099629
1783696046687299600,8.322299560546876,-0.12609306204318999,-0.24779636469483374,-0.36142329186405986
1783696046697262600,8.3322626953125,-0.29078210446238517,-0.03731003221869469,-0.27856358767393974
1783696046707226600,8.3422265625,-0.4411562058031559,0.2484042674601078,-0.22654588873218745
1783696046717190400,8.3521904296875,-0.5394575900793075,0.581566547012329,-0.23803773521389812
1783696046727154400,8.362154541015625,-0.6612152532666922,0.7170359246879816,-0.10713022209368646
1783696046737117400,8.372117431640625,-0.6836638164401054,0.6884843684643507,0.14222020364273338
1783696046747081500,8.38208154296875,-0.5971218435406684,0.7438315771549939,0.26395591072663666
1783696046757045500,8.39204541015625,-0.528436429849267,0.6837351281106472,0.3744877579573542
1783696046767008500,8.402008544921875,-0.2521323480725288,0.49133682551085944,0.35516540051307527
1783696046776972500,8.41197265625,0.042970542198419566,0.19919863026440143,0.4222978126088157
1783696046786936600,8.4219365234375,0.3700023561716079,-0.06484510487616062,0.48812546224892134
1783696046796900600,8.431900634765626,0.5278735352694988,-0.24322248090803622,0.5074273979596793
1783696046806863600,8.441863525390625,0.426828989765048,-0.33631986680030823,0.49254068487528707
1783696046816827600,8.45182763671875,0.23866671729981898,-0.2549345460116863,0.3669641575194895
1783696046826791400,8.46179150390625,0.12764321409463883,-0.23765140277743338,0.2546956957545131
1783696046836755500,8.47175537109375,0.07508125220835209,-0.3107487876921892,0.2403647899219766
1783696046846718500,8.481718505859375,0.07209668343961238,-0.29551030202805995,0.16083156327344475
1783696046856682500,8.4916826171875,0.09834756150543689,-0.09153086722791194,-0.0572914015609771
1783696046866646500,8.501646484375,0.1759685613244772,0.0005249006569385528,-0.2654902076218277
1783696046876609500,8.511609619140625,0.4167383883833885,0.1870651248782873,-0.33011743196360765
1783696046886573600,8.521573486328125,0.6537725360453128,0.4470727363705635,-0.38241778377164154
1783696046896537600,8.53153759765625,0.8149737363487481,0.6641425388902426,-0.32669947674628347
1783696046906501600,8.541501708984375,0.8108657165080309,0.7826689650714397,-0.30607257604207844
1783696046916464600,8.551464599609375,0.6765005006819963,0.9897294147521257,-0.2473336425539106
1783696046926428700,8.5614287109375,0.43305297884643074,1.1313356877475975,-0.1441260737966746
1783696046936392400,8.571392333984376,0.13617781820595265,1.1761439667671918,-0.04886120767220854
1783696046946355500,8.58135546875,-0.15284662893414497,1.1963117255270481,0.05291559762954712
1783696046956319500,8.591319580078125,-0.27015081984400746,1.1154390304356814,0.022014994061738253
1783696046966283500,8.601283447265626,-0.2581120070040226,0.9699369190454482,0.1106059353802353
1783696046976247600,8.61124755859375,-0.26043548151552676,0.7795125468671321,0.14231171785108745
1783696046986210300,8.621210205078125,-0.3089934684574604,0.5982873801887035,0.04539751361701637
1783696046996174600,8.631174560546874,-0.38296529811918734,0.4517676161885261,-0.05249550905395299
1783696047006138600,8.641138671875,-0.46481882094144816,0.25814766283929347,-0.16824943831451236
1783696047016102700,8.6511025390625,-0.44670039592683314,0.09295359350740909,-0.29476196787878867
1783696047026065400,8.6610654296875,-0.3594400456249714,-0.10701952826082706,-0.3894793561883271
1783696047036029700,8.67102978515625,-0.2754313905954361,-0.22190146045982836,-0.45099005594477054
1783696047045993500,8.680993408203125,-0.296371887293458,-0.26993513126671315,-0.5673520706336945
1783696047055956500,8.69095654296875,-0.33919103832244873,-0.1907949590563774,-0.7139785829439759
1783696047065920300,8.700920166015624,-0.41644671196043487,-0.0647282004982233,-0.8863095914836973
1783696047075884300,8.71088427734375,-0.5012240132749081,-0.010742343288660049,-0.9611017976175993
1783696047085848600,8.7208486328125,-0.5876379758805036,0.10958616387844085,-1.1120268108393996
1783696047095811300,8.730811279296875,-0.6750163996040821,0.2555933021813631,-1.148547227050364
1783696047105775400,8.740775390625,-0.6845090350925922,0.3563987782329321,-1.1727447527829558
1783696047115739400,8.750739501953126,-0.6787497409135103,0.4448234961390495,-1.157004235880822
1783696047125703700,8.76070361328125,-0.5173737685650587,0.5740858358681201,-1.1331373303420842
1783696047135666400,8.77066650390625,-0.4526660263329744,0.6623813744366168,-1.0930199856176972
1783696047145630500,8.78063037109375,-0.4538146118462085,0.6677689126938581,-0.9851813960589468
1783696047155594200,8.79059423828125,-0.4462532366812229,0.6479951216876506,-0.8864507535200565
1783696047165558500,8.80055859375,-0.32620237741172314,0.6085322953492402,-0.8424608782112598
1783696047175521300,8.810521240234374,-0.1540478214174509,0.4440905056893825,-0.727798872373253
1783696047185485300,8.8204853515625,0.014903554621338843,0.2327227142035961,-0.6942652168881148
1783696047195449300,8.830449462890625,0.19420096810758114,0.13789514351785181,-0.7169532148405909
1783696047205412400,8.840412353515624,0.31674598228037354,0.04190437427163124,-0.713383904986456
1783696047215376400,8.85037646484375,0.448183327960968,0.05292319641411304,-0.6773676389053463
1783696047225340400,8.86034033203125,0.4952086985081434,0.032575989434123036,-0.5945292697641998
1783696047235304400,8.870304443359375,0.4026870666772127,0.0448556252926588,-0.4817985973149538
1783696047245267500,8.880267333984374,0.2507598906755447,0.12579027970433235,-0.4233673050038516
1783696047255231000,8.89023095703125,0.05464519790112972,0.19259967039078474,-0.4446978239327669
1783696047265195000,8.900195068359375,-0.07077975562214851,0.27844372415393587,-0.5266071685954928
1783696047275158800,8.91015869140625,-0.1947469115525484,0.3208385122910142,-0.6327230260148644
1783696047285121800,8.920121826171876,-0.28378187031149865,0.3502531150847673,-0.7350649909187108
1783696047295085800,8.9300859375,-0.4772305587470531,0.429704837462306,-0.7845202920265495
1783696047305049900,8.9400498046875,-0.7026514255046844,0.5677306216225028,-0.8831497392132878
1783696047315012900,8.950012939453124,-0.9560919335663318,0.6829878168746829,-0.8079384308844805
1783696047324977000,8.959976806640626,-1.0128507626205683,0.8579553844630717,-0.7483649828009307
1783696047334941000,8.96994091796875,-1.1484107411891222,0.8902665854811668,-0.55028048779089
1783696047344905000,8.979905029296875,-1.231565994259715,0.8818395333975553,-0.4464949730152264
1783696047354868000,8.989867919921876,-1.2196218739658593,0.8643895091637969,-0.3223071600714698
1783696047364832000,8.99983203125,-1.166516306722164,0.7764829699128866,-0.10465926540289074
1783696047374796000,9.009796142578125,-1.0717132859557867,0.6655109046339989,-0.013730784514918923
1783696047384759800,9.019759765625,-0.9553951834738253,0.6080220077395438,-0.006868351399526
1783696047394722800,9.029722900390626,-0.9584498948693275,0.5491726361468434,-0.012776150671206413
1783696047404686800,9.039686767578125,-0.9661807813823222,0.4974515089988708,-0.014321699612773953
1783696047414651000,9.04965087890625,-0.9215297387510537,0.4590259167537093,-0.0002883519547060132
1783696047424614000,9.05961376953125,-0.7513672333568334,0.4337964906901121,-0.009107143302261828
1783696047434578000,9.069577880859375,-0.5189759430646896,0.52538142619282,-0.14235891799367964
1783696047444542000,9.0795419921875,-0.3702957861602306,0.6520984653532504,-0.3110363359292969
1783696047454506000,9.089506103515625,-0.3901046484798193,0.7683771126076578,-0.44609895943496375
1783696047464469000,9.099468994140626,-0.5151344652056694,0.8236828202441334,-0.5786487964021042
1783696047474433000,9.10943310546875,-0.6898714389085769,0.841017109143734,-0.6719040397372097
1783696047484397000,9.11939697265625,-0.8089876476764678,0.9016194618836044,-0.7443135154530406
1783696047494360800,9.12936083984375,-0.7558183675467968,0.9292927739679813,-0.7455153655234724
1783696047504323800,9.13932373046875,-0.5758166051834821,0.9131842274710535,-0.6876665492754429
1783696047514287900,9.149287841796875,-0.38043431833684443,0.8700655089735985,-0.5780120694011449
1783696047524252000,9.159251953125,-0.2344920619636774,0.7094622745633125,-0.4313941787887364
1783696047534215000,9.16921484375,-0.09086685036122798,0.599539718337357,-0.3155697050426155
1783696047544179000,9.179178955078125,0.03370294763743877,0.5194760015413165,-0.2341639259878546
1783696047554143000,9.18914306640625,0.140492758795619,0.3623348902836442,-0.19431597278937696
1783696047564107000,9.19910693359375,0.19090718725919723,0.1499628901913762,-0.26399646193273363
1783696047574070000,9.209070068359376,0.19041560434997082,0.0686255001977086,-0.4709176492732018
1783696047584034000,9.219033935546875,0.1353390292942524,0.04022591966539621,-0.6699592623449862
1783696047593998000,9.228998046875,-0.02182838544845581,0.13748743949979542,-0.8801573524642735
1783696047603961900,9.2389619140625,-0.24339491486549375,0.3178270555153489,-1.0337930128842592
1783696047613924900,9.2489248046875,-0.49250353120267387,0.5548261318638921,-1.1855335802726448
1783696047623889000,9.258888916015625,-0.7376081725955009,0.7728349687993527,-1.305521895699948
1783696047633853000,9.26885302734375,-0.953887116998434,0.9946899597689509,-1.419925104471296
1783696047643816000,9.27881591796875,-1.0070616578251124,1.1344427138522266,-1.5195871095761655
1783696047653780000,9.288780029296875,-0.9385060079932213,1.269293082846701,-1.5250836611658334
1783696047663744000,9.298743896484375,-0.8878045792818069,1.3008514196708798,-1.4777325657956302
1783696047673708000,9.3087080078125,-0.878037218505144,1.2917372621059418,-1.3929234080381692
1783696047683671000,9.318671142578125,-0.7196247721374035,1.2008984687954187,-1.1976806027274578
1783696047693635000,9.328635009765625,-0.6634042877435684,0.9769503049388527,-1.2046565061546861
1783696047703599000,9.33859912109375,-0.6283575242817402,0.8203703346952795,-1.2822108704783022
1783696047713563000,9.34856298828125,-0.4670364969909191,0.7118219894319773,-1.312979810490459
1783696047723526000,9.35852587890625,-0.3372130162477493,0.657686786879599,-1.156226894832775
