time,seconds_elapsed,z,y,x
1783696048771647200,0.057647216796875,-1.2719979578912257,0.5912666877716779,-0.2811921826118603
1783696048781611500,0.067611572265625,-1.0923118373483418,0.5970756663113832,-0.16500629167482256
1783696048791574300,0.07757421875,-0.8883645512521267,0.5844415179267526,0.028143194618448615
1783696048801538300,0.087538330078125,-0.6301771409243345,0.48642976424694057,0.2837972870763391
1783696048811502300,0.09750244140625,-0.38892099165320393,0.33855332494080065,0.4585903018154204
1783696048821466400,0.10746630859375,-0.22309739224612712,0.19176789574176073,0.46484030212089417
1783696048831429000,0.11742919921875,-0.21591186465620993,0.0011386486411094664,0.37191535018607974
1783696048841393200,0.12739306640625,-0.24969080013930797,-0.0746709178417921,0.30736966664791104
1783696048851357200,0.137357177734375,-0.340490430483222,-0.1215653554856777,0.23202311456687746
1783696048861320200,0.1473203125,-0.4384972157269716,-0.10759060614705085,0.12144340960644184
1783696048871284200,0.1572841796875,-0.5568985542237759,-0.005728314518928528,-0.00738594553284347
1783696048881248300,0.167248291015625,-0.5902244852423667,0.1377402452170849,-0.06898483502939343
1783696048891212300,0.17721240234375,-0.4981657947480678,0.25561317592561245,-0.05109999957494438
1783696048901175300,0.18717529296875,-0.3115601040750742,0.33283260920643803,0.08865575018301605
1783696048911139300,0.197139404296875,-0.10688859535753727,0.34091011720001696,0.24490283521041273
1783696048921103400,0.207103271484375,0.04127952037155628,0.31533553096055983,0.32918789602853354
1783696048931067100,0.217067138671875,0.17547814745903015,0.23804361696541307,0.3705737993840128
1783696048941030100,0.227030029296875,0.3308440657377243,0.08418342707455158,0.4066518055897206
1783696048950994200,0.236994140625,0.47015258318483827,-0.12464052514731883,0.4372280725739896
1783696048960958200,0.246958251953125,0.5218897846847772,-0.2738455827087164,0.4597223015200346
1783696048970922200,0.256922119140625,0.4891133042424917,-0.3543061898678541,0.42730164877809584
1783696048980885200,0.26688525390625,0.41864860591888425,-0.3304471753746271,0.3608613836649805
1783696048990849300,0.276849365234375,0.2785246804356575,-0.2557148827344179,0.29158012297227975
1783696049000813300,0.286813232421875,0.07950783647894859,-0.09823767139017581,0.20164865376502275
1783696049010776300,0.2967763671875,-0.0996411084473133,0.11014496680498123,0.10580920262299477
1783696049020740400,0.306740234375,-0.19082769228219984,0.35752865904569625,0.013028773725405335
1783696049030704400,0.316704345703125,-0.20256489182710646,0.5687953282445669,-0.08977752075456082
1783696049040668200,0.326668212890625,-0.30266075830459593,0.6388175434976816,-0.1681963198877871
1783696049050631200,0.336631103515625,-0.45850247740149497,0.7362713710337877,-0.318053046290949
1783696049060595200,0.34659521484375,-0.6319961730450392,0.8009989870101213,-0.4538319283071905
1783696049070559200,0.356559326171875,-0.6355377911746501,0.8243518055468797,-0.5604739284925162
1783696049080523300,0.366523193359375,-0.4419102390408516,0.7470610605955124,-0.5761232599798589
1783696049090486300,0.376486328125,-0.16840134094059467,0.5773533132314682,-0.5075906987626105
1783696049100450300,0.3864501953125,0.08419920916557312,0.3852285668760538,-0.4861234017115086
1783696049110414300,0.396414306640625,0.20556290459930895,0.26231355034708975,-0.4752354394070804
1783696049120377300,0.40637744140625,0.15491232929229734,0.17180559642612933,-0.43680509792156513
1783696049130341400,0.41634130859375,0.11006254921853542,0.09813187292814254,-0.3560517914261669
1783696049140305400,0.426305419921875,0.11546820765435695,0.01686345651745796,-0.23610380800925193
1783696049150269200,0.436269287109375,0.14210019399225712,-0.05375263297557831,-0.1640507445156574
1783696049160232200,0.446232177734375,0.2068985371172428,-0.047100189349055285,-0.20041070946790276
1783696049170196200,0.4561962890625,0.34035657497048377,-0.07253449033498764,-0.24788608880490062
1783696049180160300,0.46616015625,0.488515922871232,-0.11078151114284991,-0.26534816880263384
1783696049190124300,0.476124267578125,0.5795663131058216,-0.19909341632425784,-0.24186222540549931
1783696049200087300,0.48608740234375,0.6952391034215688,-0.20547873344719408,-0.3391471991807222
1783696049210051300,0.49605126953125,0.8079448606252669,-0.20784312449097633,-0.47015594418570394
1783696049220015400,0.506015380859375,0.9005915801405906,-0.26864918310940267,-0.3556873420279473
1783696049229978400,0.515978271484375,0.83638068151474,-0.31531156556308265,-0.3308130130123347
1783696049239942400,0.5259423828125,0.7521054845035076,-0.3161024236798286,-0.3883157192364335
1783696049249906000,0.535906005859375,0.7104413487285375,-0.36457331686019895,-0.3035018853038549
1783696049259869700,0.54586962890625,0.633382074445486,-0.37409459392130373,-0.2301520599979907
1783696049269833000,0.5558330078125,0.5599035812586546,-0.40248365305960176,-0.23163608801066873
1783696049279796700,0.565796630859375,0.5797112745344638,-0.49616146918833254,-0.17420958882793783
1783696049289760800,0.5757607421875,0.6451011538118123,-0.5654506939917803,-0.09061470223106444
1783696049299724800,0.585724853515625,0.7140496023535728,-0.6106716454654931,-0.05328991083465516
1783696049309687800,0.595687744140625,0.729924047833681,-0.6505284395575524,-0.05489245066046714
1783696049319651800,0.60565185546875,0.6835808143317699,-0.7225812838554382,-0.06971782547906041
1783696049329616000,0.615615966796875,0.5817781439363956,-0.7899602911233902,-0.0849538269251585
1783696049339579000,0.625578857421875,0.5275087936103343,-0.8572492820203303,-0.1672740904763341
1783696049349543000,0.63554296875,0.5096422975301742,-0.9068278441816567,-0.19776713615655897
1783696049359507000,0.6455068359375,0.47173546846210956,-0.9193564863651991,-0.1979588593363762
1783696049369470700,0.655470703125,0.3810276080548763,-0.918856720149517,-0.21310089888870715
1783696049379434000,0.66543408203125,0.29422961456775665,-0.871520968478918,-0.19341990073248744
1783696049389397800,0.675397705078125,0.20380758536458013,-0.7830062342017888,-0.1363524441204965
1783696049399361800,0.68536181640625,0.16556991690695286,-0.6661486180156468,-0.04716178334318101
1783696049409325800,0.695325927734375,0.15155600460171698,-0.5376157616049051,0.02743190454393625
1783696049419288800,0.705288818359375,0.11091945830881594,-0.40260990978777406,0.04140007801130414
1783696049429252900,0.7152529296875,0.08275602461993693,-0.3353963222146034,0.04995272923596203
1783696049439217000,0.725216796875,0.08681611366569995,-0.2888198644787073,0.070629168170318
1783696049449180000,0.735179931640625,0.19445348156392572,-0.23976035775542257,0.008925503125041723
1783696049459144000,0.74514404296875,0.3667605977714061,-0.3016986352741718,-0.07004428095445037
1783696049469108000,0.75510791015625,0.4261503598511219,-0.3888192848443985,-0.09086239338181912
1783696049479071700,0.76507177734375,0.33686814833283424,-0.4089858745604753,-0.12368095940016209
1783696049489035000,0.775034912109375,0.16113631837368012,-0.4213263006955385,-0.14628997383229433
1783696049498998800,0.784998779296875,-0.02457330024242401,-0.46366965090632434,-0.14500665602348745
1783696049508962800,0.794962890625,-0.14775076709985732,-0.528630491116643,-0.11464980394355952
1783696049518925800,0.80492578125,-0.19315759653449058,-0.6100631581783295,-0.10164638385511934
1783696049528889900,0.814889892578125,-0.14945289484262467,-0.7647913630753755,-0.03976159008927643
1783696049538854000,0.82485400390625,-0.03605331015586853,-1.004314989465475,0.15662760877758264
1783696049548818000,0.83481787109375,0.14010405173897741,-1.2509914102196693,0.37019196045957503
1783696049558781000,0.844781005859375,0.30135844353437424,-1.2988316042810677,0.42777335794307286
1783696049568745000,0.854744873046875,0.287705181235075,-1.1915928803116083,0.3530776709862053
1783696049578709000,0.864708984375,-0.08917349044680595,-1.19524497307837,0.12292130013927817
1783696049588672800,0.8746728515625,-0.5622814163058996,-1.0284849696040153,-0.15385350442174822
1783696049598636000,0.884635986328125,-0.9907190103113651,-0.8633096049726009,-0.32365912266969676
1783696049608599800,0.894599853515625,-1.1670230872005223,-0.5754045172512531,-0.22730054302439093
1783696049618563800,0.904563720703125,-1.1973527590125799,-0.29238310991823674,0.016448372910544275
1783696049628526800,0.91452685546875,-1.1384914047211407,-0.03631225335299969,0.28217754038739945
1783696049638491000,0.924490966796875,-0.9154092100441455,0.22585224391221997,0.5254369192397221
1783696049648455000,0.934454833984375,-0.5846808796405792,0.33050095138847824,0.7477056421093642
1783696049658419000,0.9444189453125,-0.30239713893234726,0.24950375313460826,0.8161177918173372
1783696049668382000,0.9543818359375,-0.09235036691725254,0.06821428904831409,0.6864323313053697
1783696049678346000,0.964345947265625,-0.005795534536242485,-0.14447393738627434,0.502849422519654
1783696049688310000,0.97431005859375,0.01854921764731407,-0.3184393421947956,0.352555619873479
1783696049698273000,0.98427294921875,-0.03899053265154361,-0.37758302055895326,0.1713652322474867
1783696049708237000,0.994237060546875,-0.11657236950397491,-0.26834815433621406,0.07467493642978369
1783696049718200800,1.004200927734375,-0.17030512873530387,-0.04291384357511997,0.07230521162375807
1783696049728164900,1.014164794921875,-0.18569208295941353,0.24712942521870135,0.21199827140904962
1783696049738128000,1.0241279296875,-0.08416179976463317,0.5495581283330917,0.4154609157934785
1783696049748092000,1.034091796875,0.024781390035152433,0.7590472664654254,0.5325715568926185
1783696049758056000,1.044055908203125,0.1224894845932722,0.8313795122265816,0.5601103558771312
1783696049768018700,1.054018798828125,0.19700491961240768,0.8521709558427333,0.5287137124206871
1783696049777983000,1.06398291015625,0.2387520574957132,0.7568751831233501,0.49924708717875177
1783696049787947000,1.073947021484375,0.3045721448838711,0.6151765556693076,0.5066982069022953
1783696049797911000,1.0839111328125,0.35627602863609786,0.4720639697641134,0.5022550368230789
1783696049807873800,1.093873779296875,0.3359662310570478,0.3698129710793495,0.49500667313002045
1783696049817837800,1.103837890625,0.2603992411583662,0.2550087802916765,0.5523183137614279
1783696049827801900,1.1138017578125,0.15920330448448658,0.1558206763088703,0.689619509974122
1783696049837764900,1.123764892578125,0.088861940279603,0.09553834930360317,0.7778183832351118
1783696049847728600,1.133728759765625,0.051100657162070275,0.04917874918878078,0.8503983932122587
1783696049857692700,1.143692626953125,-0.03328559900820255,0.02728431276679039,0.8892838580541312
1783696049867657000,1.153656982421875,-0.10091945782005786,0.031767011138796805,0.8013350870966911
1783696049877619700,1.16361962890625,-0.19514614000320432,0.05618482855856418,0.675631901153922
1783696049887583700,1.173583740234375,-0.29526071118116376,0.09342588719427584,0.5432102206110954
1783696049897547800,1.1835478515625,-0.36032559628784655,0.17756956678032873,0.38951387951243666
1783696049907512000,1.193511962890625,-0.44140638117194175,0.28017829286158086,0.26991631696838886
1783696049917474800,1.203474853515625,-0.4516390213727951,0.41215222963690756,0.19373422737866638
1783696049927438800,1.21343896484375,-0.4138572799891233,0.5386655629187822,0.16312690766900778
1783696049937402600,1.223402587890625,-0.36960078963339327,0.6417027435451745,0.16515483330003916
1783696049947366000,1.233365966796875,-0.29865912144780155,0.6945756710767745,0.17384587008208036
1783696049957329700,1.24332958984375,-0.19135142389535903,0.7223620881468057,0.19364603763855992
1783696049967293700,1.253293701171875,-0.07260112583041191,0.7335363931119442,0.20269114855527876
1783696049977257700,1.2632578125,0.05669628521203995,0.7027309204816817,0.22251908090151845
1783696049987220700,1.273220703125,0.15079203449189663,0.6563450168818235,0.22837854751944542
1783696049997184800,1.283184814453125,0.22301439013779162,0.5633206962257623,0.212212937073037
1783696050007148800,1.293148681640625,0.3338146059811115,0.455177132371068,0.25173224283903833
1783696050017111800,1.30311181640625,0.4565653718590736,0.43246378078162667,0.2895139111574739
1783696050027075800,1.313075927734375,0.5437684390157461,0.383532868874073,0.29748657053709027
1783696050037039900,1.323039794921875,0.5617611918240786,0.3521235851317644,0.2967089372280985
1783696050047003600,1.333003662109375,0.5616325970083474,0.36311376570165155,0.2740888168800622
1783696050056966700,1.342966552734375,0.47515959769189353,0.3475935404866934,0.24342940165698526
1783696050066930700,1.3529306640625,0.3474094160914421,0.26383096917271615,0.17194741604961453
1783696050076894700,1.362894775390625,0.21255729353129862,0.22004852606952188,0.11356675794720648
1783696050086857700,1.372857666015625,0.13904548259675503,0.20163900915384292,0.03657214639820158
1783696050096821800,1.38282177734375,0.11397066257297991,0.17976561551988124,0.005376505406573415
1783696050106785800,1.392785888671875,0.04105681753158569,0.16861235334277153,-0.0024364333666861055
1783696050116749800,1.402749755859375,-0.09922434433996677,0.20874036559164522,-0.03913564021065831
1783696050126712800,1.412712890625,-0.2844844656229019,0.2779284681081772,-0.07934745828546583
1783696050136676900,1.4226767578125,-0.3991758436858654,0.3447819901973009,-0.09888481018729507
1783696050146641000,1.432640869140625,-0.46256139740347857,0.382397142842412,-0.04853402154445648
1783696050156604000,1.44260400390625,-0.4717617719471454,0.4092582617610693,-0.027122181007638572
1783696050166567700,1.452567626953125,-0.48477498277723785,0.38310909050405023,-0.04162511893883347
1783696050176531700,1.46253173828125,-0.48340486346781253,0.29780162783563136,-0.07507906025126576
1783696050186495700,1.472495849609375,-0.47999417824149126,0.2385568271845579,-0.12940072528645397
1783696050196458800,1.482458740234375,-0.5026221896350384,0.16556640977561474,-0.1456152894411236
1783696050206422800,1.4924228515625,-0.4444622616112232,0.10649228951632976,-0.1532762525230646
1783696050216386800,1.50238671875,-0.3065910834908485,0.08984802870750427,-0.12492270308956503
1783696050226349800,1.512349853515625,-0.14938625934720037,-0.00037292496562004086,-0.06390344011187553
1783696050236313900,1.52231396484375,-0.06517886687517166,-0.1220581074386835,0.011637538562715053
1783696050246278000,1.53227783203125,-0.11092881065905094,-0.29709084921777246,0.12193141231909393
1783696050256240600,1.54224072265625,-0.23381986179053782,-0.5329992077201604,0.2511292354445904
1783696050266204700,1.55220458984375,-0.2760200041383505,-0.7249269701987504,0.2846830569349229
1783696050276168700,1.562168701171875,-0.2856295440047979,-0.8239204283922911,0.15199673410654066
1783696050286132500,1.572132568359375,-0.3240203571975231,-0.8383785773336887,-0.07715060582831501
1783696050296095500,1.582095458984375,-0.41361996410191054,-0.7895663233697414,-0.23106252590641377
1783696050306059500,1.5920595703125,-0.4886766663908958,-0.7136497893810272,-0.33281931133344766
1783696050316023600,1.6020234375,-0.5090852481693029,-0.5824310548871755,-0.3744892923273146
1783696050325986600,1.611986572265625,-0.5153343716919422,-0.4204717296928167,-0.3684745620824396
1783696050335950600,1.62195068359375,-0.49049979016482825,-0.2776625106483698,-0.3089411537483334
1783696050345914600,1.63191455078125,-0.42456221387684345,-0.13835516224503516,-0.21107757636755703
1783696050355878700,1.641878662109375,-0.3329693873286247,-0.016664719074964522,-0.12715331168584526
1783696050365841700,1.651841552734375,-0.20529986974894998,0.16851181557774542,-0.11472951811626553
1783696050375805700,1.6618056640625,-0.1683604244083166,0.2836784099370241,-0.15192396113127468
1783696050385769700,1.671769775390625,-0.21626374683380126,0.3376677742779255,-0.18784100462161005
1783696050395732700,1.681732666015625,-0.340197585016489,0.4475900382429361,-0.23382504942230878
1783696050405696500,1.691696533203125,-0.47956513917446136,0.5580798729628325,-0.3067081339992583
1783696050415660500,1.70166064453125,-0.5046206699758767,0.7006815867364407,-0.3642467883195728
1783696050425624600,1.71162451171875,-0.42154140475094315,0.8163660674899816,-0.3730979110341519
1783696050435587600,1.721587646484375,-0.2936404165029526,0.9275959069222212,-0.339710312956199
1783696050445551600,1.731551513671875,-0.23976386488676069,0.971651321747899,-0.2834719275794923
1783696050455515600,1.741515625,-0.27132921597361565,0.9340729939818382,-0.20432832130305467
1783696050465478700,1.751478759765625,-0.25257424662113187,0.8194453288048505,-0.10268595603592694
1783696050475442700,1.761442626953125,-0.1654892528861761,0.6225479612201452,-0.029526465670391914
1783696050485406700,1.77140673828125,-0.036117607563734055,0.36635084792673583,0.05330306257717311
1783696050495370800,1.781370849609375,0.16037234826385974,0.08002630739510058,0.09024484600536525
1783696050505333800,1.791333740234375,0.32122400447726246,-0.19403554841279982,0.10899762340076267
1783696050515297500,1.801297607421875,0.29821605385541916,-0.3830108908265829,0.13241634678058326
1783696050525261600,1.811261474609375,0.18813246184885501,-0.43564182629585263,0.11757833167612552
1783696050535224600,1.821224609375,0.03610182547271251,-0.402666023889184,0.09856639188788831
1783696050545188600,1.831188720703125,-0.039648704299330706,-0.3475859417021274,0.1811512246593833
1783696050555152600,1.841152587890625,-0.007219429859519004,-0.2459071899473667,0.28191476126536724
1783696050565116700,1.85111669921875,0.16389409264922142,-0.15659750590026378,0.4375327546089887
1783696050575079700,1.86107958984375,0.4125818532258272,-0.07384031223654747,0.5182809465378523
1783696050585043700,1.871043701171875,0.6103793845206499,0.016890344524383545,0.5571912535600364
1783696050595007700,1.8810078125,0.653240621125698,0.06316460444331169,0.5241260193042456
1783696050604970800,1.890970703125,0.4665864151358604,0.11410919426083564,0.47981757956556975
1783696050614934800,1.900934814453125,0.1301841307491064,0.15335633202195167,0.3748020115382969
1783696050624898600,1.910898681640625,-0.18409341559112072,0.20618951206505298,0.32465178696885705
1783696050634862600,1.920862548828125,-0.3486462644100189,0.22621230939626694,0.39739875101074573
1783696050644825600,1.93082568359375,-0.28637247132658955,0.21298691712021828,0.548619020852074
1783696050654789600,1.94078955078125,-0.06509995642006397,0.17610066327154636,0.7188277034755796
1783696050664753700,1.950753662109375,0.2840928359568119,0.16676877130270004,0.9148591749459505
1783696050674716400,1.96071630859375,0.6082575700610876,0.11048925019800662,1.0473961524315178
1783696050684680700,1.9706806640625,0.8621504980653524,0.03846797008216381,1.0928793350379913
1783696050694644700,1.980644775390625,0.9476794945299625,-0.0635123949676752,1.088019254720956
1783696050704607500,1.990607421875,0.8808984531551599,-0.18431027321219443,0.9661865535359829
1783696050714571500,2.000571533203125,0.6359826123327016,-0.2798001071989536,0.8082786956895143
1783696050724535600,2.01053564453125,0.3984866923779249,-0.34733576633334157,0.6186326144073158
1783696050734499600,2.02049951171875,0.30344810929000376,-0.3298416106969118,0.3830346370283514
1783696050744462600,2.030462646484375,0.20212182423472402,-0.3663789049774408,0.3928847807176411
1783696050754426400,2.04042626953125,0.1419219148159027,-0.3384428503036499,0.3616563334349543
1783696050764390400,2.050390380859375,0.07863339173197746,-0.24415830045342443,0.47144262299537654
1783696050774353400,2.060353515625,0.01549625981748104,-0.07104454403817653,0.6286239931982011
1783696050784317400,2.0703173828125,0.013349310916662216,0.14548808286488055,0.743833330720663
1783696050794281500,2.080281494140625,0.041492870861291886,0.3284557092964649,0.7872060970444231
1783696050804245500,2.09024560546875,0.06929331645667552,0.4509726664185524,0.8180776206482201
1783696050814208500,2.10020849609375,0.02819090621769428,0.5340197829395532,0.8034643542103469
1783696050824172500,2.110172607421875,-0.09004968875944613,0.4972159466773271,0.7731302984841167
1783696050834136600,2.120136474609375,-0.18520225361585615,0.4744552488148212,0.8213355264656246
1783696050844099600,2.130099609375,-0.37627193796038627,0.47499008634388445,0.9008809184759855
1783696050854063600,2.140063720703125,-0.5751297919631004,0.4288678021162748,0.8970471855320036
1783696050864027400,2.15002734375,-0.7045102051138877,0.34786008246839045,0.8645029064103961
1783696050873991400,2.159991455078125,-0.8236322591006755,0.2011860046893358,0.8296711008735
1783696050883954400,2.169954345703125,-0.8991016338437795,0.04490238704383373,0.6964237831614911
1783696050893918500,2.17991845703125,-0.9590952070355415,-0.04838204585313797,0.4177503419049084
1783696050903882500,2.189882568359375,-0.9195470405012368,-0.1231692835509777,0.08745207348167895
1783696050913845500,2.199845458984375,-0.9336702583998441,-0.0776338593006134,-0.2433607203349471
1783696050923809500,2.2098095703125,-1.060744732695818,0.018230068695545196,-0.5461813453763723
1783696050933773600,2.219773681640625,-1.2625795566827058,0.17026421220302582,-0.7659658136822283
1783696050943736600,2.229736572265625,-1.4562205528199672,0.35768940256536,-0.8734897843338548
1783696050953700600,2.23970068359375,-1.5450520979613065,0.5051677824646235,-0.8530670278996229
1783696050963664600,2.24966455078125,-1.3821300652146338,0.5249333901643752,-0.7355728673756122
1783696050973628400,2.25962841796875,-0.9542805002301931,0.4924333885759115,-0.5484334351520985
1783696050983591700,2.269591796875,-0.4605792836755514,0.3534744152188301,-0.33553996846899387
1783696050993555500,2.279555419921875,0.03917348800301552,0.14366379004716873,-0.13351619778126478
1783696051003519500,2.28951953125,0.4468272371768951,-0.05871697738468647,0.002328004556149244
1783696051013482500,2.299482421875,0.7381850957006215,-0.25144728841781616,0.09185819948613642
1783696051023446500,2.309446533203125,0.7528677010476589,-0.36973172253668307,0.10338540954217314
1783696051033410600,2.31941064453125,0.8004933755755425,-0.35263445726335046,-0.10845730597898363
1783696051043374600,2.32937451171875,0.6156564481407404,-0.3303162424713373,-0.10887290104255079
1783696051053337600,2.339337646484375,0.248469149389863,-0.11305296320617199,-0.17144874581247568
1783696051063301600,2.349301513671875,-0.08931319117844104,0.2026549081981182,-0.32887481149137016
1783696051073265700,2.359265625,-0.18217326118350027,0.4938011697977781,-0.3308078253805637
1783696051083228700,2.369228759765625,-0.09456804296672344,0.7393523859143256,-0.22421952814385293
1783696051093192700,2.379192626953125,0.09281272373199462,0.9546990179032087,-0.06500219513401388
1783696051103156500,2.389156494140625,0.2734738267868757,0.9985545262426138,0.048939095214009284
1783696051113119500,2.399119384765625,0.40566754379272457,0.8816858041405677,0.08608575356453657
1783696051123083500,2.40908349609375,0.49257016669809817,0.7202163082897662,0.06353299936428666
1783696051133047600,2.419047607421875,0.517099043276906,0.5489443803489208,-0.030400837352126835
1783696051143011600,2.429011474609375,0.4363438370853662,0.3569534895062446,-0.16136398964971302
1783696051152974600,2.438974609375,0.2591045251727104,0.15804828923046588,-0.26299597965329885
1783696051162938600,2.448938720703125,0.15187632259726525,-0.016171382600069045,-0.3259074861183762
1783696051172902700,2.458902587890625,0.1419786134392023,-0.09930208575129508,-0.3419426751181483
1783696051182865700,2.46886572265625,0.21328502328395843,-0.08486322603225707,-0.2691067176185548
1783696051192829700,2.47882958984375,0.32236616024971004,0.04997252991497517,-0.15983648782148957
1783696051202793500,2.48879345703125,0.38095103568732736,0.2615162624895572,-0.009114888217300176
1783696051212757500,2.498757568359375,0.3021042934656143,0.492195488166809,0.1700852023743093
1783696051222720500,2.508720458984375,0.13425415666699408,0.6983768169254064,0.33152751795724034
1783696051232684500,2.5186845703125,-0.02622983527779579,0.8848299473851918,0.3929427945151925
1783696051242648600,2.528648681640625,-0.15206453864574432,0.9809908125013113,0.39481531038880346
1783696051252612000,2.538612060546875,-0.2613403214007616,1.0142179593205451,0.357205564571172
1783696051262576000,2.548576171875,-0.2982686608254909,0.9840192204117775,0.29257717118561266
1783696051272540200,2.5585400390625,-0.22150164748728274,0.8958166208237409,0.27755627379491926
1783696051282503200,2.568503173828125,-0.14179682713150976,0.7999421714335679,0.32256051377803086
1783696051292467200,2.57846728515625,-0.12144903562963008,0.7217477556407451,0.39621144092231986
1783696051302431200,2.58843115234375,-0.044216742867231366,0.6938321592330933,0.4597516006797552
1783696051312395000,2.59839501953125,0.11154372768700122,0.635573447009921,0.5946418632932007
1783696051322358000,2.60835791015625,0.2884802572607994,0.6005512334674596,0.7405413034379482
1783696051332322000,2.618322021484375,0.42225101432502266,0.528977112597227,0.843465671339631
1783696051342286000,2.6282861328125,0.43990766704678536,0.47328269790410993,0.8502632225252688
1783696051352249000,2.6382490234375,0.5068628959447146,0.4727653960317373,0.8162016707085072
1783696051362213000,2.648213134765625,0.5419651889860629,0.4014180696547031,0.8097916575357318
1783696051372177200,2.65817724609375,0.5236556253135204,0.36199323723912236,0.7767338759340345
1783696051382141200,2.66814111328125,0.43230303726196284,0.34226503894031046,0.6483724305674433
1783696051392104200,2.678104248046875,0.38724809000492094,0.3928963250249624,0.5320874997027218
1783696051402068200,2.688068115234375,0.30307518432438374,0.3946674263507128,0.48284898315072056
1783696051412032000,2.698031982421875,0.18417992483079432,0.4240975189745426,0.4717392678543925
1783696051421995000,2.7079951171875,0.17138532518744468,0.557922052052617,0.3744911920234561
1783696051431959000,2.717958984375,0.11610942816734313,0.5357844545245171,0.34520211530551315
1783696051441923000,2.727923095703125,0.12862579539120197,0.4811521161049604,0.2967044802486896
1783696051451885800,2.7378857421875,0.12395897262394427,0.4030944784343242,0.3109953097991645
1783696051461849900,2.747849853515625,0.14021978707313537,0.3680447923630476,0.33103345082998276
1783696051471814100,2.757814208984375,0.11671382380127907,0.2763666256189346,0.3228242792807519
1783696051481778200,2.767778076171875,0.050965048083662985,0.2025467716485262,0.2492075466670096
1783696051491741000,2.777740966796875,-0.05003039758205414,0.19916238990724086,0.1265906363017857
1783696051501705000,2.787705078125,-0.24864976665377617,0.09586509703993797,-0.025261720898002386
1783696051511669200,2.797669189453125,-0.4480687616705894,-0.006669394761323929,-0.15774309573881326
1783696051521632000,2.807632080078125,-0.5963444294273853,-0.1567272697597742,-0.2543798347383737
1783696051531596000,2.817595947265625,-0.6286755041897296,-0.42720600638389583,-0.17938268061690033
1783696051541559800,2.827559814453125,-0.5595709883034229,-0.6593097119063138,-0.08891396272778511
1783696051551523800,2.83752392578125,-0.4136392533242702,-0.7163771685183048,-0.20669022812880575
1783696051561486800,2.84748681640625,-0.3649316287785768,-0.5723100583672524,-0.4113734272841364
1783696051571451000,2.857450927734375,-0.4906599491626024,-0.42305765453279015,-0.6190072198733687
1783696051581415000,2.867414794921875,-0.621690467607975,-0.3656774787098169,-0.6858182910602539
1783696051591378000,2.8773779296875,-0.6471060638934374,-0.22889000417292116,-0.6741073950003832
1783696051601342000,2.887342041015625,-0.5417424861460923,-0.05781389106512069,-0.7107748184666037
1783696051611306000,2.897305908203125,-0.5463730685561895,-0.0009837503403425216,-0.7554346289262175
1783696051621270000,2.90727001953125,-0.35311961043179035,0.15859949337244034,-0.8422866906881332
1783696051631233000,2.91723291015625,-0.0987742624849081,0.10425006354749203,-0.8312180380545556
1783696051641197000,2.927197021484375,0.15221885242462158,-0.08641396260559558,-0.7921022715881466
1783696051651160800,2.937160888671875,0.23944939211010932,-0.2072387288570404,-0.8765019717618823
1783696051661124000,2.9471240234375,0.10067454314827919,-0.32772622597813605,-1.0130623595446349
1783696051671087900,2.957087890625,-0.03668693188428879,-0.38139468780159946,-1.0679475036814807
1783696051681052000,2.967052001953125,-0.28771336454153057,-0.4329594553440809,-1.0614207322612403
1783696051691016000,2.977015869140625,-0.6165174488842486,-0.37465398136973377,-1.1168179175734518
1783696051700979000,2.98697900390625,-0.9112263714015484,-0.2177560312181711,-1.2297526612274348
1783696051710943000,2.99694287109375,-0.9696411509692668,-0.025068098022043704,-1.4064109583817421
1783696051720907000,3.006906982421875,-0.8715314898729324,0.17017857974618672,-1.3764375526614487
1783696051730870000,3.0168701171875,-0.795473501586914,0.4125330456480384,-1.342288614822179
1783696051740834000,3.026833984375,-0.7333142747938632,0.625922113828361,-1.3610444609574972
1783696051750798000,3.036798095703125,-0.6846282775580883,0.7719768906652927,-1.336970196278393
1783696051760761900,3.046761962890625,-0.6495943735778331,0.7633534392267465,-1.2066202074430883
1783696051770725000,3.05672509765625,-0.666905573862791,0.7245575523644685,-1.0475761851735412
1783696051780689000,3.06668896484375,-0.6934697556614875,0.6265154035463929,-1.0121667258791625
1783696051790653000,3.07665283203125,-0.7232733577728271,0.4722741053834557,-0.9321418797887862
1783696051800616000,3.086615966796875,-0.62166241055727,0.4051023111253977,-0.8961270019471644
1783696051810580000,3.096580078125,-0.4115823207944631,0.31049948910623787,-0.8616666600711643
1783696051820544000,3.1065439453125,-0.18145079212784765,0.160854871083796,-0.7461299172252416
1783696051830508000,3.116508056640625,-0.06470832675397396,-0.004631459192931652,-0.5089382409140467
1783696051840471000,3.126470947265625,-0.01744213318824768,-0.06840425866246223,-0.41286388503760096
1783696051850435000,3.13643505859375,0.021437340304255485,-0.18944851288348435,-0.2312111405968666
1783696051860399000,3.146399169921875,0.12072539753019809,-0.26112755543291566,-0.12553572042137384
1783696051870362000,3.156362060546875,0.18603169017732143,-0.3625157998085022,-0.08083002499341964
1783696051880326100,3.166326171875,0.29637364085912704,-0.3081745532900095,-0.17142244232743978
1783696051890290000,3.1762900390625,0.33515783728361126,-0.3170300599187612,-0.2721672742329538
1783696051900254000,3.18625390625,0.5418512072175741,-0.3210089004218578,-0.4592724388606846
1783696051910217000,3.196217041015625,0.6349310574531555,-0.3109910720154643,-0.4708532788001001
1783696051920181000,3.206180908203125,0.5847200426071882,-0.18253975640833378,-0.3746202252306044
1783696051930145000,3.21614501953125,0.4332850340366363,-0.09765519532710314,-0.4692267005115747
1783696051940108000,3.22610791015625,0.1871305913299322,-0.0718058837994933,-0.44462475869655604
1783696051950072000,3.236072021484375,-0.00265256033539772,0.13110533724725246,-0.2503255909115076
1783696051960036000,3.2460361328125,-0.17352876695692537,0.26569296365231276,-0.12835296979919075
1783696051970000100,3.256000244140625,-0.2319073061674833,0.3798442434892058,-0.035169513058662415
1783696051979963100,3.265963134765625,-0.21404022556543348,0.3448644077837467,-0.004872136081010103
1783696051989927200,3.27592724609375,-0.1426455529153347,0.3708449444755912,0.03704875093400478
1783696051999891000,3.285890869140625,-0.12378653866648673,0.21192747119516134,0.01561871715337038
1783696052009854000,3.29585400390625,-0.09423661905527114,0.03963321446925402,-0.051008448833972216
1783696052019818000,3.30581787109375,-0.02897299650609493,-0.07333236271440982,-0.1386247729666531
1783696052029782000,3.315781982421875,0.07376958508789538,-0.25441432152986526,-0.14602803496047853
1783696052039746000,3.32574609375,0.15892565658688546,-0.43433629665523765,-0.1604557887636125
1783696052049709000,3.335708984375,0.2355336799710989,-0.49330666427910325,-0.17298559999093413
1783696052059673000,3.345673095703125,0.2786164503723383,-0.5806608303442597,-0.15463643496036528
1783696052069637000,3.35563720703125,0.3238385708898306,-0.6381178707957268,-0.15992343545258045
1783696052079600000,3.36560009765625,0.4209545447736978,-0.6690729810297489,-0.12731778153255582
1783696052089564200,3.375564208984375,0.5524339760303497,-0.740623721024394,-0.08560980661585926
1783696052099528200,3.385528076171875,0.6643196490228176,-0.7913748340964317,-0.049323856747895474
1783696052109492000,3.395491943359375,0.7438578806400299,-0.880724850153923,-0.05460355071648955
1783696052119455000,3.405455078125,0.6906506065875292,-0.9012129269093274,0.11947218259871005
1783696052129419000,3.4154189453125,0.7099678859978914,-0.7741241318270564,0.05759469535648822
1783696052139383000,3.425383056640625,0.7581915264189243,-0.7339119484260678,0.17303294626399873
1783696052149346000,3.435345947265625,0.7309533908814191,-0.7047787929221987,0.38515725520551203
1783696052159310000,3.44531005859375,0.7625333550155162,-0.5446875996872782,0.3249235896475613
1783696052169274000,3.455274169921875,0.7584808647543192,-0.4904641343295574,0.44656551750078793
1783696052179238100,3.465238037109375,0.6705307786226272,-0.43318391174972054,0.5478871263809502
1783696052189201200,3.475201171875,0.5100169760614633,-0.27675533267557617,0.5330851324379444
1783696052199165200,3.485165283203125,0.43730888272523877,-0.18698562990128992,0.5066691269382834
1783696052209129200,3.495129150390625,0.30887305694818495,-0.20112784476131199,0.5141131593339144
1783696052219092200,3.50509228515625,0.034850948628783227,-0.16714637244343758,0.44673356754407284
1783696052229056000,3.515055908203125,-0.19356909994482993,-0.2653650468721986,0.42025516433268784
1783696052239020000,3.52502001953125,-0.3376718659311533,-0.17169862892031668,0.17892580369487404
1783696052248984000,3.534984130859375,-0.6373223365038633,-0.21859598917365072,-0.007210077509284019
1783696052258947000,3.544947021484375,-0.8466974928677081,-0.3142579648569226,-0.09503551434800028
1783696052268911000,3.5549111328125,-0.9387333870083093,-0.5715531025201082,-0.055589346883445974
1783696052278875100,3.564875244140625,-0.8647463597774505,-0.8874617571935057,0.05961188039779663
1783696052288838100,3.574838134765625,-0.713146516034007,-1.0733289044588803,0.025040479362756014
1783696052298802200,3.58480224609375,-0.6944026525974273,-1.1748764310494064,-0.11305077124908566
1783696052308766200,3.59476611328125,-0.7443605694651603,-1.1332570111989975,-0.33493089665994047
1783696052318730200,3.604730224609375,-0.8108049262315035,-0.9903098449885844,-0.579311023170501
1783696052328693200,3.614693359375,-0.9804273333996534,-0.7690057659000158,-0.7627836765147745
1783696052338657000,3.624656982421875,-1.2193033095359802,-0.40945787598639727,-0.8526037943020462
1783696052348621000,3.63462109375,-1.5553770926207302,0.06186170515120029,-0.9019258974842727
1783696052358583800,3.644583740234375,-1.8262638255238532,0.3862108559116721,-0.8461601711206138
1783696052368548000,3.654548095703125,-1.9021768523812292,0.6026219022616743,-0.6950732453353703
1783696052378512100,3.66451220703125,-1.8334072675377129,0.816602214333415,-0.5483725718103349
1783696052388476200,3.67447607421875,-1.6270622726500032,0.928198548990488,-0.44098932480365033
1783696052398439000,3.68443896484375,-1.3101882800757885,0.9208902718037366,-0.33722762929499145
1783696052408403200,3.6944033203125,-0.9500327796578407,0.7880667324617504,-0.31180297292023895
1783696052418367200,3.7043671875,-0.6855220115274191,0.5617272895544767,-0.3425308502696454
1783696052428330000,3.714330078125,-0.5657154824078082,0.3419654714718461,-0.3688675069227814
1783696052438294000,3.7242939453125,-0.5698831234812736,0.18614070350974798,-0.4273421999841928
1783696052448258000,3.734258056640625,-0.6942360638588666,0.10809066462367772,-0.5455822104394435
1783696052458222000,3.74422216796875,-0.7828565965980291,0.1424646433904767,-0.6361771119914948
1783696052468184800,3.754184814453125,-0.913545169737935,0.20150895303338764,-0.7424943372018635
1783696052478148900,3.76414892578125,-1.0094856701016426,0.333692440906167,-0.818026986439526
1783696052488113000,3.77411279296875,-0.9996481666982173,0.5488105248361825,-0.8915518029861151
1783696052498076000,3.784075927734375,-0.9069400723844766,0.7689449756234884,-0.9509677224203944
1783696052508040000,3.7940400390625,-0.7804986352950334,0.970478186315298,-0.9770582953579723
1783696052518004000,3.80400390625,-0.5949041674911976,1.159593229460716,-0.9913371422097086
1783696052527968000,3.813968017578125,-0.37183658586144447,1.3047960656434296,-0.9419780680179596
1783696052537931000,3.823930908203125,-0.13484393925368784,1.395423262029886,-0.8726245458066463
1783696052547895000,3.83389501953125,0.08627601543962955,1.3797352790325879,-0.7677982898063958
1783696052557858800,3.84385888671875,0.28358021025955676,1.3123054183602332,-0.6696250619545578
1783696052567822000,3.853822021484375,0.36067981655299663,1.1709808849155903,-0.5749545815266669
1783696052577785900,3.863785888671875,0.3969920699059963,1.0229869567096233,-0.5051847335994243
1783696052587750000,3.87375,0.44802842966020107,0.9204863671779632,-0.5016404851213098
1783696052597714000,3.8837138671875,0.4740460834920406,0.767571349182725,-0.46596769871562715
1783696052607677000,3.893677001953125,0.41587212694287296,0.5822866779804229,-0.4448519915811717
1783696052617641000,3.903640869140625,0.3509077796012163,0.5008475811779499,-0.36353695954978466
1783696052627605000,3.91360498046875,0.24871231049597262,0.38489071322381496,-0.3009539543867111
1783696052637568000,3.923568115234375,0.1541746626675129,0.3061246350228786,-0.2806513172008097
1783696052647532000,3.933531982421875,0.0866097774386406,0.2833756275981664,-0.294384658998996
1783696052657496000,3.94349609375,0.03831248725950718,0.24071079034805296,-0.3747201784737408
1783696052667459800,3.9534599609375,-0.07603694549798964,0.1977139446645975,-0.4630826447986066
1783696052677423000,3.963423095703125,-0.26549977916777134,0.18963292953968047,-0.6441814086183906
1783696052687387000,3.973386962890625,-0.48002165077030656,0.22417115895748138,-0.8015949070766568
1783696052697351000,3.983350830078125,-0.6938035176604985,0.32829262768924233,-0.8886445372372865
1783696052707314000,3.99331396484375,-0.9209083919823169,0.4797831658393144,-0.88725322900936
1783696052717278000,4.00327783203125,-1.2002362054944038,0.6492331390500068,-0.905797916612029
1783696052727242000,4.013241943359375,-1.3681208290845155,0.8767419179975986,-0.9302528511717915
1783696052737206000,4.0232060546875,-1.4182768988728522,1.0660182891845702,-0.9306352746181189
1783696052747169000,4.0331689453125,-1.2883914588093757,1.1395768618702888,-0.9404455977536738
1783696052757133000,4.043133056640625,-1.0128057544350624,1.1126607978940009,-0.9501910389594733
1783696052767097000,4.05309716796875,-0.7493360197901725,0.9996943439275026,-1.0084718168839812
1783696052777060000,4.06306005859375,-0.5927291615396738,0.8551672150492667,-1.0571734500803052
1783696052787024100,4.073024169921875,-0.4787006312996149,0.7509294264614582,-1.1077955299451947
1783696052796988000,4.08298779296875,-0.4064373591214418,0.6247796657949686,-1.1145860668681562
1783696052806952000,4.092951904296875,-0.2757920406013727,0.560074261650443,-1.1274784277975558
1783696052816915000,4.1029150390625,-0.04644435578882694,0.5240139372318983,-1.092805758345127
1783696052826879000,4.11287890625,0.22626550088822842,0.4704126954257488,-0.9894457755051552
1783696052836843000,4.122843017578125,0.4696493098378181,0.42296939172744746,-0.8991812749512493
1783696052846806000,4.132805908203125,0.6476882476955652,0.48999125612080097,-0.8307831537686288
1783696052856770000,4.14277001953125,0.7148878067433834,0.532321162328124,-0.7312332307361066
1783696052866734000,4.152734130859375,0.5214321040451526,0.5626800602346659,-0.7225370063222945
1783696052876698000,4.162697998046875,0.2149631856292486,0.6289771174848079,-0.7605746221631765
1783696052886661000,4.1726611328125,-0.1176268469929695,0.718465665230155,-0.7424569278009235
1783696052896625200,4.182625244140625,-0.46758653208911416,0.7288543727755546,-0.7557811042763293
1783696052906589000,4.1925888671875,-0.7175923895269631,0.7346990071505308,-0.8158052187368273
1783696052916552200,4.20255224609375,-0.8653729672431946,0.7569833196729421,-0.8540621764168143
1783696052926516000,4.212515869140625,-0.9559837970167397,0.71722530978024,-0.9357301866043358
1783696052936480000,4.22247998046875,-0.9003197774618864,0.7148281855106353,-0.9980735377926379
1783696052946444000,4.232444091796875,-0.8422183016270398,0.687174454909563,-1.0747888209436087
1783696052956407000,4.242406982421875,-0.8399713994830846,0.6892389862239361,-1.162145325096324
1783696052966371000,4.25237109375,-0.8503139297991991,0.7171393850624561,-1.1295833641875535
1783696052976335000,4.262335205078125,-0.7804740853756665,0.7222177112400532,-0.9809510650128126
1783696052986298000,4.272298095703125,-0.6842132670164108,0.7762684503793716,-0.8120074338890612
1783696052996262100,4.28226220703125,-0.6098281803786755,0.7960159379005431,-0.7211101153243332
1783696053006226200,4.29222607421875,-0.5459019439131021,0.7804957126855849,-0.6170953949026763
1783696053016189200,4.302189208984375,-0.5705693521797657,0.7581815895467996,-0.5628517635397613
1783696053026153000,4.312153076171875,-0.541252656802535,0.7222475218564272,-0.4994186443533748
1783696053036117000,4.322116943359375,-0.442657258015871,0.6334288361966609,-0.4713213347032666
1783696053046081000,4.3320810546875,-0.22400690830647943,0.6185194363564253,-0.48134223184958097
1783696053056044000,4.3420439453125,-0.045313890454173084,0.5519722037374973,-0.5661053585082292
1783696053066008000,4.352008056640625,0.024938041901588437,0.5542904175519943,-0.6454435375086963
1783696053075972000,4.36197216796875,0.09238193109929561,0.6341887146532535,-0.6746056268461048
1783696053085935000,4.37193505859375,0.11930851646959781,0.7282575759261846,-0.6959780852206051
1783696053095899100,4.381899169921875,0.1681646095752716,0.8275345272362232,-0.6910298151634633
1783696053105863200,4.39186328125,0.10069324784874915,0.9078326373100281,-0.645552258580178
1783696053115827200,4.4018271484375,0.009717676416039467,1.0106178890019655,-0.6514401475749909
1783696053125790200,4.411790283203125,-0.041748891448974604,1.1120634165227412,-0.6631061815798283
1783696053135754000,4.42175390625,-0.1247030689895153,1.150835337987542,-0.7314923200637101
1783696053145718000,4.431718017578125,-0.3080032883763313,1.2115104637026786,-0.8010456026308238
1783696053155681000,4.441680908203125,-0.5726181014031172,1.3010066102325915,-0.9083269966982305
1783696053165645000,4.45164501953125,-0.84965926528275,1.4103016822099685,-1.0077481787845493
1783696053175609000,4.461609130859375,-1.0482470701724291,1.4483447048783302,-0.9291048501804471
1783696053185573000,4.471572998046875,-1.0557324574917555,1.4125801485359668,-0.7282170977853238
1783696053195536100,4.4815361328125,-0.8762479970008135,1.2486205894351006,-0.5146178939856588
1783696053205500200,4.491500244140625,-0.7366255912989378,1.0780553484588862,-0.2274456505835056
1783696053215464200,4.501464111328125,-0.5246621720075607,0.8957675209850072,-0.11891747132539748
1783696053225427200,4.51142724609375,-0.2923059530287981,0.6116045424014329,-0.1647743826150894
1783696053235391200,4.52139111328125,-0.14997195028066634,0.29706571477651594,-0.27552023792266844
1783696053245355000,4.53135498046875,-0.2031780552893877,0.04225801001489162,-0.45832054496333
1783696053255318300,4.541318359375,-0.4857452891141176,-0.11263970623016356,-0.7504898660004139
1783696053265282000,4.551281982421875,-0.8729805196374655,-0.1401005446076393,-1.071705102649331
1783696053275246000,4.56124609375,-1.2834236072689293,-0.04395283123403787,-1.2453250550210475
1783696053285210000,4.571210205078125,-1.551188993281126,0.1769900133267045,-1.2925045932166277
1783696053295173000,4.581173095703125,-1.5785662450283764,0.29546354027688504,-1.350701638380438
1783696053305137200,4.59113720703125,-1.3737123654812573,0.3207110865190625,-1.2994291317828
1783696053315101200,4.60110107421875,-0.859174697124958,0.4835916182115674,-1.1552018626339733
1783696053325064200,4.611064208984375,-0.3541261571258306,0.5764744845703244,-1.0643135310932994
1783696053335028200,4.6210283203125,-0.023902269113063812,0.6237488614425063,-1.0334558898843824
1783696053344992300,4.6309921875,0.0036930092990398403,0.66259940110147,-1.0446703807294369
1783696053354956000,4.6409560546875,-0.3018032646924257,0.66626406108886,-1.020027814643085
1783696053364919300,4.650919189453125,-0.8224982866346836,0.6854997996956109,-1.0893276339057831
1783696053374883000,4.660883056640625,-1.3807780660837887,0.6528150891900062,-1.1718997533261775
1783696053384847000,4.67084716796875,-1.65578976996243,0.612096709832549,-1.177568738873303
1783696053394810000,4.68081005859375,-1.6978449508816003,0.5990142331585288,-1.14842177403979
1783696053404774100,4.690774169921875,-1.5282389103263616,0.6012509061694145,-1.0380847917940468
1783696053414738200,4.70073828125,-1.095241461059451,0.6062728259846568,-0.9918218569867312
1783696053424701200,4.710701171875,-0.6633581105142832,0.5299915503367781,-0.9019722208440303
1783696053434665200,4.720665283203125,-0.41727147234678263,0.47657063353359697,-0.7460559752061963
1783696053444629200,4.730629150390625,-0.38286885200738907,0.43837037447690963,-0.663043710802868
1783696053454593300,4.74059326171875,-0.4696545705348253,0.379288070911169,-0.7140764903604984
1783696053464556300,4.750556396484375,-0.43389410584568977,0.32441490947306156,-0.7207979075700044
1783696053474520300,4.760520263671875,-0.33566344871819015,0.1753185729831457,-0.6438936777181923
1783696053484484000,4.770484130859375,-0.27987258791327474,0.0905436097562313,-0.5510050392057746
1783696053494447000,4.780447021484375,-0.27572540510594845,0.09490648114085197,-0.5010738642144948
1783696053504411100,4.7904111328125,-0.27635201257169245,0.08673165025264024,-0.44726014870144426
1783696053514375200,4.800375244140625,-0.23312018908858298,0.08627630770057439,-0.3685736385427415
1783696053524339200,4.810339111328125,-0.1343061791151762,0.0660115183070302,-0.2006965406719595
1783696053534302200,4.82030224609375,-0.03582417757511139,0.028655016598105428,-0.03628302725851536
1783696053544266200,4.830266357421875,0.11576748286187648,0.0014887772530317305,0.05513860744126141
1783696053554230300,4.840230224609375,0.2978250087112188,-0.059275195789337154,0.09068192224837839
1783696053564193300,4.850193359375,0.43381168825924393,-0.12434563385397195,0.09978935781158506
1783696053574157300,4.8601572265625,0.4698474627584219,-0.15448621283471584,0.11916055936627089
1783696053584121300,4.870121337890625,0.36541795099079605,-0.118746790933609,0.08642433786913752
1783696053594084400,4.88008447265625,0.11334113249778748,-0.11271773990243672,0.01450111130028963
1783696053604048100,4.890048095703125,-0.20388824938535688,-0.06445289068818091,-0.048133697115257376
1783696053614012200,4.90001220703125,-0.45365737545788287,0.0191731947645545,-0.1060112280011177
1783696053623976200,4.90997607421875,-0.6133358962386846,0.046400516647100445,-0.18966376306936145
1783696053633939200,4.919939208984375,-0.625974428537488,0.1050876834154129,-0.269091885375604
1783696053643903200,4.9299033203125,-0.49706280194222924,0.14302052370756863,-0.26333156828321513
1783696053653867300,4.9398671875,-0.333466815456748,0.15208791952133177,-0.24453831274695692
1783696053663830300,4.949830322265625,-0.1673889490276575,0.15827099207043646,-0.22741211364008485
1783696053673794300,4.959794189453125,-0.070305123847723,0.17961130174100398,-0.24267178822271523
1783696053683758300,4.96975830078125,0.018909283131361008,0.2210086032733321,-0.27466698209419843
1783696053693722400,4.979722412109375,0.17203005283176898,0.12369915264397859,-0.35286132482178506
1783696053703685400,4.989685302734375,0.25902035402059553,-0.01810527327209711,-0.3427281264074147
1783696053713649200,4.999649169921875,0.2301999177277088,-0.0966214683651924,-0.39829716115519403
1783696053723613200,5.00961328125,0.12477496518194675,-0.1991626821681857,-0.3936969008181244
1783696053733576000,5.019575927734375,0.053556233620643615,-0.4300923754751682,-0.29237865293882787
1783696053743540000,5.0295400390625,0.1341179630666971,-0.5664484728574752,-0.12182619837895035
1783696053753504300,5.039504150390625,0.2317383793413639,-0.5763207553133368,-0.17140227632224558
1783696053763467000,5.049467041015625,0.2282137123465538,-0.5145797539323568,-0.36038631349913774
1783696053773431000,5.05943115234375,0.20916531300544738,-0.3320908509284258,-0.5438584553867578
1783696053783395000,5.06939501953125,0.1310252577483654,-0.12895634251981972,-0.6776588769368826
1783696053793359400,5.079359375,0.05411269845962524,0.16900076813846826,-0.6996712406501173
1783696053803322000,5.089322021484375,-0.10885317342877388,0.4355377813994884,-0.7664247364308685
1783696053813286100,5.0992861328125,-0.23538579593300818,0.6260206057667732,-0.7930798844486474
1783696053823250200,5.109250244140625,-0.374317881283164,0.6854518689006567,-0.6493949785482138
1783696053833213200,5.119213134765625,-0.4028390423685312,0.7451341841861605,-0.46975452377796173
1783696053843177000,5.129177001953125,-0.31595921581685543,0.7281988314762711,-0.3268913825891912
1783696053853141000,5.13914111328125,-0.06770049430727958,0.6400368561595678,-0.2801981666058302
1783696053863104000,5.14910400390625,0.18254384806156157,0.5065010768949986,-0.22572503733597696
1783696053873068000,5.159068115234375,0.2562099727749824,0.3895551979035139,-0.26689057593904436
1783696053883032000,5.169031982421875,0.18417466413378714,0.30598785690069197,-0.5113928675245494
1783696053892996000,5.17899609375,0.0965694459170103,0.31020372103005645,-0.6265363002039491
1783696053902959000,5.188958984375,-0.09399930316805839,0.33411884962469335,-0.6514278726153075
1783696053912923100,5.198923095703125,-0.23753800553083418,0.3929901407882571,-0.6940393722429871
1783696053922887200,5.20888720703125,-0.37133038990497585,0.5172235464394093,-0.669326371268928
1783696053932850200,5.21885009765625,-0.3837386205792427,0.6478671113938093,-0.5654726866278798
1783696053942814200,5.228814208984375,-0.3084767511069774,0.7900178665295243,-0.39531376143023367
1783696053952778000,5.238778076171875,-0.20859832677245138,0.8623618027284741,-0.17709639631062746
1783696053962741200,5.2487412109375,-0.0956324573278427,0.9089689478635787,-0.01156988015398383
1783696053972705000,5.258705078125,0.0581318709731102,0.8963158025175333,0.1019586646746844
1783696053982669000,5.2686689453125,0.23685002326667307,0.8179775943398475,0.22169811990745364
1783696053992633000,5.278633056640625,0.485748211723566,0.6601259967252612,0.2780477105736732
1783696054002596000,5.28859619140625,0.7039525712311268,0.4549307563945651,0.3629734073828906
1783696054012560100,5.29856005859375,0.8219815692842006,0.2989259556904435,0.4857586600523442
1783696054022524200,5.308524169921875,0.8469143504887818,0.21343056923449039,0.5645798294413834
1783696054032487200,5.318487060546875,0.7766939823150635,0.16050357342809438,0.5937811548106372
1783696054042451200,5.328451171875,0.6320850203722715,0.15704700323343276,0.5822497069709003
1783696054052415200,5.338415283203125,0.4369067316651344,0.1855962213695049,0.5843040091522038
1783696054062379000,5.34837890625,0.2694669292330742,0.23813041846603153,0.544880564976111
1783696054072342300,5.35834228515625,0.12297872941493987,0.2791781759083271,0.4436959534138441
1783696054082306000,5.36830615234375,0.011826046872138977,0.33427930088341234,0.2965577652543783
1783696054092270000,5.37827001953125,-0.10565174703896045,0.3819496913358569,0.18654234311319887
1783696054102233000,5.388233154296875,-0.21149872438907621,0.4768509117797017,0.04108217116855085
1783696054112197000,5.398197021484375,-0.30893092461526395,0.506505753070116,-0.03788469030149281
1783696054122161200,5.4081611328125,-0.3757470373034477,0.5480287268087267,-0.04343538323119282
1783696054132124200,5.418124267578125,-0.4017746280074119,0.5640615777209401,0.03713792705480009
1783696054142088200,5.428088134765625,-0.4381289669364691,0.5581842101201415,0.15942133114933968
1783696054152052200,5.43805224609375,-0.45537060911655425,0.5184463662326335,0.2756057973142713
1783696054162016300,5.448016357421875,-0.5378069002628326,0.45224633961617944,0.3535316252987832
1783696054171979300,5.457979248046875,-0.6764969935506582,0.3587891805008054,0.3921197146292776
1783696054181943300,5.467943359375,-0.7665501894414425,0.29263474659174676,0.3879526580777019
1783696054191907000,5.477906982421875,-0.8295441134929656,0.22707272561788558,0.4487243760351091
1783696054201870000,5.4878701171875,-0.8148772902369499,0.1837280894100666,0.49492542458735406
1783696054211834000,5.497834228515625,-0.7511766792207956,0.15274053821116684,0.5451888272076845
1783696054221798100,5.507798095703125,-0.6001712942391634,0.09022446080446243,0.5567134799804538
1783696054231761200,5.51776123046875,-0.4241068713247776,0.0531038136780262,0.5610509977281093
1783696054241725200,5.52772509765625,-0.2820949401378631,-0.00045855742245912547,0.5673302971933036
1783696054251689200,5.537689208984375,-0.21322657109498977,-0.04477554579377174,0.48834012791290876
1783696054261652000,5.54765185546875,-0.16079495759010315,-0.05148381126075983,0.345013533930853
1783696054271616000,5.557615966796875,-0.11477613373696803,-0.10438362679928541,0.2876150187335908
1783696054281580000,5.567580078125,-0.11707447380721568,-0.11479016226232051,0.2599081697057932
1783696054291544000,5.5775439453125,-0.14374153145849705,-0.134560153876245,0.23050116569660603
1783696054301507000,5.587507080078125,-0.15997078172564505,-0.1382040633365512,0.20827537842839955
1783696054311471000,5.59747119140625,-0.20086451765000818,-0.12568623480796814,0.1927593909971416
1783696054321435000,5.607434814453125,-0.129839847356081,-0.08512275375127792,0.16629421259351074
1783696054331398000,5.61739794921875,-0.054124388897418975,-0.06928776349872351,0.1844241088502109
1783696054341362000,5.62736181640625,0.025090017592906952,-0.04440671248137951,0.20918452916257083
1783696054351326000,5.637325927734375,0.11545593269467354,-0.05826981813907623,0.21474077505022285
1783696054361289000,5.6472890625,0.2486702249199152,-0.12882014891952276,0.23390147565938532
1783696054371253000,5.6572529296875,0.40679742460548873,-0.16276508861929176,0.18127273214720188
1783696054381217000,5.667217041015625,0.6051257017761469,-0.20964520547688006,0.051267976552993054
1783696054391181000,5.67718115234375,0.6410936717361211,-0.3310685221433639,-0.02682042158208787
1783696054401144000,5.68714404296875,0.41420857764482494,-0.4205404110148549,-0.12851561301499603
1783696054411108000,5.697108154296875,0.28127894757986066,-0.3371811598047614,-0.243781429965049
1783696054421072100,5.707072021484375,-0.10383329944014548,-0.4158277032792568,-0.03113521604128182
1783696054431035100,5.71703515625,-0.3799211081176996,-0.40088089403808114,-0.15924780121333895
1783696054440999000,5.7269990234375,-0.4886673140406608,-0.4006093836203217,-0.3071841540131718
1783696054450963000,5.736962890625,-0.5180266795158386,-0.42063598034381866,-0.2455062079310417
1783696054460926000,5.746926025390625,-0.4812210896879434,-0.45615766784101724,-0.24167598211839794
1783696054470890000,5.756889892578125,-0.4699906706213951,-0.47276948768496513,-0.26169373794831335
1783696054480854000,5.76685400390625,-0.36549744596779343,-0.4061865992307663,-0.32011677388772364
1783696054490818000,5.776818115234375,-0.5082967281401157,-0.41122780826836824,-0.10467238061279058
1783696054500781000,5.786781005859375,-0.6994611050307751,-0.28305881673395633,-0.027904490491747855
1783696054510745000,5.7967451171875,-0.9010667964369058,-0.26703911756426096,-0.10088584781140088
1783696054520709000,5.806709228515625,-0.9536807807713746,-0.403053854162991,0.08977883592881261
1783696054530672000,5.816672119140625,-0.8731704892516136,-0.6201710029557347,0.3949884749986231
1783696054540636200,5.82663623046875,-0.5573936442643403,-0.7555556249573826,0.4331783953243866
1783696054550600000,5.836599853515625,-0.18587562283277512,-0.827905990897119,0.39076976132504637
1783696054560563200,5.846563232421875,0.08913608104586601,-0.8701067177668214,0.36644345811363305
1783696054570527000,5.85652685546875,0.17496669080555438,-0.9130854432716965,0.24697975108232348
1783696054580491000,5.866490966796875,0.09921966816484927,-0.9836068402186036,0.026981859221495687
1783696054590455000,5.876455078125,-0.11304010372459888,-0.9773565476521849,-0.16431538680121302
1783696054600418000,5.88641796875,-0.37215924194455147,-0.8995151830807327,-0.2883756643751636
1783696054610382000,5.896382080078125,-0.6211749193012714,-0.8181415527299046,-0.3529102419974282
1783696054620346000,5.90634619140625,-0.7589964130610227,-0.7439093185663223,-0.2645031328132376
1783696054630309000,5.91630908203125,-0.7249456748992205,-0.5747559902146459,-0.15120236885845662
1783696054640273200,5.926273193359375,-0.6298585764944553,-0.38849721328318115,-0.04636679704058915
1783696054650237200,5.9362373046875,-0.5428326194703579,-0.2573281631499529,0.030972244031913575
1783696054660200200,5.9462001953125,-0.5297808301955461,-0.15002397272884846,-0.006507701393589377
1783696054670164200,5.956164306640625,-0.4841670800119638,-0.11614099234938621,-0.09628029024470597
1783696054680128000,5.9661279296875,-0.42604105425775046,-0.08947130434960127,-0.15269848916772752
1783696054690092000,5.976092041015625,-0.41759354390799996,-0.028305180247128008,-0.19309812143221497
1783696054700055000,5.986054931640625,-0.3690373105317354,0.1404880826205015,-0.29218871985729783
1783696054710019000,5.99601904296875,-0.2730652459859848,0.30953882738053795,-0.30906390334516765
1783696054719983000,6.005983154296875,-0.19372984346449373,0.4701616432741284,-0.261911618482694
1783696054729946000,6.015946044921875,-0.14240356085300446,0.6631991205602884,-0.3544021975882351
1783696054739910100,6.02591015625,-0.13153379179239272,0.8891445957139134,-0.4965800599265843
1783696054749874200,6.035874267578125,-0.1602694724112749,1.040298449255526,-0.5993949030391872
1783696054759837200,6.045837158203125,-0.2346007830351591,1.1636898511245846,-0.7307110334929079
1783696054769801200,6.05580126953125,-0.21978958287239073,1.2480971500828861,-0.8923808742213993
1783696054779765200,6.06576513671875,-0.18239947115480898,1.2631842445775865,-0.9687842418789863
1783696054789728000,6.07572802734375,-0.12998480878472327,1.2054235450044273,-0.9415216294873505
1783696054799692000,6.085692138671875,-0.13371873461604117,1.1001952840745448,-0.8312213259901851
1783696054809656000,6.095656005859375,-0.16203355947434903,0.9943985756069421,-0.7243521659854799
1783696054819620000,6.1056201171875,-0.1795890899091959,0.8775812914311886,-0.5948652237202972
1783696054829582800,6.115582763671875,-0.1884989570736885,0.7412494517073035,-0.5273769108589739
1783696054839547100,6.125547119140625,-0.19907178901433945,0.6126160575315356,-0.4371780959524214
1783696054849511200,6.13551123046875,-0.227877612259984,0.5262845125123858,-0.4036497011642903
1783696054859474000,6.145473876953125,-0.13434884921312332,0.4883060795128345,-0.38968233141452074
1783696054869438000,6.15543798828125,-0.10257014763653277,0.44038785177916284,-0.3909225407339632
1783696054879402000,6.165402099609375,-0.02554068396985531,0.4840326399773359,-0.41425051709040994
1783696054889365000,6.175364990234375,0.0691162063241005,0.5535322926610708,-0.4106438709005713
1783696054899329000,6.1853291015625,0.2800029362946749,0.6461059469401836,-0.3957614321324974
1783696054909293000,6.19529296875,0.4026157550066709,0.6851508401274681,-0.35787579198293384
1783696054919256800,6.2052568359375,0.37251229316592216,0.7749439237773418,-0.31978038154020905
1783696054929219800,6.2152197265625,0.27290625603199004,0.835022837164998,-0.35489027336612344
1783696054939183900,6.225183837890625,0.10475450593829154,0.7443748902514576,-0.30255970908291635
1783696054949148000,6.23514794921875,0.043590719923377035,0.6986044882014394,-0.22036504467278717
1783696054959111000,6.24511083984375,0.10356441937088966,0.620782120591402,-0.12826741040758788
1783696054969075000,6.255074951171875,0.29075697002112866,0.5685176803469657,-0.049513753296807406
1783696054979039000,6.2650390625,0.5594342101812362,0.4684112924754619,0.019243702717497944
1783696054989002000,6.275001953125,0.7819453269720077,0.3610664777830243,0.07734839342273771
1783696054998966000,6.284966064453125,0.9054442808687686,0.22297698073685168,0.1166411969564855
1783696055008930000,6.294929931640625,0.8837439057141542,0.08594985222518443,0.11658376768082379
1783696055018893000,6.30489306640625,0.7946218531936406,-0.07209229952543973,0.13228512161634862
1783696055028857000,6.314857177734375,0.7221522447884082,-0.18819295986443757,0.16912483290955424
1783696055038820900,6.32482080078125,0.6639572454512119,-0.31055384964197874,0.21056129740849136
1783696055048785000,6.334784912109375,0.6269412277430295,-0.3538260051354766,0.30278248498812316
1783696055058748000,6.344747802734375,0.45681905435919756,-0.4072486755043268,0.32261998888030646
1783696055068712000,6.3547119140625,0.25331425133347507,-0.5520300714045763,0.1889979195717722
1783696055078676000,6.364676025390625,0.18576105654239652,-0.5209808531463146,0.1830732787631452
1783696055088639000,6.374638916015625,0.10960954475402832,-0.6197293966680765,0.11678491627611219
1783696055098603000,6.38460302734375,0.04166296673119068,-0.6205562028810382,0.08083331292904913
1783696055108567000,6.394567138671875,-0.035624271088838574,-0.5857885486215353,-0.08459522274583578
1783696055118530000,6.404530029296875,-0.09644435823261738,-0.5593953394755721,-0.1993902073137462
1783696055128494000,6.414494140625,-0.06754501148462295,-0.4358528386980295,-0.23846476498693225
1783696055138458000,6.4244580078125,-0.11208090330362319,-0.43467093543708324,-0.3154826112810522
1783696055148422000,6.434421875,-0.11364099222719669,-0.3287643368542194,-0.3392099622186273
1783696055158385200,6.44438525390625,-0.09517536121010779,-0.23171850559711454,-0.32374190558232363
1783696055168349000,6.454348876953125,-0.26082360405027866,-0.2222831532537937,-0.21728439511843026
1783696055178313000,6.46431298828125,-0.49965807913243765,-0.07955898214429616,-0.14602021698020398
1783696055188276000,6.47427587890625,-0.691753014871478,-0.02166793418973684,-0.06306932737529278
1783696055198240000,6.484239990234375,-0.6900649156540631,0.015196984609961509,-0.018567337825894356
1783696055208204000,6.4942041015625,-0.5913029281288386,-0.025817747345566747,0.008331994211301206
1783696055218167000,6.5041669921875,-0.4805594109088182,-0.06695493663698435,0.005329743655398488
1783696055228131000,6.514131103515625,-0.33741642986536025,-0.13245119889825582,-0.05029862006418407
1783696055238095000,6.52409521484375,-0.2900017677396536,-0.23885464108735321,-0.10075615701712667
1783696055248058000,6.53405810546875,-0.377760715213418,-0.29765841997265813,-0.1262503714967519
1783696055258021600,6.544021728515625,-0.5437503188371658,-0.3535743684619665,-0.0914893661737442
1783696055267985700,6.553985595703125,-0.6652133829921484,-0.5066822786808014,0.07486556363105773
1783696055277949700,6.56394970703125,-0.618128391212225,-0.5740922656089067,0.20808906207606195
1783696055287912700,6.57391259765625,-0.5861351701021195,-0.592599982202053,0.15848025090694426
1783696055297876500,6.58387646484375,-0.6029290685147046,-0.5730892260462045,0.025156214696913957
1783696055307840500,6.593840576171875,-0.5653390503108501,-0.5452589698344469,-0.15939955770894884
1783696055317803500,6.603803466796875,-0.5593845258206128,-0.6045037704855203,-0.32319026304893195
1783696055327767600,6.613767578125,-0.5498650023251772,-0.5194710331052541,-0.4050291728239506
1783696055337731600,6.623731689453125,-0.5640928496420383,-0.416332730191946,-0.48577999510131775
1783696055347694600,6.633694580078125,-0.5192278719991446,-0.23244974248111247,-0.432841308857128
1783696055357658600,6.64365869140625,-0.3497778987884521,-0.04404430890977382,-0.28277203568182885
1783696055367622700,6.65362255859375,-0.05789280152022838,0.10781447803080081,-0.08360175472907722
1783696055377585700,6.663585693359375,0.30832243732810016,0.20338146890699862,0.06316095118150114
1783696055387549700,6.6735498046875,0.6084703360289335,0.21794950796365736,0.1672762824334204
1783696055397513700,6.683513671875,0.6918763489902019,0.10542144541442394,0.23207645218931136
1783696055407477500,6.6934775390625,0.6486959634333849,-0.016408113965392112,0.14424122460894287
1783696055417440800,6.703440673828125,0.5278536615252495,-0.13681903871893883,-0.0145481653124094
1783696055427404500,6.713404541015625,0.4450841929018497,-0.2183838077276945,-0.15352226317338644
1783696055437368600,6.72336865234375,0.5568482853412627,-0.24207447991669176,-0.23416114950887856
1783696055447331600,6.73333154296875,0.757802234840393,-0.16705577155053614,-0.3281849295310676
1783696055457295600,6.743295654296875,0.8847843546777963,-0.018191490250825882,-0.3960200830686837
1783696055467259600,6.753259765625,0.8704705826431512,0.22486557096242904,-0.416189595394209
1783696055477222700,6.76322265625,0.6701683750510216,0.47952539168596264,-0.35301863427534697
1783696055487186700,6.773186767578125,0.40822365801632404,0.7153875729590654,-0.2599408298663795
1783696055497150700,6.783150634765625,0.15117957250475883,0.9365192180901766,-0.15521357726119459
1783696055507113700,6.79311376953125,-0.028381460353732107,0.9959475586146116,-0.03996573435924947
1783696055517077800,6.803077880859375,-0.13332301329672336,0.9533546175569295,0.13602313910089434
1783696055527041800,6.813041748046875,-0.17003098796904087,0.9293699308574199,0.23591098885089157
1783696055537005600,6.823005615234375,-0.08604746738076209,0.8555097448766231,0.2642676800895482
1783696055546968600,6.832968505859375,0.10303425801694392,0.7196954992860555,0.2950453879300505
1783696055556932600,6.8429326171875,0.2748293330490589,0.530392824614048,0.32075682535693045
1783696055566896600,6.852896728515625,0.2645072609990835,0.3180067959964275,0.3962570336297154
1783696055576859600,6.862859619140625,0.11022153917253016,0.17228022820055483,0.491719979609549
1783696055586823700,6.87282373046875,-0.13457272109687327,0.04315057494044303,0.5728268487829715
1783696055596787700,6.88278759765625,-0.324085823649168,-0.05278174211680889,0.6390260716818272
1783696055606750700,6.892750732421875,-0.40597441778481,-0.0603232435375452,0.6218626093044877
1783696055616714800,6.90271484375,-0.44103228716254234,-0.05526654466986656,0.5872101058572531
1783696055626678800,6.9126787109375,-0.40278000565767286,0.004760930791497231,0.4438946177911013
1783696055636641800,6.922641845703125,-0.3558633561819792,0.045644145321846005,0.22105492663308976
1783696055646605800,6.932605712890625,-0.34880817697346206,0.10431377643346786,-0.023420805739052593
1783696055656569600,6.942569580078125,-0.3848766846984625,0.17813070779442786,-0.2521196712540463
1783696055666532900,6.952532958984375,-0.46471068439185614,0.276750071978569,-0.3885516103515401
1783696055676496600,6.96249658203125,-0.5264262590706348,0.37513913453817366,-0.4195206029804423
1783696055686460700,6.972460693359375,-0.5596966605097055,0.4496721052139997,-0.368120487947762
1783696055696424700,6.9824248046875,-0.4762210894435644,0.49259179400801656,-0.21177286515533922
1783696055706387700,6.9923876953125,-0.28837387427687644,0.48668929196596145,-0.043803778152167794
1783696055716351700,7.002351806640625,0.014456979897618292,0.4708651153683662,0.0817667213216424
1783696055726315800,7.012315673828125,0.3830763572782278,0.39181846666038034,0.147504244992882
1783696055736278800,7.02227880859375,0.6931003378272056,0.2629606160789728,0.21308950071185825
1783696055746242800,7.032242919921875,0.9066250150859355,0.06821136643886566,0.2197399715770036
1783696055756206800,7.042206787109375,0.9581938742816448,-0.12557809825837613,0.20588417244292795
1783696055766169600,7.052169677734375,0.9110188661307096,-0.24678572634756563,0.18515907206125556
1783696055776134000,7.0621337890625,0.8521943367183208,-0.3271978181898594,0.17517573044635354
1783696055786097700,7.07209765625,0.7945891199678182,-0.35493571994304657,0.21612368077598512
1783696055796061700,7.082061767578125,0.7101245378643274,-0.290776843765378,0.2675885681405663
1783696055806024400,7.0920244140625,0.5677046103984117,-0.2282178039997816,0.380680913509056
1783696055815988700,7.10198876953125,0.3627665596991777,-0.12023849079608917,0.4416385824926197
1783696055825952800,7.111952880859375,0.19051088141798972,-0.03593757482171058,0.40370011617727575
1783696055835915500,7.12191552734375,0.02624853997826576,-0.07223346156179905,0.40754283614531156
1783696055845879600,7.131879638671875,-0.15289514425098896,-0.11129939753711222,0.28192462507225574
1783696055855843800,7.14184375,-0.2930354363471269,-0.16618834106624125,0.011144932740181683
1783696055865806600,7.151806640625,-0.22616320955753325,-0.21437924826145172,-0.13688677019290627
1783696055875770600,7.1617705078125,-0.038410102415084836,-0.23330080635249614,-0.12803981219679117
1783696055885734700,7.171734619140625,0.12862170373797416,-0.25506255630552765,-0.0704373719252646
1783696055895697700,7.18169775390625,0.00666238049864769,-0.15834697991609573,0.012347221202030778
1783696055905661700,7.19166162109375,-0.11769815866351127,-0.12264146028459072,-0.05227474244274199
1783696055915625500,7.20162548828125,-0.21203765357136725,-0.20567337923645973,0.007099675937369466
1783696055925588500,7.21158837890625,-0.3547767299890518,-0.2190034009307623,0.16504318961910902
1783696055935552500,7.221552490234375,-0.40804713240563867,-0.1530588103801012,0.20257621693871913
1783696055945516500,7.2315166015625,-0.32834406561553475,-0.11678279738426207,0.20512685126960276
1783696055955480600,7.24148046875,-0.1578741017073393,-0.1546884574085474,0.2913553743056953
1783696055965443600,7.251443603515625,-0.01689092904627323,-0.17472294517755507,0.3480237485975027
1783696055975407600,7.26140771484375,0.06992518461942672,-0.18447393934130668,0.3591911854304373
1783696055985371600,7.27137158203125,0.03549918340444565,-0.18484335717558859,0.3456443791802972
1783696055995334700,7.281334716796875,-0.06578735416233539,-0.16418050837516784,0.31665552751794457
1783696056005298700,7.291298583984375,-0.14883096355199812,-0.16511574339866636,0.3609133330479264
1783696056015262700,7.3012626953125,-0.2568260588467121,-0.28825054015815255,0.5467307228874415
1783696056025225700,7.311225830078125,-0.30672435448169705,-0.5498784463286399,0.8511896166551858
1783696056035189500,7.321189453125,-0.23300796088576314,-0.7959078013509512,0.9761431532744318
1783696056045153500,7.331153564453125,-0.24126550162136554,-0.8686620719164609,0.7937709354527294
1783696056055116500,7.341116455078125,-0.41678456561267374,-0.8016378694355487,0.5065053877439349
1783696056065080600,7.35108056640625,-0.6642436611771583,-0.80959905757308,0.34707105098254976
1783696056075044600,7.361044677734375,-0.7640928594172001,-0.7992857533514499,0.28669432369209824
1783696056085008600,7.371008544921875,-0.7456248903125524,-0.6824737298727035,0.1952552264008671
1783696056094971600,7.3809716796875,-0.7703349686771631,-0.4107452854484319,0.05959193358831107
1783696056104935700,7.390935791015625,-0.8156365841716527,-0.1873228990316391,-0.019723156797513363
1783696056114899700,7.400899658203125,-0.8253717962443828,-0.023215455892682074,-0.05762194868959486
1783696056124862700,7.41086279296875,-0.66340136513412,0.10122574729025363,-0.047691067914292215
1783696056134826800,7.42082666015625,-0.49284138485491275,0.16321546273529527,-0.11034377731271088
1783696056144790500,7.43079052734375,-0.31781857994794843,0.24055998370051382,-0.20992146513499318
1783696056154753800,7.44075390625,-0.2225017644405365,0.27835224647819995,-0.24410752011425793
1783696056164717600,7.450717529296875,-0.1594289299339056,0.30919863564074035,-0.34681897591762245
1783696056174681600,7.460681640625,-0.1290776308119297,0.29246786559224125,-0.4751653698455542
1783696056184644600,7.47064453125,-0.1358224288970232,0.30924715095758437,-0.5371552314210682
1783696056194608600,7.480608642578125,-0.12401800933480261,0.453093896356225,-0.5929456538345664
1783696056204572700,7.49057275390625,-0.0857943694025278,0.6316051279008388,-0.6440210304249078
1783696056214536700,7.50053662109375,-0.020454759007692336,0.7470248202383518,-0.7259801325134932
1783696056224499700,7.510499755859375,0.039490298867225646,0.8711176483750342,-0.805760429258272
1783696056234463700,7.520463623046875,0.0680833561450243,1.049528342154622,-0.8426829965293406
1783696056244427800,7.530427734375,0.012160977914929389,1.205103519269824,-0.8650978035636245
1783696056254390800,7.540390869140625,-0.050529579275846476,1.3627473193526267,-0.906916983769834
1783696056264355000,7.55035498046875,-0.1608183384656906,1.3626608101129531,-0.8223501834008842
1783696056274318800,7.56031884765625,-0.27596856621205806,1.3331108905017375,-0.780976774200797
1783696056284281900,7.57028173828125,-0.2928554036051035,1.1755991923660039,-0.8789546256110071
1783696056294246000,7.580245849609375,-0.17739245664775372,0.8910463376820087,-0.9322276583760977
1783696056304210000,7.5902099609375,0.038866029489040374,0.6058949325829744,-1.0222724517647177
1783696056314173000,7.6001728515625,0.16372750391066074,0.38273733458220954,-1.0628296492110938
1783696056324137000,7.610136962890625,0.1398702429831028,0.24918343513906,-1.0542000602927057
1783696056334101000,7.62010107421875,0.11049217280745506,0.14447802903950213,-0.9642295742493122
1783696056344064000,7.63006396484375,0.13292963006496428,0.0018447510838508604,-0.8103498028751462
1783696056354028000,7.640028076171875,0.18642624245285988,-0.10371288793087005,-0.676013813143596
1783696056363992000,7.649991943359375,0.2102151143193245,-0.15445172604322432,-0.6042568830523639
1783696056373955800,7.659955810546875,0.18248890300393103,-0.16896598908603191,-0.5092005451120436
1783696056383919000,7.669919189453125,0.1343763217419386,-0.07557283511757851,-0.4612845093354582
1783696056393883000,7.6798828125,0.140170102712512,0.04836041854321956,-0.3997114849325269
1783696056403847000,7.689846923828125,0.1554980202257633,0.1370335582524538,-0.345428033015877
1783696056413810000,7.699809814453125,0.10019581972062587,0.25229835228919983,-0.3082839319486171
1783696056423774000,7.70977392578125,0.028441666108369824,0.38759471148550506,-0.3031013416789472
1783696056433738000,7.719738037109375,-0.049345922449231146,0.47553369170129295,-0.26878018907792867
1783696056443701000,7.729700927734375,-0.04162672637403011,0.5097328984230757,-0.23880466446578502
1783696056453665000,7.7396650390625,-0.012604630029201506,0.47667584747374053,-0.17562822345420717
1783696056463629000,7.749629150390625,0.03993570454716682,0.40494565925896164,-0.11714848889149725
1783696056473592000,7.759592041015625,0.11732815630733966,0.34541619644761085,-0.11826872509308159
1783696056483556000,7.76955615234375,0.19281389766335486,0.2089730053037405,-0.058566609128564595
1783696056493520100,7.77952001953125,0.28584932423532006,0.051181905704736706,-0.013468845643103121
1783696056503483100,7.789483154296875,0.3901426424026489,-0.06776362267136574,0.008385112638026476
1783696056513447200,7.799447265625,0.4851081602543592,-0.1886819124251604,0.041504415168613196
1783696056523411000,7.809410888671875,0.5432815322816371,-0.3395861751198768,0.09684132166095077
1783696056533375000,7.819375,0.5622182879418134,-0.4605921431571245,0.09887582316324114
1783696056543338000,7.829337890625,0.5384475362539292,-0.5190080917686224,0.05842785824500024
1783696056553302000,7.839302001953125,0.4507528861880302,-0.586798017925024,-0.029342122079432008
1783696056563266000,7.84926611328125,0.35570378170609473,-0.5780734441995621,-0.10015928710252046
1783696056573229000,7.85922900390625,0.3157505415022373,-0.4882552261084318,-0.11174429176039993
1783696056583193000,7.869193115234375,0.2634533680319786,-0.3949637789487839,-0.11445552348047494
1783696056593157000,7.8791572265625,0.18828677562773227,-0.28766777183413506,-0.11986366613432764
1783696056603119900,7.889119873046875,0.09602525603771209,-0.165681560587883,-0.14477781570367515
1783696056613084000,7.899083984375,0.1041769983112812,-0.06432137326300144,-0.12420965944938361
1783696056623048200,7.909048095703125,0.15400281323194503,-0.006632569882273674,-0.06194214997626841
1783696056633011000,7.919010986328125,0.2221253323435783,0.025533669707179067,0.030469884000346063
1783696056642975000,7.92897509765625,0.19474632703065872,0.06534194848239422,0.13689575721696018
1783696056652938800,7.938938720703125,0.2681903334259987,0.21075755063295362,0.18880488121770322
1783696056662901800,7.94890185546875,0.25709318535029885,0.15913491542339325,0.3111386637926101
1783696056672865800,7.95886572265625,0.24375498034954068,0.10968260999023914,0.3487121692530811
1783696056682829800,7.968829833984375,0.27608722415566445,0.09604746786952018,0.28182679072096944
1783696056692793900,7.9787939453125,0.2826929060310125,-0.026976854252815246,0.2975913460858166
1783696056702756900,7.9887568359375,0.24227847805619238,-0.10453940188288688,0.30632746411859985
1783696056712721000,7.998720947265625,0.12620529024600982,-0.13520108212828635,0.2085194163173437
1783696056722685000,8.008684814453124,-0.06102525432705879,-0.14466215343475342,0.1666091968268156
1783696056732648000,8.01864794921875,-0.2785708576649427,-0.14354805471301077,0.06883329772949218
1783696056742612000,8.028612060546875,-0.5005629190176725,-0.1419523099541664,-0.00898658566251397
1783696056752576000,8.038575927734374,-0.6452133820146322,-0.1843161184310913,-0.058609571487456553
1783696056762539000,8.0485390625,-0.6369079104840755,-0.2353244211345911,-0.12113953128904104
1783696056772502800,8.058502685546875,-0.5885176813244819,-0.3225689893454313,-0.20117855203524232
1783696056782466800,8.068466796875,-0.5834943002045154,-0.4245668900519609,-0.34435075917318464
1783696056792429800,8.078429931640626,-0.6819348006904125,-0.46666181845963,-0.4123126808956265
1783696056802393900,8.088393798828125,-0.7421446469813585,-0.5277092846184969,-0.36021015321463346
1783696056812358000,8.09835791015625,-0.7308534376382827,-0.7005459776580333,-0.1786778202831745
1783696056822321000,8.10832080078125,-0.5715712226986884,-0.9595610709816217,0.05102408479452133
1783696056832285000,8.118284912109376,-0.2815308765143156,-1.114188153591752,0.032891777385026216
1783696056842249000,8.1282490234375,-0.17105682388544083,-1.2187024210333823,-0.0897504135519266
1783696056852212000,8.1382119140625,-0.20333762976527212,-1.3217021922588348,-0.22595248941630125
1783696056862176000,8.148176025390624,-0.262525731793046,-1.2974515480995177,-0.5001227740347385
1783696056872140000,8.15814013671875,-0.4283744656413793,-1.0925088212251663,-0.8856415560290217
1783696056882103800,8.168103759765625,-0.7386404382526874,-0.7283475922971964,-1.2321835416361688
1783696056892067000,8.178067138671874,-1.083529395955801,-0.21037351975142954,-1.4828190752796828
1783696056902030800,8.18803076171875,-1.3159475742548703,0.2867413046389818,-1.5502251166850327
1783696056911995000,8.197994873046875,-1.3940402832388876,0.5928735384464263,-1.5553978431478142
1783696056921958000,8.2079580078125,-1.3522422919511794,0.7747095304995775,-1.4954852262377738
1783696056931922000,8.217921875,-1.28733873488605,0.9831032746106385,-1.3663966356404125
1783696056941886000,8.227885986328126,-1.1272639082640408,1.077397176811099,-1.2430530184358357
1783696056951849000,8.237848876953125,-0.8305705339312552,1.0471475844979286,-1.1328618744015693
1783696056961813000,8.24781298828125,-0.43553076713681216,0.8562094175785779,-1.0100544099003077
1783696056971777000,8.257777099609376,-0.04386018451452255,0.5900988130360841,-0.9530277236901223
1783696056981740000,8.267739990234375,0.21106617819070814,0.38844635987877846,-1.0100097670409829
1783696056991704000,8.2777041015625,0.27372458667755123,0.19784137043654917,-1.1255264900121837
1783696057001668000,8.287668212890624,0.14017828601896762,0.06999883437752723,-1.22065348203592
1783696057011631000,8.297631103515625,-0.023952537995576857,0.04028758672475814,-1.2764919083096087
1783696057021595000,8.307594970703125,-0.2031125888377428,0.1231125849276781,-1.2685254594750701
1783696057031559000,8.317558837890624,-0.42859599943757054,0.2109334917217493,-1.2629137570731341
1783696057041522000,8.32752197265625,-0.5698702639997005,0.31524200745820996,-1.1765806046187877
1783696057051486000,8.33748583984375,-0.5893740058928728,0.4134855240672827,-0.9401878236003219
1783696057061450000,8.347449951171875,-0.45014030724763865,0.48743338833153244,-0.6363656203009188
1783696057071414000,8.3574140625,-0.2278472171217203,0.4889812022954225,-0.3893278188884258
1783696057081377000,8.367376953125,-0.0650806671977043,0.4567015654593706,-0.22361951642408967
1783696057091341000,8.377341064453125,0.01583645155727863,0.43912148510515686,-0.18880115489065646
1783696057101305000,8.38730517578125,-0.03434416815042496,0.3786053493440151,-0.23549305569976567
1783696057111268000,8.39726806640625,-0.17417524816691873,0.34995617796480655,-0.33042101802006363
1783696057121232100,8.407232177734375,-0.3131897511035204,0.2999088292479515,-0.39746538650617
1783696057131196000,8.41719580078125,-0.4147726412683725,0.28732348844110966,-0.5147570101954042
1783696057141159200,8.4271591796875,-0.43106151276826854,0.3509615556150675,-0.6859177328467368
1783696057151123000,8.437123046875,-0.5259305845081805,0.4363935214459896,-0.8861623650327324
1783696057161087000,8.4470869140625,-0.7246674424797296,0.5876677864968777,-1.1270507039047777
1783696057171050000,8.457050048828124,-0.9574293196499347,0.7874579529136418,-1.2605316842421888
1783696057181014000,8.467013916015626,-1.1438608227998017,0.9682716161817312,-1.313640320225805
1783696057190978000,8.47697802734375,-1.1856564759999513,1.170451892605424,-1.3309607267305255
1783696057200940800,8.48694091796875,-1.1876777526944875,1.2658458650022744,-1.2898064401738345
1783696057210905000,8.496905029296874,-1.1123036550194025,1.3437860137730837,-1.2186140120975673
1783696057220869000,8.506869140625,-0.9286001155287027,1.2850497471660376,-1.1566988231934607
1783696057230831900,8.516831787109375,-0.650724838912487,1.1267179648190737,-1.0623140278391539
1783696057240796000,8.5267958984375,-0.24124796596467493,0.9442267237275839,-1.0001930872298777
1783696057250760000,8.536760009765626,0.2543640526473522,0.6956932769298553,-0.9971912750653922
1783696057260724200,8.54672412109375,0.6995417690515517,0.46641690378785133,-0.9929372708827257
1783696057270687200,8.556687255859375,1.0015993007659911,0.2762052975773811,-0.9470914655089377
1783696057280651300,8.5666513671875,1.0492553704321383,0.06516133121848106,-0.8643042420331388
1783696057290615300,8.576615234375,0.9245523014426231,-0.0351613297522068,-0.8414127573978155
1783696057300578300,8.586578369140625,0.8767676369607448,-0.10907120009362697,-0.7976167972259223
1783696057310542300,8.596542236328125,0.8276666291832924,-0.23767945982813835,-0.6422435724236071
1783696057320506400,8.60650634765625,0.7076561019241809,-0.18479191924929617,-0.547007494002208
1783696057330469400,8.616469482421875,0.5612333685576916,-0.07893325146138667,-0.5219787781424821
1783696057340433400,8.626433349609375,0.3698322603017091,0.021731939336657524,-0.482822460469976
1783696057350397400,8.6363974609375,0.13438976574540137,0.09420914652645587,-0.4624311220873147
1783696057360360400,8.6463603515625,-0.06786006878316402,0.1898012718439102,-0.5069770238436758
1783696057370324500,8.656324462890625,-0.1819634178251028,0.28736674306094645,-0.614996815188229
1783696057380288300,8.666288330078125,-0.27822014453113075,0.41207390370368957,-0.7107968841679394
1783696057390251500,8.67625146484375,-0.3668272332668304,0.5503519090592861,-0.7888364747252314
1783696057400215300,8.68621533203125,-0.46747079675495623,0.6913304055452346,-0.8135308440640568
1783696057410179300,8.696179443359375,-0.5390741437196731,0.79986384550035,-0.7686587790932505
1783696057420142000,8.70614208984375,-0.6007359423846006,0.8787164329409599,-0.6584007803678512
1783696057430106400,8.7161064453125,-0.6638017626285553,0.9410966090083122,-0.5550538031399249
1783696057440070400,8.7260703125,-0.7715338230729103,0.917299553835392,-0.4815996406767517
1783696057450034400,8.736034423828125,-0.8148819664120673,0.9129898739427328,-0.3938711614064872
1783696057459997200,8.7459970703125,-0.7232049687117338,0.8823498210072517,-0.3125507225476205
1783696057469961500,8.75596142578125,-0.5336141247481108,0.786592275995016,-0.27406214806884527
1783696057479925500,8.765925537109375,-0.3592699497550726,0.6752677440166474,-0.21032040132470428
1783696057489888300,8.77588818359375,-0.2580897951722145,0.6112170043885707,-0.1622892878010869
1783696057499852300,8.785852294921876,-0.2555447868645191,0.5742196913808584,-0.1292091482371092
1783696057509816300,8.79581640625,-0.3372065865069628,0.51947863188982,-0.06443367453105747
1783696057519779300,8.805779296875,-0.45136020443141456,0.4764110590577125,-0.04344458945095539
1783696057529743000,8.8157431640625,-0.5948293486893177,0.39948797837495803,-0.054952291088923806
1783696057539707100,8.82570703125,-0.6836743378341198,0.1734282291918993,0.06810812526009977
1783696057549670100,8.835670166015625,-0.5938426757395268,-0.07917407447993755,0.16839432667791843
1783696057559634200,8.84563427734375,-0.41473523186743255,-0.16087152995765208,-0.006008592765033244
1783696057569598200,8.85559814453125,-0.3698129710793495,-0.1648176372349262,-0.14705240957215426
1783696057579561200,8.865561279296875,-0.48258945543169973,-0.19073650686740873,-0.1135924769103527
1783696057589525200,8.875525146484375,-0.6060270345300436,-0.2728957346379757,-0.06509184617884457
1783696057599489300,8.8854892578125,-0.640892596206069,-0.25840894412398335,-0.09147643362693487
1783696057609452300,8.895452392578125,-0.6245347511231899,-0.1469546482861042,-0.179330585103482
1783696057619416300,8.905416259765625,-0.6554734947443008,-0.09096797264814377,-0.2230303914245218
1783696057629380400,8.91538037109375,-0.6047036769717932,-0.043704117169976235,-0.21986199052147565
1783696057639344000,8.92534423828125,-0.50590135743618,-0.014749240842461585,-0.18720796741507947
1783696057649307100,8.93530712890625,-0.40727848612070083,-0.021250293299555776,-0.14858283400982616
1783696057659271200,8.945271240234375,-0.30888182477653026,-0.04155599922537803,-0.1688424357715994
1783696057669235200,8.955235107421874,-0.27532383856773374,-0.04336918612718582,-0.1811035130601376
1783696057679198200,8.9651982421875,-0.2918605473488569,-0.08163608067929744,-0.18152115395031868
1783696057689162200,8.975162353515625,-0.3544365382492542,-0.08722177185714244,-0.20822810522057114
1783696057699126300,8.985126220703124,-0.42512744654417034,0.006726093384623527,-0.27315825803168114
1783696057709089300,8.99508935546875,-0.5109989728361368,0.13444412628114222,-0.2847654014561325
1783696057719053300,9.00505322265625,-0.5753507412374019,0.28573183533549307,-0.304034238614887
1783696057729017300,9.015017333984375,-0.596304097416997,0.3970750720143318,-0.3449770743779838
1783696057738980400,9.02498046875,-0.5710317089945077,0.4367424810141325,-0.3689129534997046
1783696057748944400,9.0349443359375,-0.4606009109854698,0.413007385161519,-0.39196781200319525
1783696057758908200,9.044908203125,-0.22118775923252104,0.31028233922421933,-0.4206754355713725
1783696057768871400,9.054871337890624,0.04693301608860492,0.17502981916964053,-0.4781958235826343
1783696057778835200,9.064835205078126,0.21839374459981917,0.05630290198028087,-0.5770183091234415
1783696057788799200,9.07479931640625,0.19214695818722247,-0.004284545451402664,-0.7626487980887293
1783696057798762200,9.08476220703125,-0.019748072043061254,0.060572834384441374,-0.9200746445719152
1783696057808726300,9.094726318359376,-0.16607552834153175,0.16230770024061203,-1.084107488104701
1783696057818690300,9.104690185546875,-0.23079028483629224,0.2668739901304245,-1.1531681648492813
1783696057828653300,9.1146533203125,-0.25248013859689233,0.33932430931329727,-1.274336337710917
1783696057838617300,9.124617431640624,-0.22751287060081957,0.548119619962573,-1.3119038518220185
1783696057848581400,9.134581298828126,-0.2061842513680458,0.6552209812879563,-1.308110450888425
1783696057858544400,9.14454443359375,-0.17558277687728405,0.7198357845395803,-1.2957827381044627
1783696057868508400,9.15450830078125,-0.03895546133816242,0.7366799518346786,-1.2686753893397749
1783696057878472400,9.164472412109374,0.046557753035426135,0.64221478472054,-1.173143762037903
1783696057888436200,9.174436279296875,0.0802262138813734,0.5316799418151378,-1.112137139346078
1783696057898399200,9.184399169921875,0.16621756716072558,0.3926344592183828,-1.1096565015114843
1783696057908363300,9.19436328125,0.24698154118061064,0.21126666919887066,-1.0614986198030412
1783696057918327300,9.204327392578126,0.3347118470817804,0.014586159235239027,-1.0827895373739302
1783696057928290300,9.214290283203125,0.4414566500544548,-0.1399964997112751,-1.1269837030831724
1783696057938254300,9.22425439453125,0.5267927542954683,-0.2603425425350666,-1.1792642176795751
1783696057948218400,9.23421826171875,0.5147188701421022,-0.35639702466726303,-1.1462010292503981
1783696057958181400,9.244181396484375,0.4137561577022075,-0.32067163129150866,-1.0999977156758307
1783696057968145400,9.2541455078125,0.32491818282008167,-0.22175825259685514,-1.0721515312425791
1783696057978109400,9.264109375,0.30237960327565666,-0.12493980035483837,-1.0777744856908917
1783696057988072400,9.274072509765626,0.38489363583326336,-0.026059739407896992,-1.1096261063732207
1783696057998036500,9.284036376953125,0.4655500578254461,0.052075639674067496,-1.1356070814564823
1783696058008000300,9.294000244140625,0.5322399137854575,0.0971837784230709,-1.0861248192764819
1783696058017963500,9.303963623046876,0.6378244408071041,0.10465513721704482,-0.973668360658735
1783696058027927300,9.31392724609375,0.7741992428898811,0.10795710137188434,-0.8434990621525794
1783696058037891300,9.323891357421875,0.9886310981214046,0.07450725171267986,-0.7436037597484886
1783696058047854000,9.33385400390625,1.1670593275576828,0.007187281155586242,-0.6680947836473584
1783696058057818000,9.343818115234376,1.2746458420515059,-0.1273123747050762,-0.6309653686925768
1783696058067782400,9.353782470703125,1.2219283973425625,-0.23535540079474448,-0.6111605249609798
1783696058077745200,9.3637451171875,1.2581670009374617,-0.3843663970887661,-0.5976137917760759
1783696058087709200,9.373709228515626,1.214269991543889,-0.5177636446654796,-0.4559899100586772
1783696058097673200,9.383673095703125,1.1077268486231564,-0.5570733262687921,-0.3924767113734036
1783696058107636200,9.39363623046875,1.0264145930707453,-0.6693371849238872,-0.3944699310172349
1783696058117600300,9.403600341796874,0.9915490313947201,-0.7034159801363945,-0.4313142454203218
1783696058127564300,9.413564208984376,0.9304255773901939,-0.8140618822008371,-0.41549905584678054
1783696058137528000,9.423528076171875,0.7735954317778349,-0.8595680803567171,-0.4417600169152021
1783696058147491300,9.4334912109375,0.4773328500777483,-0.8160854969829321,-0.4614158806301653
1783696058157455000,9.443455078125,0.1426496445685625,-0.7920031951278448,-0.4514163915980607
1783696058167419100,9.453419189453125,-0.10422843623757362,-0.7705126633316278,-0.4504691738758236
1783696058177382100,9.463382080078125,-0.24341361956596372,-0.7557172452598809,-0.4235831397116184
1783696058187346200,9.47334619140625,-0.3320803295344114,-0.7837859864026308,-0.4126297840207815
1783696058197310200,9.483310302734376,-0.38902269846200943,-0.7628688705801964,-0.36978820196427403
1783696058207273200,9.493273193359375,-0.4798989011734724,-0.7678282465532421,-0.345370165348798
1783696058217237200,9.5032373046875,-0.580291120249033,-0.7233516837060451,-0.3296876622442156
1783696058227201300,9.513201171875,-0.7040273900330066,-0.6260182676792144,-0.2951590774375945
1783696058237164300,9.523164306640625,-0.8202320952683687,-0.5119625571712851,-0.2901011364609003
1783696058247128300,9.53312841796875,-0.93608374928236,-0.37719285219758747,-0.2788604151960462
1783696058257092400,9.54309228515625,-1.0268921474546193,-0.24392156908810136,-0.24374234006367623
1783696058267055400,9.553055419921876,-0.9950175842881203,-0.12797142313569784,-0.22613391039781272
1783696058277019100,9.56301904296875,-0.9157435565650462,-0.061222530464828014,-0.17054551336243748
1783696058286983200,9.572983154296875,-0.8715519481390714,-0.011199147145450115,-0.1544885509222746
1783696058296946200,9.5829462890625,-0.860955735322833,-0.012810381734371185,-0.2005965143635869
1783696058306910200,9.59291015625,-0.8872136276513337,-0.09810264683365821,-0.20725005396865306
1783696058316874200,9.602874267578125,-0.8387059095919132,-0.37684710749983785,-0.08897840626612305
1783696058326837000,9.6128369140625,-0.6096627606838941,-0.6877145531356335,0.056043666522204875
1783696058336801000,9.622801025390626,-0.2811298944979906,-0.8897387622147798,0.0327937969032675
1783696058346765300,9.632765380859375,-0.0938069954663515,-0.8856973778694868,-0.2604797590486705
1783696058356728000,9.64272802734375,-0.22038111902475355,-0.7385486683160066,-0.620726298750937
1783696058366692000,9.652692138671876,-0.5760784709900617,-0.5221551576226949,-0.8918470596056431
1783696058376656100,9.66265625,-0.9342185399323701,-0.23035890768170356,-1.032456576648727
1783696058386620200,9.6726201171875,-1.121418689367175,0.10228197834491728,-0.988927231523767
1783696058396583200,9.682583251953124,-1.004913539880514,0.3614958091109991,-0.7615642907876521
1783696058406547000,9.692546875,-0.6273194134056568,0.4778320317715406,-0.46229821642264723
1783696058416511000,9.702510986328125,-0.18774667740166187,0.4519698607623577,-0.22993008781038224
1783696058426474000,9.712473876953124,0.21736381703019142,0.2947451628744602,-0.16804346741363405
1783696058436438000,9.72243798828125,0.4073404454410076,0.11183014341294764,-0.24450631017349658
1783696058446402000,9.732402099609375,0.4319137456834316,-0.11473638624846935,-0.3331861718844622
1783696058456365000,9.742364990234375,0.2642155845761299,-0.33497195932269097,-0.36180794380009174
1783696058466329000,9.7523291015625,-0.005314473021030426,-0.4278934041261673,-0.4540357803162187
1783696058476293000,9.762293212890626,-0.36878655064105986,-0.4088771534889936,-0.5699134455543011
1783696058486256000,9.772256103515625,-0.7270645667493343,-0.3320639629215002,-0.6561304973483085
1783696058496220200,9.78222021484375,-1.002407110017538,-0.10153320580422878,-0.785644400685653
1783696058506184200,9.79218408203125,-1.1569991213142872,0.19835282709002494,-0.8807185665436088
1783696058516147200,9.802147216796875,-1.2166998490393162,0.5432254181802273,-1.009381844400987
1783696058526111200,9.812111328125,-1.1725672773241995,0.8507248486876487,-1.0894099784269928
1783696058536075000,9.822074951171874,-1.125672839680314,1.060928857091069,-1.0813060208179055
1783696058546038300,9.832038330078126,-1.0217606297850608,1.1529682583630085,-1.0124928890936076
1783696058556002000,9.842001953125,-0.9033844257295132,1.1645312703847885,-0.9511956859573721
1783696058565966000,9.851966064453125,-0.7536176426321267,1.0890735860794782,-0.8647394185800105
1783696058575929000,9.86192919921875,-0.5087199219882488,1.0280500853180885,-0.7620115961637347
1783696058585893000,9.87189306640625,-0.2121346842050552,0.9341600877434014,-0.6082051092214882
1783696058595857200,9.881857177734375,-0.005956862577795982,0.8112918329656124,-0.44579058760553597
1783696058605820200,9.891820068359374,0.10062953496277331,0.7301695470273494,-0.3511519636206329
1783696058615784200,9.9017841796875,0.019221417820453644,0.6160895788609981,-0.29142317884489893
1783696058625748200,9.911748291015625,-0.18410802863836287,0.582883474829793,-0.08078750102594494
1783696058635711200,9.921711181640624,-0.4620680609285831,0.5104612126976251,0.0012847791135311127
1783696058645675300,9.93167529296875,-0.5742705447852611,0.5858715507298707,0.11860942828953265
1783696058655639300,9.941639404296875,-0.5177917017161846,0.6535282058954238,0.2869408457990736
1783696058665602300,9.951602294921875,-0.4965162739753723,0.6420259841501712,0.22447094562165437
1783696058675566000,9.961566162109374,-0.42438335017859935,0.6357961498498916,-0.1270056468434632
1783696058685530000,9.971530029296876,-0.4620949489355087,0.5991214929252863,-0.5746545756667852
1783696058695493000,9.9814931640625,-0.5696738646447658,0.5672586201965808,-1.036049194313213
1783696058705457200,9.99145703125,-0.794737004005909,0.5572404995292425,-1.443740425953269
1783696058715421200,10.001421142578126,-1.040470006430149,0.6096066465824842,-1.6735909457214175
1783696058725385200,10.01138525390625,-1.2135627200573682,0.7476280468285084,-1.7064694252334534
1783696058735348200,10.02134814453125,-1.3008628178477286,0.8913730854183435,-1.550806715965271
1783696058745312300,10.031312255859374,-1.2906336847782134,1.0974620597183704,-1.3517616688273846
1783696058755276300,10.0412763671875,-0.9283493556380271,1.089659277012944,-1.362427878139913
1783696058765239300,10.0512392578125,-0.541996753168106,0.9265624722212552,-1.148690069587156
1783696058775203300,10.061203369140625,-0.21060031424462794,0.757908617824316,-0.9742372465878725
1783696058785167000,10.0711669921875,0.021952304089069365,0.5729810894966125,-1.1615415139842777
1783696058795130400,10.08113037109375,0.21107202340960501,0.39309973864257336,-1.1605260533314197
1783696058805094100,10.09109423828125,0.371559522485733,0.18006839785873888,-1.1072143690563738
1783696058815058200,10.10105810546875,0.4559019395142793,0.06931377472281455,-1.0823442778244614
1783696058825021200,10.111021240234376,0.534814732709527,0.06250526375174523,-1.0239325669966637
1783696058834985200,10.120985107421875,0.5580997467070817,0.023483751440048217,-0.9236687966063618
1783696058844949200,10.13094921875,0.43662090046107765,0.025133856734633444,-0.7969130328707397
1783696058854912300,10.140912353515626,0.24732640909552572,0.07732230913341046,-0.7209023908577858
1783696058864876300,10.150876220703125,0.05819090768396854,0.15364859296679495,-0.686565529230982
1783696058874840300,10.16084033203125,-0.036838907575607295,0.2295586972147226,-0.6850140620052814
1783696058884803000,10.170802978515624,-0.09804477916657924,0.24638825146257876,-0.6789243668280541
1783696058894767400,10.180767333984376,-0.2017225957840681,0.267643220937252,-0.7149345684945583
1783696058904731400,10.1907314453125,-0.3556663723051548,0.2935878095328808,-0.8163174060426652
1783696058914694100,10.200694091796874,-0.4856581953525543,0.31893501675724983,-0.8928849512860179
1783696058924658200,10.210658203125,-0.6057575699388981,0.3421376131683588,-0.9376908922180532
1783696058934622000,10.2206220703125,-0.6719423989862203,0.3563444176971912,-1.0125988336861134
1783696058944585000,10.2305849609375,-0.6902192294329405,0.36463527618050573,-1.0436593039907514
1783696058954549000,10.240549072265624,-0.6462625988066196,0.3757733407884836,-1.0759523848302661
1783696058964513000,10.250512939453126,-0.5874953525394201,0.37319092307984825,-1.0596012617491184
1783696058974476000,10.26047607421875,-0.5491594844043255,0.3909492826104164,-0.9999535793855786
1783696058984440000,10.270440185546875,-0.5252548772037029,0.44788872892856596,-0.9250855315364896
1783696058994404000,10.280404052734376,-0.4314917208790779,0.5266431166917085,-0.8249234679549932
1783696059004367000,10.2903671875,-0.28228198714256286,0.6040156947076321,-0.7412598269708455
1783696059014331100,10.3003310546875,-0.30707331404983995,0.655821869790554,-0.7324744629688561
1783696059024295200,10.310295166015624,-0.46213235833644867,0.6560591856777668,-0.8599537186734377
1783696059034258200,10.320258056640625,-0.7043126367151736,0.6625596536129713,-0.9898983415782451
1783696059044222200,10.33022216796875,-0.8564666072100401,0.6781909379869699,-1.0606051780946553
1783696059054186000,10.34018603515625,-0.8439759589493274,0.6935200245440006,-1.0989506908409297
1783696059064149200,10.350149169921876,-0.7439660171896219,0.7489157485514879,-1.0828569035217166
1783696059074113000,10.360113037109375,-0.6577601443767547,0.7283633743882179,-0.9865366100601851
1783696059084077000,10.3700771484375,-0.5001543382167816,0.6289531520873308,-0.8701324367299675
1783696059094040000,10.3800400390625,-0.2823065370619297,0.6760492497831583,-0.7621639371812343
1783696059104004000,10.390004150390626,-0.3875456116467714,0.8534662563502788,-0.8033154472589492
1783696059113968000,10.399968017578125,0.2842886507898569,0.9749199681550264,-0.3382983272664249
1783696059123932200,10.40993212890625,0.48455169541537757,0.8611118026673793,-0.015071458534151315
1783696059133895200,10.419895263671876,0.21023674162924288,0.7237216860622168,-0.11696677564904093
1783696059143859200,10.429859130859375,-0.17007541163265705,0.4241308367222547,-0.25035773961544033
1783696059153823200,10.4398232421875,-0.2333972524642944,0.0846142197072506,-0.2867958843704313
1783696059163786200,10.4497861328125,-0.4007131362557411,-0.07737316253781318,-0.4094721967726946
1783696059173750300,10.459750244140626,-0.5930068094372749,-0.009564531680941582,-0.5978869826942682
1783696059183714000,10.469714111328125,-0.6406669707566499,0.04251519964635372,-0.5631576146185397
1783696059193677300,10.47967724609375,-0.5892307980298995,0.19229367318153381,-0.4323917384587228
