time,seconds_elapsed,z,y,x
1783696081468796000,0.0627958984375,-1.0424567461013794,-0.719595730304718,0.4818888306617737
1783696081478759700,0.072759765625,-1.0175760984420776,-0.6636863946914673,0.47425514459609985
1783696081488723700,0.0827236328125,-0.973737359046936,-0.6472267508506775,0.41091737151145935
1783696081498686700,0.092686767578125,-0.9272974133491516,-0.6508190631866455,0.3163919150829315
1783696081508650800,0.102650634765625,-0.9044548273086548,-0.64613938331604,0.21583832800388336
1783696081518613800,0.11261376953125,-0.9003865718841553,-0.618206262588501,0.11858288943767548
1783696081528577800,0.122577880859375,-0.9217336773872375,-0.5783529877662659,0.045080557465553284
1783696081538541800,0.132541748046875,-0.9633479714393616,-0.5387952327728271,0.013164966367185116
1783696081548504800,0.1425048828125,-1.0092977285385132,-0.5022527575492859,0.019119195640087128
1783696081558468900,0.15246875,-1.041814923286438,-0.46953052282333374,0.04886510595679283
1783696081568431900,0.162431884765625,-1.0508016347885132,-0.4407574534416199,0.09049529582262039
1783696081578396000,0.17239599609375,-1.0395201444625854,-0.41836851835250854,0.13757678866386414
1783696081588360000,0.18235986328125,-1.0128436088562012,-0.436014860868454,0.16926151514053345
1783696081598323000,0.192322998046875,-0.9801008701324463,-0.5069827437400818,0.18264976143836975
1783696081608287000,0.202286865234375,-0.9482455849647522,-0.581234872341156,0.17314910888671875
1783696081618250000,0.21225,-0.9329369068145752,-0.6388489007949829,0.14362077414989471
1783696081628213800,0.2222138671875,-0.9321010112762451,-0.6793766617774963,0.11290911585092545
1783696081638177800,0.232177734375,-0.9372515678405762,-0.6952229738235474,0.09155455976724625
1783696081648140800,0.242140869140625,-0.9486749172210693,-0.6928492188453674,0.08603395521640778
1783696081658104800,0.252104736328125,-0.9666075706481934,-0.7103230357170105,0.07198365032672882
1783696081668067600,0.262067626953125,-0.9766876101493835,-0.735608696937561,0.05895410478115082
1783696081678032000,0.272031982421875,-0.987194836139679,-0.7345806956291199,0.056597739458084106
1783696081687994600,0.28199462890625,-0.9956530332565308,-0.7200713157653809,0.0669984295964241
1783696081697958700,0.291958740234375,-1.0067740678787231,-0.7229201197624207,0.082173652946949
1783696081707922700,0.301922607421875,-1.0291467905044556,-0.7464712262153625,0.0982908383011818
1783696081717885700,0.3118857421875,-1.0519862174987793,-0.7437156438827515,0.1259211301803589
1783696081727849700,0.321849609375,-1.077798843383789,-0.7292504906654358,0.1610509753227234
1783696081737812700,0.331812744140625,-1.1075721979141235,-0.7240661382675171,0.18729110062122345
1783696081747776800,0.34177685546875,-1.137172818183899,-0.725341796875,0.19694016873836517
1783696081757740800,0.35174072265625,-1.1646367311477661,-0.7344005107879639,0.1829841434955597
1783696081767703800,0.361703857421875,-1.1927540302276611,-0.7560727596282959,0.15314394235610962
1783696081777667800,0.371667724609375,-1.2134755849838257,-0.7834873199462891,0.12355462461709976
1783696081787630800,0.381630859375,-1.2233613729476929,-0.7982009053230286,0.10054444521665573
1783696081797595000,0.391594970703125,-1.2250410318374634,-0.7931342124938965,0.08756925910711288
1783696081807558700,0.40155859375,-1.2262725830078125,-0.781470775604248,0.08149322122335434
1783696081817522000,0.41152197265625,-1.2204506397247314,-0.7695877552032471,0.06885651499032974
1783696081827485700,0.421485595703125,-1.2161321640014648,-0.7476379871368408,0.04890414699912071
1783696081837449000,0.431448974609375,-1.2140247821807861,-0.728866696357727,0.008369768969714642
1783696081847412700,0.441412841796875,-1.2081615924835205,-0.7013480067253113,-0.03735177218914032
1783696081857376800,0.451376708984375,-1.2026915550231934,-0.6735619306564331,-0.07918284088373184
1783696081867339800,0.46133984375,-1.2072055339813232,-0.6643775701522827,-0.10497116297483444
1783696081877303800,0.4713037109375,-1.2176557779312134,-0.6697102785110474,-0.10553069412708282
1783696081887266800,0.481266845703125,-1.2309322357177734,-0.6790915131568909,-0.08773209899663925
1783696081897230800,0.49123095703125,-1.2405760288238525,-0.6967453360557556,-0.06063470244407654
1783696081907195000,0.50119482421875,-1.2472469806671143,-0.7282538414001465,-0.0470476932823658
1783696081917158000,0.511157958984375,-1.2450248003005981,-0.7542678713798523,-0.047266874462366104
1783696081927122000,0.521121826171875,-1.2430144548416138,-0.7469287514686584,-0.04462788626551628
1783696081937085000,0.5310849609375,-1.2341210842132568,-0.7320403456687927,-0.0491294264793396
1783696081947049000,0.541049072265625,-1.2246989011764526,-0.710271418094635,-0.054604966193437576
1783696081957011700,0.55101171875,-1.2188873291015625,-0.6775491833686829,-0.04879767820239067
1783696081966976000,0.56097607421875,-1.214582920074463,-0.6393588781356812,-0.04144761711359024
1783696081976940000,0.57093994140625,-1.2084296941757202,-0.6048145294189453,-0.032577428966760635
1783696081986902800,0.58090283203125,-1.1997772455215454,-0.5761298537254333,-0.026713306084275246
1783696081996866800,0.59086669921875,-1.1890681982040405,-0.5714626908302307,-0.022897794842720032
1783696082006830800,0.600830810546875,-1.1810559034347534,-0.5910289287567139,-0.026070870459079742
1783696082016793600,0.610793701171875,-1.1781094074249268,-0.6184563040733337,-0.030908770859241486
1783696082026757600,0.620757568359375,-1.1746761798858643,-0.6430089473724365,-0.016499584540724754
1783696082036720600,0.630720703125,-1.1779502630233765,-0.6662801504135132,0.007018257863819599
1783696082046684700,0.6406845703125,-1.1780427694320679,-0.6691209673881531,0.022993016988039017
1783696082056647700,0.650647705078125,-1.1797953844070435,-0.6465808153152466,0.03384273871779442
1783696082066611700,0.66061181640625,-1.1833041906356812,-0.6180189847946167,0.03950909525156021
1783696082076575700,0.67057568359375,-1.1775182485580444,-0.5870925188064575,0.04538988694548607
1783696082086538800,0.680538818359375,-1.1634204387664795,-0.5596498250961304,0.05353150516748428
1783696082096502800,0.690502685546875,-1.1494393348693848,-0.5504547357559204,0.05779042840003967
1783696082106465800,0.7004658203125,-1.1361764669418335,-0.5677165985107422,0.06517328321933746
1783696082116429800,0.710429931640625,-1.1254476308822632,-0.5986769199371338,0.08516909182071686
1783696082126393900,0.720393798828125,-1.1124436855316162,-0.6300923228263855,0.11704596132040024
1783696082136356900,0.73035693359375,-1.099812626838684,-0.6548925042152405,0.14946062862873077
1783696082146321000,0.74032080078125,-1.0874522924423218,-0.6809239387512207,0.16761165857315063
1783696082156284000,0.750283935546875,-1.0650864839553833,-0.6897674798965454,0.17972718179225922
1783696082166248000,0.760248046875,-1.0359396934509277,-0.6847147345542908,0.19435849785804749
1783696082176211700,0.770211669921875,-1.005800724029541,-0.6859213709831238,0.20317542552947998
1783696082186175000,0.780175048828125,-0.9702000617980957,-0.685956597328186,0.2027451992034912
1783696082196138800,0.790138671875,-0.9326415061950684,-0.6728456020355225,0.2037433534860611
1783696082206102000,0.80010205078125,-0.8897669315338135,-0.6286835074424744,0.21780771017074585
1783696082216065800,0.810065673828125,-0.8437605500221252,-0.5661290287971497,0.241311177611351
1783696082226029800,0.82002978515625,-0.7904068231582642,-0.49910756945610046,0.2623497545719147
1783696082235992800,0.829992919921875,-0.7212772965431213,-0.4351421594619751,0.2633095681667328
1783696082245956900,0.839956787109375,-0.6503678560256958,-0.415681391954422,0.23934096097946167
1783696082255919600,0.849919677734375,-0.595274806022644,-0.4595652222633362,0.201582133769989
1783696082265884000,0.8598837890625,-0.5614248514175415,-0.5670521855354309,0.1663559079170227
1783696082275846700,0.8698466796875,-0.549140214920044,-0.6334387063980103,0.1577235460281372
1783696082285810700,0.879810791015625,-0.5682590007781982,-0.6672635674476624,0.1562071144580841
1783696082295774700,0.889774658203125,-0.5895832180976868,-0.6722897291183472,0.15009835362434387
1783696082305737700,0.89973779296875,-0.6046169996261597,-0.6222286820411682,0.1389339566230774
1783696082315701800,0.90970166015625,-0.5988717079162598,-0.5253932476043701,0.11979835480451584
1783696082325664800,0.919664794921875,-0.5679341554641724,-0.4262368679046631,0.0811733826994896
1783696082335628800,0.92962890625,-0.5193074941635132,-0.3542904853820801,0.02928115986287594
1783696082345592800,0.9395927734375,-0.45554640889167786,-0.31782376766204834,-0.025087790563702583
1783696082355555800,0.949555908203125,-0.3925943374633789,-0.34542131423950195,-0.06963608413934708
1783696082365520000,0.959519775390625,-0.3422483503818512,-0.42241668701171875,-0.09448418766260147
1783696082375483000,0.96948291015625,-0.3159389793872833,-0.501151978969574,-0.09250785410404205
1783696082385447000,0.979447021484375,-0.3055608570575714,-0.5522035956382751,-0.06343626230955124
1783696082395410700,0.98941064453125,-0.3032154142856598,-0.5625036358833313,-0.015055679716169834
1783696082405373700,0.999373779296875,-0.30406486988067627,-0.5322344899177551,0.04479150101542473
1783696082415337700,1.009337646484375,-0.30296605825424194,-0.47222548723220825,0.09449673444032669
1783696082425300700,1.01930078125,-0.2920241057872772,-0.4104189872741699,0.13203580677509308
1783696082435264800,1.0292646484375,-0.26628997921943665,-0.3476639986038208,0.1526859551668167
1783696082445227500,1.0392275390625,-0.23625093698501587,-0.30179426074028015,0.16061528027057648
1783696082455191600,1.049191650390625,-0.20710396766662598,-0.282752126455307,0.1565646231174469
1783696082465155800,1.05915576171875,-0.17704534530639648,-0.27628257870674133,0.15206147730350494
1783696082475118600,1.06911865234375,-0.16094307601451874,-0.29460299015045166,0.16187149286270142
1783696082485082600,1.07908251953125,-0.15835094451904297,-0.30944833159446716,0.19402365386486053
1783696082495045600,1.089045654296875,-0.16314543783664703,-0.3132406771183014,0.24279466271400452
1783696082505009700,1.099009765625,-0.17735256254673004,-0.31913143396377563,0.2833922803401947
1783696082514973700,1.1089736328125,-0.19929355382919312,-0.3405832052230835,0.2943194806575775
1783696082524936700,1.118936767578125,-0.22452805936336517,-0.36803877353668213,0.2714529037475586
1783696082534900700,1.128900634765625,-0.24365808069705963,-0.39216673374176025,0.2328895479440689
1783696082544863700,1.13886376953125,-0.25785210728645325,-0.4001368284225464,0.18863573670387268
1783696082554827800,1.148827880859375,-0.262277215719223,-0.39614740014076233,0.13873527944087982
1783696082564791600,1.15879150390625,-0.2601932883262634,-0.3701377809047699,0.09889961034059525
1783696082574754800,1.1687548828125,-0.25890353322029114,-0.30810824036598206,0.07694318145513535
1783696082584718600,1.178718505859375,-0.2620936930179596,-0.21951021254062653,0.05996803194284439
1783696082594681900,1.188681884765625,-0.2671055197715759,-0.12987273931503296,0.028835412114858627
1783696082604645600,1.198645751953125,-0.2679641842842102,-0.0492420420050621,-0.013726914301514626
1783696082614608600,1.208608642578125,-0.2587653696537018,0.03250768408179283,-0.05630819499492645
1783696082624572700,1.21857275390625,-0.236652210354805,0.12437140941619873,-0.09270873665809631
1783696082634536700,1.22853662109375,-0.20728473365306854,0.22836385667324066,-0.11452695727348328
1783696082644499700,1.238499755859375,-0.182466059923172,0.32058990001678467,-0.10856661945581436
1783696082654463700,1.248463623046875,-0.15869788825511932,0.38322877883911133,-0.08650632947683334
1783696082664426800,1.2584267578125,-0.12816131114959717,0.43537938594818115,-0.0647173821926117
1783696082674390800,1.268390869140625,-0.10065564513206482,0.4427238702774048,-0.04554981365799904
1783696082684354800,1.278354736328125,-0.07627375423908234,0.42767706513404846,-0.03145855665206909
1783696082694317800,1.28831787109375,-0.04967064410448074,0.3969399333000183,-0.00956657249480486
1783696082704281900,1.29828173828125,-0.018526216968894005,0.36027392745018005,0.01647750847041607
1783696082714244900,1.308244873046875,0.011983753181993961,0.3335499167442322,0.03441789373755455
1783696082724209000,1.318208984375,0.048277221620082855,0.325158953666687,0.03280458599328995
1783696082734173000,1.3281728515625,0.07877334952354431,0.3236457407474518,0.016321483999490738
1783696082744135700,1.3381357421875,0.1025087758898735,0.30825185775756836,-0.00842407625168562
1783696082754100000,1.348099853515625,0.1228523924946785,0.2855936884880066,-0.02260620705783367
1783696082764062700,1.358062744140625,0.13129711151123047,0.2489514946937561,-0.026904864236712456
1783696082774026800,1.36802685546875,0.13812465965747833,0.19962894916534424,-0.014010904356837273
1783696082783990500,1.377990478515625,0.14184759557247162,0.15776309370994568,0.016709791496396065
1783696082793953500,1.38795361328125,0.1356765329837799,0.11811769008636475,0.05220360308885574
1783696082803917600,1.39791748046875,0.12353553622961044,0.07939518988132477,0.07243321090936661
1783696082813880600,1.407880615234375,0.10695575922727585,0.04464786499738693,0.07727190107107162
1783696082823844600,1.4178447265625,0.07990852743387222,0.012080295942723751,0.0666695386171341
1783696082833807600,1.4278076171875,0.05011202022433281,-0.009219666011631489,0.040982555598020554
1783696082843771600,1.437771728515625,0.02805251069366932,-0.010133808478713036,0.014168137684464455
1783696082853735700,1.447735595703125,0.005243866704404354,0.00662759505212307,-0.004478516988456249
1783696082863698700,1.45769873046875,-0.022424230352044106,0.006602973211556673,-0.01503783743828535
1783696082873662700,1.467662841796875,-0.046902675181627274,-0.01845364458858967,-0.01662428118288517
1783696082883625700,1.477625732421875,-0.06074998527765274,-0.05123255029320717,-0.0061462437734007835
1783696082893589800,1.48758984375,-0.0692494660615921,-0.0895671620965004,0.01541284378618002
1783696082903553800,1.4975537109375,-0.0672185868024826,-0.13261660933494568,0.043615877628326416
1783696082913516800,1.507516845703125,-0.06677144020795822,-0.20326627790927887,0.08539767563343048
1783696082923480800,1.517480712890625,-0.08411257714033127,-0.28681614995002747,0.13122494518756866
1783696082933443800,1.52744384765625,-0.10252886265516281,-0.35695183277130127,0.19078148901462555
1783696082943407900,1.537407958984375,-0.1076056957244873,-0.38883352279663086,0.2558736801147461
1783696082953371000,1.547370849609375,-0.10992024838924408,-0.3904024064540863,0.3028867244720459
1783696082963335000,1.5573349609375,-0.10395971685647964,-0.3805486559867859,0.32942134141921997
1783696082973298700,1.567298583984375,-0.09099837392568588,-0.34988313913345337,0.33436790108680725
1783696082983261700,1.57726171875,-0.07251176983118057,-0.27979418635368347,0.3254685699939728
1783696082993225700,1.587225830078125,-0.04305187985301018,-0.17039421200752258,0.30210360884666443
1783696083003188700,1.597188720703125,-0.011642093770205975,-0.07137883454561234,0.2513028681278229
1783696083013152800,1.60715283203125,0.011117546819150448,0.0012543568154796958,0.17450688779354095
1783696083023116800,1.61711669921875,0.012172633782029152,0.058108821511268616,0.0837344080209732
1783696083033079600,1.62707958984375,-0.009327597916126251,0.07437141239643097,-0.0043565696105360985
1783696083043043600,1.637043701171875,-0.04464316368103027,0.04618402197957039,-0.08074191212654114
1783696083053006600,1.647006591796875,-0.08978401124477386,-0.015302777290344238,-0.1389511525630951
1783696083062970600,1.656970703125,-0.13182267546653748,-0.07483173161745071,-0.17624081671237946
1783696083072933600,1.66693359375,-0.1538267731666565,-0.10422556847333908,-0.1925598680973053
1783696083082897700,1.676897705078125,-0.16057787835597992,-0.09408624470233917,-0.20065069198608398
1783696083092861700,1.68686181640625,-0.16001488268375397,-0.04295514523983002,-0.20225311815738678
1783696083102824700,1.69682470703125,-0.14778311550617218,0.035640180110931396,-0.19525958597660065
1783696083112788700,1.706788818359375,-0.12709195911884308,0.12850087881088257,-0.1884794533252716
1783696083122751700,1.716751708984375,-0.1082114651799202,0.2137732058763504,-0.18234500288963318
1783696083132715800,1.7267158203125,-0.08587367087602615,0.2607673406600952,-0.17450998723506927
1783696083142679800,1.7366796875,-0.08417084813117981,0.2480935901403427,-0.16888470947742462
1783696083152642800,1.746642822265625,-0.09857295453548431,0.18827499449253082,-0.16784846782684326
1783696083162606600,1.756606689453125,-0.12113408744335175,0.09695889055728912,-0.15279313921928406
1783696083172569900,1.76656982421875,-0.15120145678520203,-0.019775448366999626,-0.10963767766952515
1783696083182533600,1.77653369140625,-0.17666637897491455,-0.1531374305486679,-0.030448829755187035
1783696083192497000,1.786496826171875,-0.19441287219524384,-0.2784421145915985,0.07373429834842682
1783696083202460700,1.796460693359375,-0.19946599006652832,-0.3547993302345276,0.18475310504436493
1783696083212424700,1.8064248046875,-0.19711148738861084,-0.3732989728450775,0.2775232791900635
1783696083222387700,1.8163876953125,-0.18835760653018951,-0.35190919041633606,0.33995264768600464
1783696083232351700,1.826351806640625,-0.17570413649082184,-0.3139287829399109,0.3574323058128357
1783696083242314800,1.836314697265625,-0.16898676753044128,-0.2806977331638336,0.3265782296657562
1783696083252278800,1.84627880859375,-0.17434798181056976,-0.25481367111206055,0.2595602869987488
1783696083262242800,1.856242919921875,-0.18388476967811584,-0.21255414187908173,0.19214889407157898
1783696083272205800,1.866205810546875,-0.19884774088859558,-0.1492159068584442,0.14484450221061707
1783696083282169900,1.876169921875,-0.20584066212177277,-0.06896444410085678,0.12943372130393982
1783696083292134400,1.886134521484375,-0.20098944008350372,0.012967176735401154,0.13373792171478271
1783696083302098200,1.89609814453125,-0.18821267783641815,0.06844791769981384,0.13777369260787964
1783696083312062200,1.906062255859375,-0.17043927311897278,0.09359641373157501,0.12151721864938736
1783696083322025200,1.916025146484375,-0.14649182558059692,0.09033050388097763,0.08174022287130356
1783696083331989200,1.9259892578125,-0.12598761916160583,0.07989410310983658,0.022699004039168358
1783696083341952300,1.9359521484375,-0.10914047807455063,0.0649520754814148,-0.04904734343290329
1783696083351916300,1.945916259765625,-0.09431971609592438,0.05117448419332504,-0.1251857727766037
1783696083361879300,1.95587939453125,-0.07010159641504288,0.03247889131307602,-0.18937307596206665
1783696083371843300,1.96584326171875,-0.0624263659119606,0.031301237642765045,-0.24238303303718567
1783696083381807400,1.975807373046875,-0.058235298842191696,0.03979417681694031,-0.29471713304519653
1783696083391770400,1.985770263671875,-0.02431941032409668,0.04716873541474342,-0.34255334734916687
1783696083401734400,1.995734375,0.004098707344383001,0.09152437746524811,-0.36586442589759827
1783696083411697400,2.005697509765625,0.03551921620965004,0.14330102503299713,-0.3627048432826996
1783696083421661400,2.015661376953125,0.07437992095947266,0.17035862803459167,-0.33653271198272705
1783696083431624400,2.02562451171875,0.10595941543579102,0.16337262094020844,-0.28530654311180115
1783696083441588500,2.03558837890625,0.12760590016841888,0.11631401628255844,-0.2187177985906601
1783696083451552500,2.045552490234375,0.15077833831310272,0.048400744795799255,-0.1393366903066635
1783696083461515500,2.055515625,0.17197370529174805,-0.022304680198431015,-0.0627845823764801
1783696083471479300,2.065479248046875,0.18189451098442078,-0.0817783921957016,-0.001459970255382359
1783696083481442300,2.0754423828125,0.18262946605682373,-0.12565025687217712,0.041004594415426254
1783696083491406000,2.085406005859375,0.17538540065288544,-0.148115873336792,0.06045179441571236
1783696083501370400,2.095370361328125,0.16118410229682922,-0.13819417357444763,0.06527982652187347
1783696083511333000,2.1053330078125,0.13868679106235504,-0.10504686832427979,0.05425913631916046
1783696083521297200,2.115297119140625,0.10860764980316162,-0.09587439894676208,0.01505888532847166
1783696083531260200,2.12526025390625,0.08704856038093567,-0.09129828959703445,-0.03484582528471947
1783696083541224200,2.13522412109375,0.06981808692216873,-0.06178402528166771,-0.07326480001211166
1783696083551188200,2.145188232421875,0.05778805911540985,-0.010501130484044552,-0.08500880748033524
1783696083561151200,2.155151123046875,0.05078420042991638,0.04892241954803467,-0.08248358219861984
1783696083571115300,2.165115234375,0.047552186995744705,0.11390674859285355,-0.07284506410360336
1783696083581078300,2.175078369140625,0.04258766770362854,0.1783524751663208,-0.06111497804522514
1783696083591042300,2.185042236328125,0.04398849233984947,0.24728386104106903,-0.048242323100566864
1783696083601005300,2.19500537109375,0.05611351132392883,0.3076193034648895,-0.03344110772013664
1783696083610969300,2.20496923828125,0.0751122385263443,0.36273449659347534,-0.018846187740564346
1783696083620933400,2.214933349609375,0.09896750003099442,0.3972187042236328,-0.0034730900079011917
1783696083630896400,2.224896484375,0.11937566846609116,0.41249310970306396,0.00631771981716156
1783696083640860400,2.2348603515625,0.14430855214595795,0.41083669662475586,0.01046872790902853
1783696083650823400,2.244823486328125,0.16950684785842896,0.38570523262023926,0.02469533309340477
1783696083660787500,2.254787353515625,0.19157855212688446,0.35819852352142334,0.054666969925165176
1783696083670751200,2.264751220703125,0.2193811535835266,0.330798864364624,0.09067583829164505
1783696083680714500,2.274714599609375,0.24971839785575867,0.3141815960407257,0.13367889821529388
1783696083690678300,2.28467822265625,0.2838989794254303,0.3112092614173889,0.18179024755954742
1783696083700641300,2.294641357421875,0.32848066091537476,0.3313233256340027,0.22389745712280273
1783696083710605300,2.304605224609375,0.38412317633628845,0.36305221915245056,0.24675136804580688
1783696083720568300,2.314568359375,0.44204118847846985,0.3520384132862091,0.24351249635219574
1783696083730532400,2.324532470703125,0.48853251338005066,0.28644928336143494,0.21668247878551483
1783696083740496400,2.334496337890625,0.5015676021575928,0.19263039529323578,0.1858014166355133
1783696083750459100,2.344459228515625,0.48124420642852783,0.11762751638889313,0.16241274774074554
1783696083760423400,2.35442333984375,0.43784937262535095,0.09546457231044769,0.15676775574684143
1783696083770386200,2.36438623046875,0.3772432804107666,0.13139620423316956,0.18264222145080566
1783696083780350200,2.37435009765625,0.3236507177352905,0.2380460649728775,0.23661178350448608
1783696083790314200,2.384314208984375,0.29348641633987427,0.41139334440231323,0.2962607443332672
1783696083800277200,2.39427734375,0.3040827214717865,0.5925289988517761,0.33412206172943115
1783696083810241300,2.4042412109375,0.35077834129333496,0.698486328125,0.3275802731513977
1783696083820204300,2.414204345703125,0.40622788667678833,0.6881894469261169,0.28216010332107544
1783696083830168300,2.424168212890625,0.45520713925361633,0.585236668586731,0.22479136288166046
1783696083840131300,2.43413134765625,0.47951897978782654,0.4506588876247406,0.16507351398468018
1783696083850095400,2.444095458984375,0.47416576743125916,0.30732864141464233,0.11809775233268738
1783696083860059100,2.45405908203125,0.4307078421115875,0.1794208288192749,0.09356027841567993
1783696083870022400,2.4640224609375,0.36017030477523804,0.08851248770952225,0.08776816725730896
1783696083879986200,2.473986083984375,0.2913936376571655,0.06819740682840347,0.09074997156858444
1783696083889949400,2.483949462890625,0.25455066561698914,0.11830238252878189,0.09227809309959412
1783696083899913200,2.493913330078125,0.2543296813964844,0.23047210276126862,0.08757386356592178
1783696083909877200,2.503877197265625,0.2903396189212799,0.3545368015766144,0.07012243568897247
1783696083919840300,2.51384033203125,0.35199102759361267,0.47898703813552856,0.035641398280858994
1783696083929804300,2.52380419921875,0.433184415102005,0.6066861748695374,-0.013441991060972214
1783696083939767300,2.533767333984375,0.5222810506820679,0.7205101251602173,-0.05902108550071716
1783696083949731300,2.5437314453125,0.5894718170166016,0.7945337891578674,-0.10625757277011871
1783696083959694300,2.5536943359375,0.636087954044342,0.8118525743484497,-0.15569593012332916
1783696083969658400,2.563658447265625,0.6671361923217773,0.7816835045814514,-0.19318552315235138
1783696083979622400,2.573622314453125,0.6833901405334473,0.7222051620483398,-0.20873965322971344
1783696083989585400,2.58358544921875,0.6869456768035889,0.639410674571991,-0.19233644008636475
1783696083999549400,2.593549560546875,0.6827446818351746,0.5459688305854797,-0.16148443520069122
1783696084009512400,2.603512451171875,0.6649012565612793,0.43573495745658875,-0.14323939383029938
1783696084019476500,2.6134765625,0.6428691148757935,0.30770641565322876,-0.15758606791496277
1783696084029440500,2.6234404296875,0.6222555041313171,0.19059602916240692,-0.1937030553817749
1783696084039403300,2.6334033203125,0.6056575775146484,0.08866949379444122,-0.24217872321605682
1783696084049367600,2.643367431640625,0.5896405577659607,0.002389736007899046,-0.29686805605888367
1783696084059330300,2.653330322265625,0.5816722512245178,-0.05326424166560173,-0.3483722507953644
1783696084069294300,2.66329443359375,0.5846595168113708,-0.06287719309329987,-0.382619708776474
1783696084079257300,2.67325732421875,0.5940694212913513,-0.020645778626203537,-0.3968104124069214
1783696084089221000,2.68322119140625,0.6028213500976562,0.059828825294971466,-0.389555960893631
1783696084099185200,2.69318505859375,0.6073139905929565,0.1509990394115448,-0.36443203687667847
1783696084109148200,2.703148193359375,0.5987194776535034,0.2274021953344345,-0.32385531067848206
1783696084119112200,2.7131123046875,0.5803085565567017,0.273701012134552,-0.27516478300094604
1783696084129075200,2.7230751953125,0.551277756690979,0.3012908399105072,-0.22565795481204987
1783696084139039200,2.733039306640625,0.5170281529426575,0.2985721528530121,-0.17326146364212036
1783696084149003300,2.743003173828125,0.4823274314403534,0.25952568650245667,-0.12078015506267548
1783696084158966300,2.75296630859375,0.44010481238365173,0.20223909616470337,-0.0630800649523735
1783696084168930300,2.762930419921875,0.39659783244132996,0.14313583076000214,-0.010592619888484478
1783696084178893300,2.772893310546875,0.3534837067127228,0.10259274393320084,0.030660899356007576
1783696084188857300,2.782857421875,0.32039153575897217,0.08871368318796158,0.052074842154979706
1783696084198820400,2.7928203125,0.3030628263950348,0.09160519391298294,0.0608394630253315
1783696084208784400,2.802784423828125,0.2652270197868347,0.13567598164081573,0.046867452561855316
1783696084218748400,2.81274853515625,0.22914162278175354,0.17337584495544434,0.002209103899076581
1783696084228711400,2.82271142578125,0.21324974298477173,0.20201201736927032,-0.05601665377616882
1783696084238675500,2.832675537109375,0.18656475841999054,0.24258773028850555,-0.09665750712156296
1783696084248638500,2.842638427734375,0.15709927678108215,0.2761520743370056,-0.11736465245485306
1783696084258602500,2.8526025390625,0.12924416363239288,0.28553807735443115,-0.12118598818778992
1783696084268566300,2.862566162109375,0.10493775457143784,0.2684347331523895,-0.0976891815662384
1783696084278529300,2.872529296875,0.07773943245410919,0.2343541383743286,-0.06331965327262878
1783696084288492000,2.882491943359375,0.05402850732207298,0.1869509369134903,-0.02658294141292572
1783696084298455000,2.892455078125,0.035721555352211,0.14333130419254303,0.009013759903609753
1783696084308419000,2.902419189453125,0.02460338920354843,0.10602840781211853,0.03876339644193649
1783696084318382000,2.912382080078125,0.016239112243056297,0.07645338773727417,0.06195010617375374
1783696084328346000,2.92234619140625,0.016025792807340622,0.05856600031256676,0.07539640367031097
1783696084338310000,2.932309814453125,0.015965281054377556,0.05351794883608818,0.07535489648580551
1783696084348273200,2.942273193359375,0.006626640912145376,0.04544777423143387,0.05883397161960602
1783696084358237000,2.95223681640625,-0.009310462512075901,0.018672332167625427,0.04077758267521858
1783696084368200000,2.962199951171875,-0.02984769456088543,-0.018389280885457993,0.04044788330793381
1783696084378164000,2.9721640625,-0.050348445773124695,-0.07210955023765564,0.06055914983153343
1783696084388128000,2.9821279296875,-0.06507387012243271,-0.11574731022119522,0.10983801633119583
1783696084398090800,2.9920908203125,-0.06405790895223618,-0.13328304886817932,0.16359859704971313
1783696084408054800,3.0020546875,-0.05119963735342026,-0.12771864235401154,0.18834416568279266
1783696084418017800,3.012017822265625,-0.03540080785751343,-0.13686206936836243,0.16599668562412262
1783696084427981800,3.02198193359375,-0.016140291467308998,-0.13374429941177368,0.10773152112960815
1783696084437944800,3.03194482421875,-0.0011037165531888604,-0.11697869002819061,0.026251794770359993
1783696084447908900,3.041908935546875,0.005043391603976488,-0.10371321439743042,-0.06054674834012985
1783696084457873000,3.051872802734375,0.003911851905286312,-0.077919602394104,-0.1239803209900856
1783696084467836000,3.0618359375,-0.000327101384755224,-0.04554302245378494,-0.1537371426820755
1783696084477800000,3.071800048828125,-0.0026324274949729443,-0.004507564939558506,-0.16089090704917908
1783696084487763000,3.081762939453125,-0.0010774076217785478,0.04195500910282135,-0.1583598405122757
1783696084497727000,3.09172705078125,0.0034503864590078592,0.0873490571975708,-0.1504341959953308
1783696084507691000,3.10169091796875,0.01159832812845707,0.11702066659927368,-0.15008533000946045
1783696084517654000,3.111654052734375,0.02610563114285469,0.13468702137470245,-0.1676880270242691
1783696084527618000,3.1216181640625,0.04567720368504524,0.14211004972457886,-0.16664034128189087
1783696084537581000,3.1315810546875,0.05040000006556511,0.16005657613277435,-0.16581673920154572
1783696084547544800,3.141544921875,0.06491635739803314,0.13362789154052734,-0.1710786074399948
1783696084557508000,3.151508056640625,0.08710231631994247,0.0756739005446434,-0.1515154093503952
1783696084567471900,3.161471923828125,0.09008292853832245,0.007276467047631741,-0.11694465577602386
1783696084577436000,3.171435791015625,0.09069034457206726,-0.05510854721069336,-0.06926818937063217
1783696084587399000,3.18139892578125,0.08956516534090042,-0.09667862951755524,-0.01577034406363964
1783696084597363000,3.191363037109375,0.08003051578998566,-0.13616371154785156,0.02057461254298687
1783696084607326000,3.201325927734375,0.0699608325958252,-0.17826908826828003,0.054548557847738266
1783696084617290000,3.2112900390625,0.05133380368351936,-0.22544459998607635,0.09967761486768723
1783696084627254000,3.22125390625,0.023057689890265465,-0.29109179973602295,0.16027997434139252
1783696084637217000,3.231217041015625,-0.007998890243470669,-0.3417360186576843,0.24521806836128235
1783696084647181000,3.24118115234375,-0.039595700800418854,-0.3501449525356293,0.34279337525367737
1783696084657143800,3.251143798828125,-0.06595658510923386,-0.3202952742576599,0.42983153462409973
1783696084667107800,3.26110791015625,-0.0946526750922203,-0.26165565848350525,0.47811439633369446
1783696084677070800,3.27107080078125,-0.10785545408725739,-0.20168310403823853,0.47163644433021545
1783696084687035000,3.281034912109375,-0.10990608483552933,-0.1311924159526825,0.4192084074020386
1783696084696999000,3.2909990234375,-0.10406971722841263,-0.052517641335725784,0.33214884996414185
1783696084706962000,3.3009619140625,-0.10002703964710236,0.0076713948510587215,0.21722331643104553
1783696084716926000,3.310926025390625,-0.08982904255390167,0.026528241112828255,0.09685617685317993
1783696084726889000,3.320888916015625,-0.11412026733160019,0.06224016472697258,-0.02074422314763069
1783696084736853000,3.33085302734375,-0.14184555411338806,0.0920223742723465,-0.12760291993618011
1783696084746816800,3.340816650390625,-0.14915353059768677,0.10068883746862411,-0.22006574273109436
1783696084756780000,3.350780029296875,-0.16605208814144135,0.08918114751577377,-0.2887457311153412
1783696084766743800,3.360743896484375,-0.17323090136051178,0.05605089291930199,-0.33838093280792236
1783696084776706800,3.370706787109375,-0.15712687373161316,0.01946459338068962,-0.37368667125701904
1783696084786670800,3.3806708984375,-0.13107024133205414,-0.02120906673371792,-0.3915330469608307
1783696084796633900,3.3906337890625,-0.09348514676094055,-0.052326951175928116,-0.3961377441883087
1783696084806598000,3.400597900390625,-0.04942687600851059,-0.06418947130441666,-0.38436922430992126
1783696084816562000,3.41056201171875,-0.007845871150493622,-0.057308346033096313,-0.36275196075439453
1783696084826525000,3.42052490234375,0.029545709490776062,-0.035784147679805756,-0.33252161741256714
1783696084836489000,3.430489013671875,0.05813184753060341,-0.007515920791774988,-0.2924636900424957
1783696084846452000,3.440451904296875,0.07992103695869446,0.01565251499414444,-0.24903792142868042
1783696084856416000,3.450416015625,0.09542516618967056,0.014010507613420486,-0.19858995079994202
1783696084866380000,3.460380126953125,0.10323089361190796,-0.0024092120584100485,-0.13314862549304962
1783696084876343000,3.470343017578125,0.1074918806552887,-0.018848814070224762,-0.057556215673685074
1783696084886307000,3.48030712890625,0.10464150458574295,-0.04036582633852959,0.00595938041806221
1783696084896270000,3.49027001953125,0.09852364659309387,-0.06674666702747345,0.044454045593738556
1783696084906234000,3.500234130859375,0.09492518752813339,-0.0870620608329773,0.056904058903455734
1783696084916196900,3.51019677734375,0.08297114819288254,-0.08379241824150085,0.04618014395236969
1783696084926161200,3.5201611328125,0.06250155717134476,-0.06016884371638298,0.023054055869579315
1783696084936125000,3.530125,0.03668099269270897,-0.03656806796789169,-0.00816824845969677
1783696084946088000,3.540087890625,0.013959701173007488,-0.0015696048503741622,-0.028425315394997597
1783696084956051700,3.5500517578125,-0.007476408965885639,0.047523029148578644,-0.03450407460331917
1783696084966015000,3.560014892578125,-0.024928903207182884,0.10921834409236908,-0.030477644875645638
1783696084975978800,3.569978759765625,-0.03348030522465706,0.17599987983703613,-0.03495576232671738
1783696084985942800,3.57994287109375,-0.03656237944960594,0.2402358502149582,-0.050337646156549454
1783696084995905800,3.58990576171875,-0.026989057660102844,0.2885839641094208,-0.07174257189035416
1783696085005869800,3.599869873046875,-0.009718459099531174,0.32026734948158264,-0.09112479537725449
1783696085015832800,3.609832763671875,0.015236051753163338,0.33029332756996155,-0.09422691911458969
1783696085025796900,3.619796875,0.05347584933042526,0.3341951370239258,-0.07714246958494186
1783696085035759900,3.629759765625,0.09475865960121155,0.3256840109825134,-0.04685796797275543
1783696085045724000,3.639723876953125,0.13980843126773834,0.2918594479560852,-0.019419949501752853
1783696085055688000,3.64968798828125,0.18269717693328857,0.2572237253189087,0.00209537404589355
1783696085065651000,3.65965087890625,0.21557550132274628,0.23532214760780334,0.020899422466754913
1783696085075615000,3.669614990234375,0.2431253045797348,0.22207757830619812,0.03369728475809097
1783696085085578000,3.679577880859375,0.2659488618373871,0.21997687220573425,0.05239187553524971
1783696085095542000,3.6895419921875,0.28887316584587097,0.22842273116111755,0.08157701790332794
1783696085105506000,3.699506103515625,0.3138064742088318,0.2300424724817276,0.1195952445268631
1783696085115469000,3.709468994140625,0.341634064912796,0.26307597756385803,0.15816836059093475
1783696085125433000,3.71943310546875,0.3766956627368927,0.30562371015548706,0.19662708044052124
1783696085135396000,3.72939599609375,0.41747647523880005,0.3257022798061371,0.2306026816368103
1783696085145360000,3.73935986328125,0.44615498185157776,0.3350747525691986,0.2666166126728058
1783696085155323100,3.7493232421875,0.45591971278190613,0.3415398895740509,0.29196110367774963
1783696085165287000,3.759286865234375,0.4413365125656128,0.34262698888778687,0.3038201630115509
1783696085175251000,3.7692509765625,0.3901236057281494,0.329103946685791,0.29812997579574585
1783696085185214000,3.7792138671875,0.3156922459602356,0.3073222041130066,0.2918187975883484
1783696085195178000,3.789177978515625,0.23235930502414703,0.3173716366291046,0.3047848045825958
1783696085205140700,3.799140625,0.17007729411125183,0.3803335428237915,0.3419742286205292
1783696085215104800,3.809104736328125,0.15043574571609497,0.4858863651752472,0.3975490629673004
1783696085225069000,3.819069091796875,0.1796056181192398,0.5949718356132507,0.45422059297561646
1783696085235031800,3.82903173828125,0.24959002435207367,0.6689842343330383,0.49787139892578125
1783696085244995800,3.838995849609375,0.33368119597435,0.6883113384246826,0.508948802947998
1783696085254958800,3.848958740234375,0.4037381410598755,0.6432557702064514,0.4873940646648407
1783696085264923000,3.8589228515625,0.4383102357387543,0.5466794371604919,0.42922478914260864
1783696085274886000,3.868885986328125,0.43454256653785706,0.4159264862537384,0.3502197563648224
1783696085284850000,3.878849853515625,0.4016719460487366,0.26070839166641235,0.2637344002723694
1783696085294814500,3.888814453125,0.342934787273407,0.1241975799202919,0.19042372703552246
1783696085304777500,3.898777587890625,0.2763768136501312,0.04918032884597778,0.13270796835422516
1783696085314741200,3.9087412109375,0.22949594259262085,0.037904854863882065,0.08547371625900269
1783696085324704500,3.91870458984375,0.2212851494550705,0.09907100349664688,0.04248736426234245
1783696085334668300,3.928668212890625,0.2596787214279175,0.20074006915092468,0.007135982625186443
1783696085344632300,3.93863232421875,0.32910412549972534,0.2986493408679962,-0.0073140631429851055
1783696085354595300,3.94859521484375,0.4236506223678589,0.3663528263568878,0.00222510052844882
1783696085364559400,3.958559326171875,0.5345028042793274,0.4315544664859772,0.03804381564259529
1783696085374522000,3.968522216796875,0.6466801762580872,0.5204827189445496,0.08291035890579224
1783696085384486100,3.978486083984375,0.7425279021263123,0.6251963376998901,0.11708138138055801
1783696085394449200,3.98844921875,0.8161293864250183,0.7198398113250732,0.12462722510099411
1783696085404413200,3.9984130859375,0.8677187561988831,0.7729211449623108,0.09262401610612869
1783696085414377200,4.008377197265625,0.898504912853241,0.7852107286453247,0.025454014539718628
1783696085424340200,4.01834033203125,0.9083658456802368,0.7684914469718933,-0.05229084938764572
1783696085434304300,4.02830419921875,0.895991861820221,0.7008129358291626,-0.14095859229564667
1783696085444267300,4.038267333984375,0.8875304460525513,0.6103267073631287,-0.21689675748348236
1783696085454231300,4.048231201171875,0.8782976269721985,0.4938679039478302,-0.2769496440887451
1783696085464195300,4.0581953125,0.8792494535446167,0.3778981566429138,-0.3100159764289856
1783696085474158300,4.068158447265625,0.867580771446228,0.22043377161026,-0.3285989463329315
1783696085484122400,4.078122314453125,0.8581992387771606,0.06703834980726242,-0.3345322012901306
1783696085494085400,4.08808544921875,0.8434199690818787,-0.057788997888565063,-0.3404068648815155
1783696085504049400,4.09804931640625,0.824335515499115,-0.1413765698671341,-0.3544369339942932
1783696085514012400,4.108012451171875,0.7936071157455444,-0.19852936267852783,-0.3841537833213806
1783696085523976400,4.1179765625,0.7575596570968628,-0.2364136278629303,-0.4201575815677643
1783696085533940200,4.127940185546875,0.7172712087631226,-0.23834550380706787,-0.45452654361724854
1783696085543903200,4.1379033203125,0.6827590465545654,-0.17442351579666138,-0.4822673499584198
1783696085553867300,4.1478671875,0.6735410690307617,-0.005863911937922239,-0.4858231246471405
1783696085563830300,4.157830322265625,0.6716446280479431,0.18174833059310913,-0.47436991333961487
1783696085573794300,4.167794189453125,0.6909080743789673,0.3768731951713562,-0.43920421600341797
1783696085583758300,4.17775830078125,0.7267571687698364,0.5418270230293274,-0.38106927275657654
1783696085593721300,4.187721435546875,0.7599495649337769,0.6458443999290466,-0.31510376930236816
1783696085603685400,4.197685302734375,0.7826642394065857,0.6614329218864441,-0.2721293866634369
1783696085613648400,4.2076484375,0.7993115186691284,0.6158405542373657,-0.2481188029050827
1783696085623612400,4.2176123046875,0.7942520380020142,0.5269117951393127,-0.2251644879579544
1783696085633576400,4.227576416015625,0.766652524471283,0.43026497960090637,-0.1964157521724701
1783696085643539500,4.23753955078125,0.7237364649772644,0.36699971556663513,-0.1588049978017807
1783696085653503500,4.24750341796875,0.6785145998001099,0.3254920542240143,-0.10424195975065231
1783696085663466200,4.25746630859375,0.6396428346633911,0.2879987359046936,-0.04321723058819771
1783696085673430300,4.26743017578125,0.6058509945869446,0.24932661652565002,0.016901779919862747
1783696085683394300,4.277394287109375,0.5858783721923828,0.22751426696777344,0.0797547772526741
1783696085693357300,4.287357421875,0.5825865268707275,0.22764958441257477,0.14276354014873505
1783696085703321300,4.2973212890625,0.5846768617630005,0.25585004687309265,0.19753436744213104
1783696085713284400,4.307284423828125,0.5979207158088684,0.2915949523448944,0.22800827026367188
1783696085723248000,4.317248046875,0.5990272760391235,0.3127540349960327,0.2236843705177307
1783696085733212200,4.327212158203125,0.5917481780052185,0.32135695219039917,0.18742415308952332
1783696085743175200,4.337175048828125,0.5806843638420105,0.3365841209888458,0.15001606941223145
1783696085753139200,4.34713916015625,0.5702294707298279,0.3780502676963806,0.13142086565494537
1783696085763102200,4.357102294921875,0.5597488284111023,0.428830623626709,0.13252155482769012
1783696085773066200,4.367066162109375,0.552140474319458,0.46407100558280945,0.14323197305202484
1783696085783029200,4.377029296875,0.5498073101043701,0.4807242751121521,0.15172293782234192
1783696085792993300,4.3869931640625,0.5506099462509155,0.49282005429267883,0.15117940306663513
1783696085802957300,4.396957275390625,0.5566489100456238,0.507117748260498,0.13637995719909668
1783696085812920300,4.40692041015625,0.5679036378860474,0.5094031095504761,0.10500821471214294
1783696085822884400,4.41688427734375,0.5806652307510376,0.5064024925231934,0.06834980100393295
1783696085832847400,4.426847412109375,0.6033051609992981,0.529565155506134,0.03960571438074112
1783696085842811400,4.436811279296875,0.643732488155365,0.5533429384231567,-0.003789430484175682
1783696085852775400,4.446775390625,0.676205039024353,0.5241807699203491,-0.08071465790271759
1783696085862738400,4.456738525390625,0.6856318712234497,0.48606160283088684,-0.17503023147583008
1783696085872702500,4.466702392578125,0.6725835800170898,0.4919794201850891,-0.2582860589027405
1783696085882665500,4.47666552734375,0.66167151927948,0.5502547025680542,-0.31088295578956604
1783696085892629500,4.48662939453125,0.6686692237854004,0.6156545877456665,-0.32800155878067017
1783696085902593300,4.49659326171875,0.6982750296592712,0.661494255065918,-0.3037886321544647
1783696085912556300,4.506556396484375,0.7603597640991211,0.7203230261802673,-0.24336636066436768
1783696085922520300,4.516520263671875,0.8462144732475281,0.7651339173316956,-0.17469941079616547
1783696085932483000,4.526483154296875,0.9416572451591492,0.7735759615898132,-0.13174667954444885
1783696085942447400,4.536447265625,1.0370948314666748,0.7559229135513306,-0.1150185689330101
1783696085952411400,4.546411376953125,1.1139240264892578,0.7082558274269104,-0.12199733406305313
1783696085962374100,4.5563740234375,1.1656674146652222,0.632967472076416,-0.13381190598011017
1783696085972338200,4.566338134765625,1.1988211870193481,0.5446448922157288,-0.12820710241794586
1783696085982301200,4.57630126953125,1.2098466157913208,0.44869357347488403,-0.10526876896619797
1783696085992265200,4.58626513671875,1.203947901725769,0.3560241460800171,-0.06824564188718796
1783696086002228200,4.596228271484375,1.1983962059020996,0.2683694064617157,-0.021640852093696594
1783696086012192300,4.606192138671875,1.19354248046875,0.20140597224235535,0.0305579025298357
1783696086022156300,4.61615625,1.1991643905639648,0.15691494941711426,0.0819782167673111
1783696086032119300,4.626119384765625,1.2103421688079834,0.1161981076002121,0.12503457069396973
1783696086042083300,4.636083251953125,1.2223305702209473,0.0926179513335228,0.15527582168579102
1783696086052046300,4.64604638671875,1.2321118116378784,0.09729576855897903,0.1872515231370926
1783696086062010400,4.65601025390625,1.2296563386917114,0.13421490788459778,0.22635391354560852
1783696086071974400,4.665974365234375,1.208828091621399,0.18850404024124146,0.259487509727478
1783696086081937400,4.6759375,1.1744046211242676,0.2502630054950714,0.2751103937625885
1783696086091901200,4.685901123046875,1.137500286102295,0.31942218542099,0.2769894301891327
1783696086101864400,4.695864501953125,1.0998226404190063,0.39375901222229004,0.27319788932800293
1783696086111828200,4.705828125,1.069689154624939,0.47762981057167053,0.270238995552063
1783696086121792300,4.715792236328125,1.0474745035171509,0.5409227013587952,0.24763888120651245
1783696086131755300,4.72575537109375,1.0309091806411743,0.5842573046684265,0.20590713620185852
1783696086141719300,4.73571923828125,1.0188274383544922,0.6258188486099243,0.1523008942604065
1783696086151682300,4.745682373046875,1.008500099182129,0.6866190433502197,0.09358930587768555
1783696086161646300,4.755646240234375,0.9976441860198975,0.7676494121551514,0.0389028936624527
1783696086171610400,4.7656103515625,0.9886799454689026,0.8590532541275024,-0.015461637638509274
1783696086181573400,4.775573486328125,0.9807964563369751,0.9395869374275208,-0.08044596761465073
1783696086191537400,4.785537353515625,0.9735144972801208,0.9941416382789612,-0.15509219467639923
1783696086201500400,4.79550048828125,0.968508780002594,1.0249751806259155,-0.24109631776809692
1783696086211464400,4.80546435546875,0.9618296027183533,1.0430134534835815,-0.3266753852367401
1783696086221428500,4.815428466796875,0.9633848667144775,1.0404858589172363,-0.4036274254322052
1783696086231391500,4.8253916015625,0.9725810289382935,1.0295170545578003,-0.4596998691558838
1783696086241355500,4.83535546875,0.9856733679771423,1.0230962038040161,-0.47953376173973083
1783696086251318300,4.845318359375,1.01692795753479,1.0216665267944336,-0.47600921988487244
1783696086261282300,4.8552822265625,1.0531597137451172,1.0262631177902222,-0.456651508808136
1783696086271246000,4.86524609375,1.0995508432388306,1.0257471799850464,-0.42834991216659546
1783696086281209300,4.875209228515625,1.1460440158843994,1.002539873123169,-0.4011411964893341
1783696086291172600,4.885172607421875,1.1878892183303833,0.960272490978241,-0.3676837980747223
1783696086301135600,4.895135498046875,1.2262393236160278,0.9141718149185181,-0.3208819329738617
1783696086311099600,4.905099609375,1.2650184631347656,0.8585086464881897,-0.2617669999599457
1783696086321063400,4.9150634765625,1.3013602495193481,0.8094484806060791,-0.19805672764778137
1783696086331026400,4.9250263671875,1.3299165964126587,0.7716720700263977,-0.14620190858840942
1783696086340990500,4.934990478515625,1.3544394969940186,0.7645792961120605,-0.11844459176063538
1783696086350953500,4.944953369140625,1.3799633979797363,0.7925072312355042,-0.11538586765527725
1783696086360917500,4.95491748046875,1.4084410667419434,0.8458109498023987,-0.12804466485977173
1783696086370880300,4.96488037109375,1.4350403547286987,0.9063953757286072,-0.14066271483898163
1783696086380844500,4.974844482421875,1.4580920934677124,0.9431230425834656,-0.1499033421278
1783696086390808600,4.98480859375,1.4746201038360596,0.9529076218605042,-0.14745712280273438
1783696086400771300,4.994771240234375,1.4806753396987915,0.9399327039718628,-0.1327652633190155
1783696086410735400,5.0047353515625,1.4814220666885376,0.9085493683815002,-0.1173657476902008
1783696086420698400,5.014698486328125,1.4770424365997314,0.8798506259918213,-0.0922769084572792
1783696086430662400,5.024662353515625,1.4707223176956177,0.8562808036804199,-0.07602106034755707
1783696086440626400,5.03462646484375,1.4669145345687866,0.8521063327789307,-0.05982770770788193
1783696086450589400,5.04458935546875,1.4674327373504639,0.8562625646591187,-0.060473911464214325
1783696086460553500,5.054553466796875,1.4748339653015137,0.8609129786491394,-0.07153189182281494
1783696086470516500,5.0645166015625,1.4873775243759155,0.8642945885658264,-0.08177974820137024
1783696086480480500,5.07448046875,1.5089619159698486,0.873597264289856,-0.07590454816818237
1783696086490444500,5.084444580078125,1.5316680669784546,0.8926726579666138,-0.05311471223831177
1783696086500407600,5.094407470703125,1.5496784448623657,0.9145132303237915,-0.021695267409086227
1783696086510371300,5.104371337890625,1.5639770030975342,0.9344893097877502,0.010724409483373165
1783696086520334600,5.11433447265625,1.573683500289917,0.961170494556427,0.03702845051884651
1783696086530298400,5.12429833984375,1.5795572996139526,0.9796295166015625,0.05264832824468613
1783696086540262400,5.134262451171875,1.580296277999878,0.9969049096107483,0.058708082884550095
1783696086550225400,5.144225341796875,1.5848654508590698,1.0177032947540283,0.05267297104001045
1783696086560189400,5.154189453125,1.5875520706176758,1.0382072925567627,0.03829829394817352
1783696086570152400,5.16415234375,1.5973743200302124,1.0549979209899902,0.017796795815229416
1783696086580116500,5.174116455078125,1.6079460382461548,1.0672184228897095,-0.0077583640813827515
1783696086590080500,5.18408056640625,1.62222421169281,1.0854548215866089,-0.025500331073999405
1783696086600043500,5.19404345703125,1.6307897567749023,1.0999506711959839,-0.03757084161043167
1783696086610007600,5.204007568359375,1.6518373489379883,1.077576994895935,-0.04553284868597984
1783696086619970600,5.213970458984375,1.6646783351898193,1.0514490604400635,-0.050531599670648575
1783696086629934600,5.2239345703125,1.656885027885437,1.0443229675292969,-0.04185693711042404
1783696086639897600,5.233897705078125,1.6457140445709229,1.0440082550048828,-0.03654739633202553
1783696086649861600,5.243861572265625,1.636688470840454,1.0467623472213745,-0.033643901348114014
1783696086659825700,5.25382568359375,1.6271390914916992,1.061166763305664,-0.029310140758752823
1783696086669788400,5.263788330078125,1.625542163848877,1.0722991228103638,-0.026072505861520767
1783696086679752700,5.273752685546875,1.6322877407073975,1.0835938453674316,-0.02784004434943199
1783696086689715500,5.283715576171875,1.642200231552124,1.0824763774871826,-0.033522672951221466
1783696086699679500,5.293679443359375,1.650119662284851,1.059017300605774,-0.049649178981781006
1783696086709643300,5.303643310546875,1.6537730693817139,1.0127266645431519,-0.06945326179265976
1783696086719606300,5.313606201171875,1.6505703926086426,0.9588229656219482,-0.08422022312879562
1783696086729570300,5.3235703125,1.6557198762893677,0.9158576726913452,-0.07917677611112595
1783696086739533300,5.333533203125,1.665768027305603,0.8870260119438171,-0.05375024676322937
1783696086749497300,5.343497314453125,1.685071587562561,0.8802370429039001,-0.004414360038936138
1783696086759461400,5.35346142578125,1.7103484869003296,0.8817779421806335,0.058205343782901764
1783696086769424400,5.36342431640625,1.7341303825378418,0.8949365019798279,0.11864396184682846
1783696086779388400,5.373388427734375,1.7558019161224365,0.9014348387718201,0.15303762257099152
1783696086789351400,5.383351318359375,1.7672737836837769,0.8930999040603638,0.15967489778995514
1783696086799315500,5.3933154296875,1.7569888830184937,0.8626245856285095,0.13909079134464264
1783696086809279500,5.403279541015625,1.730034351348877,0.8167848587036133,0.09509173780679703
1783696086819242500,5.413242431640625,1.6973661184310913,0.7692021727561951,0.04132091999053955
1783696086829206500,5.42320654296875,1.6724549531936646,0.7210627794265747,-0.00814371183514595
1783696086839169500,5.43316943359375,1.646716594696045,0.7239826321601868,-0.05008396878838539
1783696086849133600,5.443133544921875,1.6002951860427856,0.7207403779029846,-0.12798914313316345
1783696086859096600,5.4530966796875,1.5485198497772217,0.7050751447677612,-0.23636594414710999
1783696086869060600,5.463060546875,1.487842321395874,0.7203463315963745,-0.365822970867157
1783696086879024400,5.4730244140625,1.4341769218444824,0.7504485845565796,-0.4927428364753723
1783696086888987600,5.482987548828125,1.3780220746994019,0.7781815528869629,-0.6019095182418823
1783696086898951400,5.492951416015625,1.309037446975708,0.8123009204864502,-0.6778237223625183
1783696086908914700,5.502914794921875,1.2487523555755615,0.8502175807952881,-0.720065712928772
1783696086918878500,5.51287841796875,1.2092976570129395,0.8886406421661377,-0.7399563193321228
1783696086928842500,5.522842529296875,1.1895320415496826,0.9205160140991211,-0.7416051030158997
1783696086938805500,5.532805419921875,1.1795201301574707,0.9516371488571167,-0.7269284129142761
1783696086948769500,5.54276953125,1.18963623046875,0.986855685710907,-0.6926257014274597
1783696086958732300,5.552732177734375,1.2102469205856323,1.0195244550704956,-0.6431074142456055
1783696086968696600,5.562696533203125,1.2281553745269775,1.023665189743042,-0.596024215221405
1783696086978660600,5.57266064453125,1.238223671913147,1.0120443105697632,-0.5512120127677917
1783696086988623400,5.582623291015625,1.2494490146636963,0.9935750961303711,-0.508868932723999
1783696086998587400,5.59258740234375,1.255522608757019,0.9562023878097534,-0.46727627515792847
1783696087008550400,5.60255029296875,1.2646238803863525,0.8900570273399353,-0.42528653144836426
1783696087018514400,5.612514404296875,1.276180624961853,0.8093385100364685,-0.37903302907943726
1783696087028477400,5.6224775390625,1.2929742336273193,0.740480899810791,-0.32833465933799744
1783696087038441500,5.63244140625,1.3081248998641968,0.6822847127914429,-0.2780754864215851
1783696087048405500,5.642405517578125,1.3238019943237305,0.6171846389770508,-0.2394554167985916
1783696087058368500,5.652368408203125,1.3353455066680908,0.5435037612915039,-0.21383342146873474
1783696087068332500,5.66233251953125,1.3384636640548706,0.47503554821014404,-0.19234341382980347
1783696087078295600,5.672295654296875,1.3379440307617188,0.41330400109291077,-0.17241285741329193
1783696087088259600,5.682259521484375,1.3240315914154053,0.3653804659843445,-0.15185895562171936
1783696087098223400,5.692223388671875,1.299070119857788,0.3269300162792206,-0.12976829707622528
1783696087108186400,5.702186279296875,1.2648239135742188,0.2861098349094391,-0.10150360316038132
1783696087118150400,5.712150390625,1.2185760736465454,0.2281211018562317,-0.07314546406269073
1783696087128113400,5.722113525390625,1.167111873626709,0.14876924455165863,-0.04540549963712692
1783696087138077400,5.732077392578125,1.1431764364242554,0.15519359707832336,0.007298991084098816
1783696087148041500,5.74204150390625,1.1133357286453247,0.1794341504573822,0.06525833159685135
1783696087158004500,5.75200439453125,1.0803649425506592,0.19416408240795135,0.12365799397230148
1783696087167968500,5.761968505859375,1.0856825113296509,0.28132250905036926,0.16858631372451782
1783696087177931500,5.771931640625,1.0837048292160034,0.41088876128196716,0.1870233714580536
1783696087187895600,5.7818955078125,1.0653183460235596,0.5108034610748291,0.17251423001289368
1783696087197858600,5.791858642578125,1.051161527633667,0.5896311402320862,0.13325735926628113
1783696087207822600,5.801822509765625,1.0317846536636353,0.6566885709762573,0.09514207392930984
1783696087217786600,5.81178662109375,1.0046848058700562,0.6981915235519409,0.062275201082229614
1783696087227749600,5.82174951171875,0.979529857635498,0.7193436026573181,0.04656604304909706
1783696087237713700,5.831713623046875,0.9529251456260681,0.7125895619392395,0.04822732135653496
1783696087247676400,5.841676513671875,0.9262939691543579,0.691993236541748,0.062286071479320526
1783696087257640400,5.851640380859375,0.8891119956970215,0.6593913435935974,0.08348749577999115
1783696087267604500,5.8616044921875,0.8429479598999023,0.5905489325523376,0.10423817485570908
1783696087277567500,5.8715673828125,0.7956922650337219,0.509440004825592,0.1374025195837021
1783696087287531300,5.88153125,0.7473987936973572,0.4389542043209076,0.1836404651403427
1783696087297494500,5.89149462890625,0.7015870809555054,0.3679031729698181,0.2205294966697693
1783696087307458600,5.90145849609375,0.6489704847335815,0.3185375928878784,0.2323167622089386
1783696087317422600,5.911422607421875,0.6052365899085999,0.3043684959411621,0.21470367908477783
1783696087327385600,5.921385498046875,0.5496075749397278,0.308684378862381,0.17217402160167694
1783696087337349600,5.931349609375,0.4787871837615967,0.36095213890075684,0.11116845160722733
1783696087347312600,5.941312744140625,0.41094380617141724,0.43565794825553894,0.04036504775285721
1783696087357276700,5.951276611328125,0.352527916431427,0.5043347477912903,-0.02389276772737503
1783696087367239700,5.96123974609375,0.3077367842197418,0.5529300570487976,-0.06629322469234467
1783696087377203700,5.97120361328125,0.2882152795791626,0.5617667436599731,-0.055701036006212234
1783696087387167700,5.981167724609375,0.261658638715744,0.5907948613166809,-0.018011121079325676
1783696087397130800,5.991130859375,0.24975378811359406,0.6022003889083862,0.02812494896352291
1783696087407094800,6.0010947265625,0.26261818408966064,0.6530413031578064,0.07653201371431351
1783696087417057800,6.011057861328125,0.27687063813209534,0.7101019024848938,0.10833121836185455
1783696087427021800,6.021021728515625,0.27471327781677246,0.727561891078949,0.12261678278446198
1783696087436985900,6.03098583984375,0.24067993462085724,0.6972165107727051,0.09630155563354492
1783696087446948900,6.040948974609375,0.20375822484493256,0.6335473656654358,0.04680081829428673
1783696087456912600,6.05091259765625,0.1551736444234848,0.564939022064209,-0.003849041648209095
1783696087466876000,6.0608759765625,0.09699924290180206,0.4814910590648651,-0.02932748757302761
1783696087476839700,6.070839599609375,0.042737070471048355,0.3845490515232086,-0.011311467736959457
1783696087486803700,6.0808037109375,-0.007219020277261734,0.2851299047470093,0.05100581794977188
1783696087496766700,6.0907666015625,-0.04834302142262459,0.20379139482975006,0.1365492194890976
1783696087506730800,6.100730712890625,-0.07336097955703735,0.180273175239563,0.21709051728248596
1783696087516693500,6.110693603515625,-0.07567952573299408,0.24385666847229004,0.2681233286857605
1783696087526657500,6.120657470703125,-0.06131065636873245,0.3582538664340973,0.2713039219379425
1783696087536620500,6.13062060546875,-0.03579224646091461,0.4914494752883911,0.2280869334936142
1783696087546584600,6.14058447265625,-0.009029658511281013,0.6010609269142151,0.14966340363025665
1783696087556548600,6.150548583984375,0.011441527865827084,0.6825975775718689,0.055602945387363434
1783696087566511600,6.16051171875,0.020560985431075096,0.7173989415168762,-0.03963155299425125
1783696087576475600,6.1704755859375,0.019118884578347206,0.723989725112915,-0.11770318448543549
1783696087586438700,6.180438720703125,0.008363119326531887,0.701133668422699,-0.17826582491397858
1783696087596402700,6.190402587890625,-0.010355174541473389,0.6699605584144592,-0.22064737975597382
1783696087606366700,6.20036669921875,-0.02802334539592266,0.6211337447166443,-0.23850014805793762
1783696087616329700,6.210329833984375,-0.04258790612220764,0.5710604190826416,-0.24377107620239258
1783696087626293800,6.220293701171875,-0.02885274775326252,0.5437618494033813,-0.24447384476661682
1783696087636256800,6.2302568359375,0.011088276281952858,0.4982556104660034,-0.2586005926132202
1783696087646220800,6.240220703125,0.06768839061260223,0.42874962091445923,-0.27999362349510193
1783696087656183800,6.250183837890625,0.13585546612739563,0.3419332206249237,-0.30234259366989136
1783696087666147600,6.260147705078125,0.21449249982833862,0.24308787286281586,-0.3208198845386505
1783696087676111600,6.270111572265625,0.2950613498687744,0.15505708754062653,-0.33413222432136536
1783696087686074600,6.28007470703125,0.3790625035762787,0.043079908937215805,-0.3377433121204376
1783696087696038700,6.29003857421875,0.44973403215408325,-0.09198976308107376,-0.3227856755256653
1783696087706001700,6.300001708984375,0.4843127727508545,-0.21441887319087982,-0.26895642280578613
1783696087715965700,6.309965576171875,0.4774346351623535,-0.2869623005390167,-0.17483285069465637
1783696087725929700,6.3199296875,0.449180006980896,-0.3185419738292694,-0.06947030127048492
1783696087735892700,6.329892822265625,0.4100581705570221,-0.3476164937019348,0.026312950998544693
1783696087745856800,6.339856689453125,0.36339232325553894,-0.3785838782787323,0.09311652183532715
1783696087755819800,6.34981982421875,0.32104727625846863,-0.3849376440048218,0.13058453798294067
1783696087765783800,6.35978369140625,0.29282110929489136,-0.3650130331516266,0.13945704698562622
1783696087775746600,6.36974658203125,0.2756572961807251,-0.3081335127353668,0.13344790041446686
1783696087785710600,6.379710693359375,0.2618235647678375,-0.21542654931545258,0.11856267601251602
1783696087795675000,6.3896748046875,0.24245038628578186,-0.11907737702131271,0.09099096804857254
1783696087805637600,6.3996376953125,0.2169332355260849,-0.029018888249993324,0.06411463022232056
1783696087815601700,6.4096015625,0.1792609542608261,0.03703469783067703,0.04325808584690094
1783696087825564700,6.419564697265625,0.1361101120710373,0.08653020858764648,0.0419192798435688
1783696087835528700,6.42952880859375,0.09006886184215546,0.0908581092953682,0.05407208576798439
1783696087845492500,6.439492431640625,0.05256770923733711,0.053649481385946274,0.08166981488466263
1783696087855455700,6.449455810546875,0.025210920721292496,0.008146177977323532,0.12489823997020721
1783696087865419500,6.45941943359375,0.012705255299806595,-0.02424686774611473,0.1818484663963318
1783696087875382800,6.4693828125,0.011270610615611076,-0.050622016191482544,0.22666867077350616
1783696087885346600,6.4793466796875,0.020864421501755714,-0.0671723484992981,0.2559222877025604
1783696087895309600,6.4893095703125,0.0332193598151207,-0.05598094314336777,0.26600074768066406
1783696087905273600,6.499273681640625,0.045354362577199936,-0.013078602030873299,0.25595223903656006
1783696087915237600,6.509237548828125,0.04980982840061188,0.04396497458219528,0.2260715663433075
1783696087925200600,6.51920068359375,0.05559678375720978,0.09871938824653625,0.19652077555656433
1783696087935164700,6.52916455078125,0.06741748750209808,0.15248700976371765,0.18040679395198822
1783696087945127700,6.539127685546875,0.0880558118224144,0.19371384382247925,0.187805637717247
1783696087955091700,6.549091796875,0.10791047662496567,0.2057848870754242,0.21602368354797363
1783696087965055700,6.5590556640625,0.12886497378349304,0.18867085874080658,0.2682461440563202
1783696087975018800,6.569018798828125,0.15878398716449738,0.16614983975887299,0.33266481757164
1783696087984982800,6.578982666015625,0.2042841613292694,0.17819485068321228,0.4002530574798584
1783696087994945800,6.58894580078125,0.27221688628196716,0.21222259104251862,0.4511551260948181
1783696088004909800,6.598909912109375,0.34480878710746765,0.20518551766872406,0.46064701676368713
1783696088014872800,6.608872802734375,0.4097212255001068,0.17116975784301758,0.4277593791484833
1783696088024836900,6.6188369140625,0.4627108573913574,0.1216956079006195,0.359255850315094
1783696088034800600,6.628800537109375,0.5013841986656189,0.04191475734114647,0.26034605503082275
1783696088044764000,6.638763916015625,0.5201418995857239,-0.045620664954185486,0.159458190202713
1783696088054727700,6.648727783203125,0.511544406414032,-0.13321895897388458,0.0850292295217514
1783696088064690700,6.658690673828125,0.47554340958595276,-0.1959085315465927,0.04264175891876221
1783696088074654500,6.668654541015625,0.4359712302684784,-0.23062710464000702,0.022338619455695152
1783696088084618500,6.678618408203125,0.3951842784881592,-0.23589763045310974,0.006713622249662876
1783696088094581500,6.68858154296875,0.3685758411884308,-0.22128406167030334,-0.033827945590019226
1783696088104545500,6.698545654296875,0.3689686059951782,-0.223048135638237,-0.07071070373058319
1783696088114508500,6.708508544921875,0.35241973400115967,-0.19309821724891663,-0.09716041386127472
1783696088124472600,6.71847265625,0.3444189727306366,-0.10138515383005142,-0.11505376547574997
1783696088134435600,6.728435546875,0.33242252469062805,0.0018751842435449362,-0.14124222099781036
1783696088144399600,6.738399658203125,0.3014087378978729,0.11458449810743332,-0.1752011626958847
1783696088154363600,6.74836376953125,0.26770535111427307,0.26469916105270386,-0.20430737733840942
1783696088164326700,6.75832666015625,0.2580111026763916,0.4303935766220093,-0.22283214330673218
1783696088174290700,6.768290771484375,0.27543243765830994,0.5475244522094727,-0.22324706614017487
1783696088184253700,6.778253662109375,0.3189161419868469,0.6360211968421936,-0.20443588495254517
1783696088194217700,6.7882177734375,0.39503246545791626,0.6603784561157227,-0.16383413970470428
1783696088204180700,6.7981806640625,0.4766328036785126,0.6585877537727356,-0.09167951345443726
1783696088214144800,6.808144775390625,0.5433207750320435,0.641892671585083,-0.009677854366600513
1783696088224108800,6.81810888671875,0.5934080481529236,0.598509669303894,0.06798119097948074
1783696088234071800,6.82807177734375,0.6299663186073303,0.5295788049697876,0.1280844807624817
1783696088244035800,6.838035888671875,0.6483374238014221,0.44159969687461853,0.17042215168476105
1783696088253998800,6.847998779296875,0.6481789946556091,0.33768874406814575,0.19543935358524323
1783696088263962600,6.857962646484375,0.6424664855003357,0.24016441404819489,0.20732609927654266
1783696088273926700,6.8679267578125,0.6301594972610474,0.167123481631279,0.20015446841716766
1783696088283889700,6.8778896484375,0.6146411299705505,0.10309416800737381,0.17033497989177704
1783696088293854500,6.8878544921875,0.5944823622703552,0.04012718424201012,0.11648452281951904
1783696088303817500,6.8978173828125,0.5812090039253235,-0.011950123123824596,0.05146912485361099
1783696088313781500,6.907781494140625,0.5742104649543762,-0.04017456993460655,-0.009107671678066254
1783696088323744500,6.91774462890625,0.562503457069397,-0.04739423468708992,-0.05756308138370514
1783696088333708500,6.92770849609375,0.5496947169303894,-0.04180292785167694,-0.08656331151723862
1783696088343672600,6.937672607421875,0.5379921793937683,-0.032881028950214386,-0.0928453803062439
1783696088353635600,6.947635498046875,0.5219924449920654,-0.017252802848815918,-0.0734008401632309
1783696088363599600,6.957599609375,0.5053966641426086,-0.00280169490724802,-0.038713980466127396
1783696088373562400,6.967562255859375,0.49367502331733704,0.03638938441872597,-0.008893500082194805
1783696088383526400,6.9775263671875,0.4958606958389282,0.10524525493383408,0.008467908017337322
1783696088393490400,6.987490478515625,0.5040645599365234,0.19645372033119202,0.016640616580843925
1783696088403453400,6.997453369140625,0.5149827003479004,0.2895829975605011,0.019233357161283493
1783696088413417200,7.007417236328125,0.5208573937416077,0.35798946022987366,0.010736275464296341
1783696088423380500,7.01738037109375,0.5156068205833435,0.3907591998577118,-0.0009047292405739427
1783696088433344300,7.02734423828125,0.5000771284103394,0.40815630555152893,-0.011486533097922802
1783696088443307500,7.0373076171875,0.4848130941390991,0.4173741936683655,-0.017214801162481308
1783696088453271300,7.047271240234375,0.4550788998603821,0.4019874930381775,-0.0196854155510664
1783696088463235300,7.0572353515625,0.42331060767173767,0.35912024974823,-0.019540935754776
1783696088473198300,7.0671982421875,0.38571447134017944,0.3026926517486572,-0.00990615226328373
1783696088483162400,7.077162353515625,0.35238969326019287,0.23967772722244263,0.0014761106576770544
1783696088493125400,7.08712548828125,0.32017582654953003,0.18177421391010284,0.017289694398641586
1783696088503089400,7.09708935546875,0.29257509112358093,0.12886372208595276,0.033433929085731506
1783696088513052400,7.107052490234375,0.26674535870552063,0.07675151526927948,0.04664028063416481
1783696088523016400,7.117016357421875,0.23552902042865753,0.04332849755883217,0.056448064744472504
1783696088532980500,7.12698046875,0.19959445297718048,0.03380822762846947,0.05600278452038765
1783696088542943500,7.136943603515625,0.1598092019557953,0.044878311455249786,0.03969666734337807
1783696088552907500,7.146907470703125,0.11343079060316086,0.07350703328847885,0.007769893389195204
1783696088562870500,7.15687060546875,0.06518138200044632,0.11430622637271881,-0.02202041819691658
1783696088572834600,7.16683447265625,0.015079067088663578,0.1515987366437912,-0.041548844426870346
1783696088582798600,7.176798583984375,-0.0294285137206316,0.17308321595191956,-0.04334022104740143
1783696088592761600,7.18676171875,-0.06414654105901718,0.16597923636436462,-0.022928956896066666
1783696088602725600,7.1967255859375,-0.09131500869989395,0.13179375231266022,0.01947334222495556
1783696088612688600,7.206688720703125,-0.11664433032274246,0.08402703702449799,0.08017344772815704
1783696088622652400,7.21665234375,-0.13794738054275513,0.030850861221551895,0.13451386988162994
1783696088632615400,7.226615478515625,-0.15634077787399292,-0.010072071105241776,0.16608643531799316
1783696088642579500,7.236579345703125,-0.17150986194610596,-0.019577063620090485,0.17770153284072876
1783696088652543500,7.24654345703125,-0.1839550882577896,-0.0021722393576055765,0.17159968614578247
1783696088662506200,7.25650634765625,-0.18682940304279327,0.023412533104419708,0.1503877490758896
1783696088672470300,7.26647021484375,-0.1828615665435791,0.05091552808880806,0.12180325388908386
1783696088682433300,7.276433349609375,-0.16607436537742615,0.0754222720861435,0.08878033608198166
1783696088692397300,7.286397216796875,-0.1399594098329544,0.0902470201253891,0.049157291650772095
1783696088702361300,7.296361328125,-0.12217079848051071,0.08825096487998962,0.002989367116242647
1783696088712324400,7.306324462890625,-0.12727980315685272,0.0661669671535492,-0.04773586243391037
1783696088722288400,7.316288330078125,-0.14807243645191193,0.028373248875141144,-0.10412803292274475
1783696088732251400,7.32625146484375,-0.16901415586471558,-0.011102685704827309,-0.16555383801460266
1783696088742215400,7.33621533203125,-0.19311796128749847,-0.06637497246265411,-0.22794009745121002
1783696088752178400,7.346178466796875,-0.21916820108890533,-0.1125805526971817,-0.27984192967414856
1783696088762142500,7.356142578125,-0.23503504693508148,-0.14553163945674896,-0.323600172996521
1783696088772106500,7.3661064453125,-0.23803430795669556,-0.1762930154800415,-0.3588937222957611
1783696088782069500,7.376069580078125,-0.22770336270332336,-0.20922033488750458,-0.3943829834461212
1783696088792033500,7.386033447265625,-0.2113848477602005,-0.21836748719215393,-0.4292792081832886
1783696088801996500,7.39599658203125,-0.18667790293693542,-0.18667668104171753,-0.45449668169021606
1783696088811960600,7.405960693359375,-0.1709631234407425,-0.15552674233913422,-0.4698426127433777
1783696088821923600,7.415923583984375,-0.16101394593715668,-0.1397937834262848,-0.46384334564208984
1783696088831887400,7.425887451171875,-0.1581829935312271,-0.12733444571495056,-0.43282070755958557
1783696088841851400,7.435851318359375,-0.15814806520938873,-0.1252906620502472,-0.3703029155731201
1783696088851814400,7.445814453125,-0.16054411232471466,-0.1317504346370697,-0.27761611342430115
1783696088861778400,7.4557783203125,-0.16599217057228088,-0.13850706815719604,-0.15266112983226776
1783696088871741400,7.465741455078125,-0.15803705155849457,-0.1448104977607727,-0.019579771906137466
1783696088881705500,7.47570556640625,-0.11625082790851593,-0.1635647565126419,0.09155919402837753
1783696088891668200,7.485668212890625,-0.04794793948531151,-0.18420904874801636,0.17336350679397583
1783696088901632500,7.495632568359375,0.014294274151325226,-0.19121795892715454,0.22460201382637024
1783696088911596500,7.505596435546875,0.0601043701171875,-0.18960781395435333,0.25579962134361267
1783696088921559300,7.515559326171875,0.09145801514387131,-0.16972443461418152,0.2795723080635071
1783696088931523300,7.5255234375,0.10482628643512726,-0.12996265292167664,0.28755617141723633
1783696088941486300,7.535486328125,0.09411216527223587,-0.0857154130935669,0.26534685492515564
1783696088951450400,7.545450439453125,0.07412221282720566,-0.04994703084230423,0.20474104583263397
1783696088961414400,7.555414306640625,0.042291637510061264,-0.0325503870844841,0.11165354400873184
1783696088971377400,7.56537744140625,-0.00025875194114632905,-0.008343582041561604,0.012370897457003593
1783696088981341400,7.575341552734375,-0.049057237803936005,0.005568209104239941,-0.0823204293847084
1783696088991304400,7.585304443359375,-0.09961335361003876,-0.02647334709763527,-0.15861812233924866
1783696089001268500,7.5952685546875,-0.1509193778038025,-0.08913146704435349,-0.20026518404483795
1783696089011231500,7.6052314453125,-0.19221700727939606,-0.16249996423721313,-0.21235033869743347
1783696089021195500,7.615195556640625,-0.210471972823143,-0.22120554745197296,-0.19314733147621155
1783696089031159300,7.6251591796875,-0.20837420225143433,-0.25070616602897644,-0.15129442512989044
1783696089041122600,7.63512255859375,-0.19120730459690094,-0.24244645237922668,-0.09049280732870102
1783696089051086300,7.64508642578125,-0.16028614342212677,-0.22369059920310974,-0.02564430423080921
1783696089061049300,7.65504931640625,-0.12370602786540985,-0.21602527797222137,0.023735903203487396
1783696089071013400,7.665013427734375,-0.09104342013597488,-0.21276210248470306,0.058495745062828064
1783696089080976400,7.674976318359375,-0.06170635297894478,-0.19788935780525208,0.08381177484989166
1783696089090940400,7.6849404296875,-0.045203011482954025,-0.18702098727226257,0.10069568455219269
1783696089100904400,7.694904541015625,-0.0444524809718132,-0.19425389170646667,0.10498294979333878
1783696089110867500,7.704867431640625,-0.055599942803382874,-0.21118253469467163,0.1060362309217453
1783696089120831500,7.71483154296875,-0.06694046407938004,-0.22618907690048218,0.11076492071151733
1783696089130794500,7.72479443359375,-0.07780696451663971,-0.2361554205417633,0.12070570141077042
1783696089140758500,7.734758544921875,-0.08670444786548615,-0.23642012476921082,0.12952804565429688
1783696089150722600,7.74472265625,-0.09059558808803558,-0.23982098698616028,0.13114352524280548
1783696089160685600,7.754685546875,-0.09625280648469925,-0.24352723360061646,0.11425977945327759
1783696089170649600,7.764649658203125,-0.10248726606369019,-0.2434348165988922,0.08137106895446777
1783696089180612400,7.7746123046875,-0.1107024997472763,-0.2334146350622177,0.03597107529640198
1783696089190576600,7.78457666015625,-0.13330981135368347,-0.22654208540916443,-0.012446258217096329
1783696089200539400,7.794539306640625,-0.16116541624069214,-0.21751290559768677,-0.05529465898871422
1783696089210503400,7.80450341796875,-0.1821625828742981,-0.18524017930030823,-0.07631498575210571
1783696089220467500,7.814467529296875,-0.18954968452453613,-0.13020776212215424,-0.07655278593301773
1783696089230430500,7.824430419921875,-0.17942515015602112,-0.07224220037460327,-0.06692466139793396
1783696089240394200,7.834394287109375,-0.16481970250606537,-0.025784209370613098,-0.05580483749508858
1783696089250357500,7.844357421875,-0.14791448414325714,0.029032433405518532,-0.04813813045620918
1783696089260321300,7.8543212890625,-0.12665164470672607,0.08163757622241974,-0.04393068328499794
1783696089270284300,7.8642841796875,-0.09510516375303268,0.13031670451164246,-0.020922834053635597
1783696089280248300,7.874248291015625,-0.06094757840037346,0.18833094835281372,0.024736592546105385
1783696089290212400,7.88421240234375,-0.01587677001953125,0.2308424562215805,0.08923409134149551
1783696089300174800,7.8941748046875,0.03693866729736328,0.24470606446266174,0.15100310742855072
1783696089310139000,7.904138916015625,0.08671101927757263,0.2366017997264862,0.2010878473520279
1783696089320102000,7.914101806640625,0.12692907452583313,0.20635239779949188,0.23196129500865936
1783696089330066000,7.92406591796875,0.1576065719127655,0.1652611494064331,0.25113579630851746
1783696089340029000,7.93402880859375,0.1718631088733673,0.1213180422782898,0.26192140579223633
1783696089349993000,7.943992919921875,0.17138560116291046,0.07474574446678162,0.2643733620643616
1783696089359957000,7.95395703125,0.151291161775589,0.038633689284324646,0.2566073536872864
1783696089369920000,7.963919921875,0.11968450248241425,0.03058215044438839,0.23801368474960327
1783696089379884000,7.973884033203125,0.08842608332633972,0.03664517030119896,0.2009749412536621
1783696089389847000,7.983846923828125,0.05220949277281761,0.04843445122241974,0.14584296941757202
1783696089399811000,7.99381103515625,0.011659529060125351,0.06732583791017532,0.0736674964427948
1783696089409774000,8.003774169921876,-0.020380163565278053,0.08919891715049744,-0.006520284339785576
1783696089419738000,8.013738037109375,-0.045018408447504044,0.11689622700214386,-0.09175394475460052
1783696089429702100,8.0237021484375,-0.06676125526428223,0.1277046650648117,-0.1696671098470688
1783696089439665200,8.0336650390625,-0.09345827251672745,0.1189451739192009,-0.22036215662956238
1783696089449629200,8.043629150390625,-0.11661498993635178,0.11003690212965012,-0.22837454080581665
1783696089459592000,8.053592041015625,-0.13352607190608978,0.1242416650056839,-0.19478516280651093
1783696089469556000,8.063555908203124,-0.1412239372730255,0.16032004356384277,-0.13927529752254486
1783696089479520000,8.07352001953125,-0.1309182494878769,0.19610363245010376,-0.08526668697595596
1783696089489482800,8.083482666015625,-0.10621236264705658,0.2183048129081726,-0.03944140672683716
1783696089499446800,8.09344677734375,-0.08321889489889145,0.21528878808021545,0.004918333608657122
1783696089509409800,8.103409912109376,-0.05404024198651314,0.19081352651119232,0.04490063712000847
1783696089519373800,8.113373779296875,-0.01942836120724678,0.14887675642967224,0.08603403717279434
1783696089529336800,8.1233369140625,0.0044732424430549145,0.06367795914411545,0.12294092029333115
1783696089539300900,8.13330078125,0.014857173897325993,-0.046926047652959824,0.15916496515274048
1783696089549265000,8.143264892578125,0.018807174637913704,-0.1616148054599762,0.1906866729259491
1783696089559228000,8.153227783203125,0.017198946326971054,-0.24395199120044708,0.20949868857860565
1783696089569192000,8.16319189453125,0.005806210450828075,-0.3029029369354248,0.20138296484947205
1783696089579155000,8.173155029296876,-0.01062171719968319,-0.3307197093963623,0.16309015452861786
1783696089589119000,8.183118896484375,-0.030221518129110336,-0.34259554743766785,0.08647847175598145
1783696089599082000,8.19308203125,-0.061400674283504486,-0.35760068893432617,-0.022242601960897446
1783696089609046000,8.2030458984375,-0.09564413130283356,-0.3622135519981384,-0.1422092169523239
1783696089619010000,8.213010009765625,-0.1284898817539215,-0.32697829604148865,-0.24404823780059814
1783696089628973000,8.22297314453125,-0.14611387252807617,-0.24638013541698456,-0.3164239227771759
1783696089638937000,8.23293701171875,-0.15474778413772583,-0.14767350256443024,-0.3712746798992157
1783696089648900000,8.242900146484375,-0.142184317111969,-0.06783805787563324,-0.4076739549636841
1783696089658864000,8.252864013671875,-0.1208232045173645,-0.015905480831861496,-0.40132707357406616
1783696089668827100,8.2628271484375,-0.08646709471940994,0.024293871596455574,-0.3532426357269287
1783696089678791200,8.272791259765626,-0.04636990278959274,0.03911677002906799,-0.2602391242980957
1783696089688755000,8.2827548828125,-0.0009584811050444841,0.061931002885103226,-0.15871383249759674
1783696089698718000,8.292718017578125,0.04337647929787636,0.10465270280838013,-0.07516644895076752
1783696089708682000,8.302681884765626,0.0909956693649292,0.14607951045036316,-0.020704802125692368
1783696089718645000,8.31264501953125,0.12656880915164948,0.14739036560058594,-0.0007421630434691906
1783696089728609000,8.322609130859375,0.144295334815979,0.10750260204076767,-0.0038945467676967382
1783696089738571800,8.33257177734375,0.1484939306974411,0.03966129198670387,-0.02377936616539955
1783696089748535800,8.342535888671875,0.14017900824546814,-0.043909765779972076,-0.0434393547475338
1783696089758499800,8.352499755859375,0.12027844786643982,-0.14067284762859344,-0.05242452397942543
1783696089768462800,8.362462890625,0.09736114740371704,-0.24622270464897156,-0.05206632986664772
1783696089778427000,8.372427001953126,0.07664778083562851,-0.3483552038669586,-0.026771701872348785
1783696089788390000,8.382389892578125,0.05166972428560257,-0.43989098072052,0.0215284526348114
1783696089798354000,8.39235400390625,0.030044330283999443,-0.5047465562820435,0.08455853909254074
1783696089808318000,8.40231787109375,0.011355598457157612,-0.50888592004776,0.14071901142597198
1783696089818281000,8.412281005859375,-0.009058333933353424,-0.46653375029563904,0.18002234399318695
1783696089828245000,8.422244873046875,-0.033252887427806854,-0.39218494296073914,0.2007065862417221
1783696089838208000,8.4322080078125,-0.05355704203248024,-0.28287768363952637,0.20748725533485413
1783696089848172000,8.442172119140626,-0.07056000083684921,-0.14721785485744476,0.20343232154846191
1783696089858135000,8.452135009765625,-0.08542559295892715,-0.018501074984669685,0.18612167239189148
1783696089868099000,8.46209912109375,-0.09778212755918503,0.08092724531888962,0.16327229142189026
1783696089878062800,8.472062744140626,-0.11368667334318161,0.13908684253692627,0.13739719986915588
1783696089888026000,8.482026123046875,-0.1364351361989975,0.1662878394126892,0.1111735925078392
1783696089897990000,8.491989990234375,-0.16298365592956543,0.16435889899730682,0.08605705946683884
1783696089907953000,8.501952880859376,-0.19548167288303375,0.14773039519786835,0.07234497368335724
1783696089917917000,8.5119169921875,-0.22871756553649902,0.12346888333559036,0.07325217872858047
1783696089927880000,8.5218798828125,-0.25547781586647034,0.09301537275314331,0.08055216819047928
1783696089937844000,8.531843994140624,-0.27306556701660156,0.06533435732126236,0.09831476956605911
1783696089947808000,8.54180810546875,-0.27758681774139404,0.049361780285835266,0.11835159361362457
1783696089957771000,8.55177099609375,-0.2668590545654297,0.03525632992386818,0.13271358609199524
1783696089967735000,8.561735107421875,-0.24826112389564514,0.0053168064914643764,0.11930431425571442
1783696089977698000,8.571697998046876,-0.2266736924648285,-0.02577059715986252,0.07882537692785263
1783696089987662000,8.581662109375,-0.21681945025920868,-0.042828142642974854,0.022652123123407364
1783696089997624800,8.591624755859375,-0.22467738389968872,-0.0504072830080986,-0.04442983865737915
1783696090007588900,8.6015888671875,-0.23395876586437225,-0.054524533450603485,-0.10655339807271957
1783696090017553200,8.61155322265625,-0.23883123695850372,-0.059024691581726074,-0.149498850107193
1783696090027516000,8.621515869140625,-0.24414397776126862,-0.055241938680410385,-0.16096828877925873
1783696090037480000,8.63147998046875,-0.24198676645755768,-0.0464121475815773,-0.14486245810985565
1783696090047443000,8.64144287109375,-0.22948509454727173,-0.02847815491259098,-0.1049339547753334
1783696090057407000,8.651406982421875,-0.20019404590129852,-0.0028588115237653255,-0.045557186007499695
1783696090067370000,8.661369873046874,-0.1700124442577362,0.03151167929172516,0.020495332777500153
1783696090077334000,8.671333984375,-0.13505882024765015,0.05576299503445625,0.07787265628576279
1783696090087297800,8.6812978515625,-0.09650956839323044,0.07185301184654236,0.10980235785245895
1783696090097261000,8.691260986328125,-0.06541524082422256,0.09470860660076141,0.11708992719650269
1783696090107224800,8.701224853515624,-0.03994716331362724,0.11907999217510223,0.11344911903142929
1783696090117188000,8.71118798828125,-0.021565014496445656,0.11695662885904312,0.10785650461912155
1783696090127151900,8.72115185546875,-0.010663100518286228,0.0917961448431015,0.11495702713727951
1783696090137115000,8.731114990234374,-0.006028451956808567,0.061660632491111755,0.13147412240505219
1783696090147079000,8.741078857421876,-0.006701965816318989,0.027245404198765755,0.15239457786083221
1783696090157043000,8.75104296875,-0.006493664812296629,-0.003844241611659527,0.17051711678504944
1783696090167006000,8.761005859375,-0.003868586616590619,-0.01652807928621769,0.18388111889362335
1783696090176970000,8.770969970703124,-0.00883553083986044,-0.01872396096587181,0.17808867990970612
1783696090186933000,8.78093310546875,-0.01795419491827488,-0.023856671527028084,0.1589176505804062
1783696090196897000,8.79089697265625,-0.02697351947426796,-0.035770006477832794,0.13191917538642883
1783696090206860000,8.800860107421874,-0.041327957063913345,-0.05508112162351608,0.09682164341211319
1783696090216824000,8.810823974609375,-0.053660307079553604,-0.09372329711914062,0.06761438399553299
1783696090226788000,8.8207880859375,-0.06981930881738663,-0.14591379463672638,0.04331197217106819
1783696090236751000,8.830751220703124,-0.09151044487953186,-0.19632600247859955,0.02276008576154709
1783696090246715100,8.840715087890626,-0.12269605696201324,-0.2446565181016922,-0.0030691144056618214
1783696090256678000,8.850677978515625,-0.15425381064414978,-0.27622222900390625,-0.02725737914443016
1783696090266642200,8.86064208984375,-0.17652688920497894,-0.2727987468242645,-0.038479674607515335
1783696090276605000,8.87060498046875,-0.18362407386302948,-0.24066367745399475,-0.035839736461639404
1783696090286569000,8.88056884765625,-0.1792469024658203,-0.1938311904668808,-0.02040272206068039
1783696090296532700,8.89053271484375,-0.16560986638069153,-0.1519298255443573,0.012078365311026573
1783696090306495700,8.900495849609374,-0.14414851367473602,-0.11549831181764603,0.05858248472213745
1783696090316459800,8.910459716796876,-0.12341079860925674,-0.07910620421171188,0.10645642876625061
1783696090326422800,8.9204228515625,-0.09783034026622772,-0.055266644805669785,0.1376795917749405
1783696090336386600,8.930386474609374,-0.08387511223554611,-0.042925022542476654,0.14438249170780182
1783696090346349800,8.940349853515626,-0.08021698892116547,-0.04722017049789429,0.135478213429451
1783696090356313600,8.950313720703125,-0.08469327539205551,-0.06835441291332245,0.11957996338605881
1783696090366277600,8.960277587890625,-0.09877128154039383,-0.09285309910774231,0.09701713174581528
1783696090376240600,8.97024072265625,-0.11826355010271072,-0.11940772831439972,0.07255189120769501
1783696090386204700,8.98020458984375,-0.13514184951782227,-0.15419580042362213,0.046186864376068115
1783696090396167700,8.990167724609375,-0.15628938376903534,-0.19470331072807312,0.025417091324925423
1783696090406131700,9.000131591796874,-0.1755717396736145,-0.23029246926307678,0.0022257515229284763
1783696090416094700,9.0100947265625,-0.18812695145606995,-0.23398925364017487,-0.022467471659183502
1783696090426058800,9.020058837890625,-0.19556063413619995,-0.1952839344739914,-0.04481352120637894
1783696090436022800,9.030022705078125,-0.19973906874656677,-0.1406242847442627,-0.06684695929288864
1783696090445985800,9.03998583984375,-0.19951564073562622,-0.09121040254831314,-0.0844709649682045
1783696090455949800,9.04994970703125,-0.19901975989341736,-0.05029379576444626,-0.0968189463019371
1783696090465912600,9.05991259765625,-0.19308649003505707,-0.020359598100185394,-0.10805455595254898
1783696090475876600,9.069876708984374,-0.1865142285823822,-0.008322000503540039,-0.11246095597743988
1783696090485839600,9.079839599609375,-0.1864686906337738,-0.024082588031888008,-0.11707142740488052
1783696090495803600,9.0898037109375,-0.18582038581371307,-0.04944417625665665,-0.10699992626905441
1783696090505767700,9.099767578125,-0.1855364888906479,-0.07054280489683151,-0.08757003396749496
1783696090515730700,9.109730712890626,-0.18449881672859192,-0.0851622149348259,-0.06656214594841003
1783696090525694700,9.11969482421875,-0.17566457390785217,-0.10338915884494781,-0.046187903732061386
1783696090535657700,9.12965771484375,-0.16160514950752258,-0.12151418626308441,-0.027725722640752792
1783696090545621800,9.139621826171876,-0.14793434739112854,-0.12833960354328156,-0.02036314643919468
1783696090555584800,9.149584716796875,-0.13348270952701569,-0.14038074016571045,-0.0235541183501482
1783696090565548500,9.159548583984375,-0.11946569383144379,-0.14781442284584045,-0.037055548280477524
1783696090575512600,9.1695126953125,-0.11053452640771866,-0.14744780957698822,-0.04939715564250946
1783696090585475600,9.1794755859375,-0.10235356539487839,-0.14465175569057465,-0.05666518583893776
1783696090595439600,9.189439697265625,-0.1019345372915268,-0.1285696178674698,-0.0584276020526886
1783696090605402600,9.199402587890624,-0.10427199304103851,-0.11291076987981796,-0.05971577391028404
1783696090615366700,9.20936669921875,-0.11414705216884613,-0.11634659022092819,-0.07116053998470306
1783696090625329700,9.21932958984375,-0.13208425045013428,-0.13036572933197021,-0.08382120728492737
1783696090635293700,9.229293701171875,-0.14499609172344208,-0.1442159116268158,-0.09464361518621445
1783696090645257700,9.2392578125,-0.15786528587341309,-0.1553599089384079,-0.10080483555793762
1783696090655220700,9.249220703125,-0.1665012240409851,-0.1623612344264984,-0.09215645492076874
1783696090665184800,9.259184814453125,-0.17344461381435394,-0.15893641114234924,-0.07167728245258331
1783696090675147800,9.269147705078124,-0.17965403199195862,-0.14080122113227844,-0.040231853723526
1783696090685111800,9.27911181640625,-0.18183569610118866,-0.11423113197088242,-0.00865634810179472
1783696090695074800,9.28907470703125,-0.18875864148139954,-0.0927712619304657,0.013572667725384235
1783696090705038800,9.299038818359374,-0.2026081383228302,-0.07550865411758423,0.024556078016757965
1783696090715003000,9.3090029296875,-0.22050584852695465,-0.06572305411100388,0.0328655019402504
1783696090724965600,9.318965576171875,-0.23900416493415833,-0.06919635087251663,0.046630315482616425
1783696090734930000,9.328929931640625,-0.25567591190338135,-0.08472616225481033,0.07828309386968613
1783696090744892700,9.338892578125,-0.2778565585613251,-0.10101618617773056,0.1309441775083542
1783696090754856700,9.348856689453125,-0.2983803153038025,-0.12339197099208832,0.18479816615581512
1783696090764819700,9.35881982421875,-0.3191785514354706,-0.1314469575881958,0.23213079571723938
1783696090774783500,9.368783447265624,-0.34671154618263245,-0.11471042782068253,0.2634532153606415
1783696090784747500,9.37874755859375,-0.3760657012462616,-0.06855039298534393,0.27295243740081787
1783696090794710500,9.38871044921875,-0.4012581408023834,-0.007074466906487942,0.261540949344635
1783696090804674600,9.398674560546874,-0.4161960780620575,0.06008273363113403,0.22679439187049866
1783696090814637600,9.408637451171876,-0.42395949363708496,0.1140434741973877,0.18439054489135742
1783696090824601600,9.4186015625,-0.4370792806148529,0.11714313179254532,0.14330968260765076
1783696090834564600,9.428564697265625,-0.4675236940383911,0.08376350998878479,0.10004778206348419
1783696090844528600,9.438528564453126,-0.5054974555969238,0.05717131495475769,0.05633731558918953
1783696090854492700,9.44849267578125,-0.543926477432251,0.044599320739507675,0.027011040598154068
1783696090864455700,9.45845556640625,-0.5953877568244934,-0.0060737100429832935,0.014064082875847816
1783696090874419700,9.468419677734374,-0.6483564972877502,-0.07892315834760666,0.019593259319663048
1783696090884382700,9.4783828125,-0.7002354264259338,-0.14495596289634705,0.04662887379527092
1783696090894346800,9.4883466796875,-0.7416574358940125,-0.19293804466724396,0.0796978771686554
1783696090904309800,9.498309814453124,-0.7567892074584961,-0.22034144401550293,0.10383196920156479
1783696090914273800,9.508273681640626,-0.7392514944076538,-0.22136053442955017,0.10693027824163437
1783696090924237800,9.51823779296875,-0.7146159410476685,-0.22167851030826569,0.09149512648582458
1783696090934200800,9.528200927734375,-0.6869832277297974,-0.2276783138513565,0.06404802948236465
1783696090944164900,9.538164794921874,-0.666698694229126,-0.2349516749382019,0.033470675349235535
1783696090954128000,9.5481279296875,-0.6607426404953003,-0.2425421178340912,-0.002250226214528084
1783696090964092000,9.558091796875,-0.6688037514686584,-0.25859910249710083,-0.03079691343009472
1783696090974054700,9.5680546875,-0.68386310338974,-0.28050974011421204,-0.04024890810251236
1783696090984018700,9.578018798828126,-0.6977397799491882,-0.2918545603752136,-0.030414123088121414
1783696090993982700,9.587982666015625,-0.7059112787246704,-0.3009117841720581,-0.008131349459290504
1783696091003945500,9.597945556640624,-0.703097403049469,-0.3015988767147064,0.017317552119493484
1783696091013909500,9.607909423828126,-0.6843382120132446,-0.2885074317455292,0.03966459631919861
1783696091023872500,9.61787255859375,-0.6576030254364014,-0.27054867148399353,0.05187305808067322
1783696091033836500,9.62783642578125,-0.6232004165649414,-0.25604867935180664,0.05692324414849281
1783696091043799600,9.637799560546876,-0.5813789367675781,-0.23797966539859772,0.06342055648565292
1783696091053763600,9.647763671875,-0.5392354726791382,-0.22069361805915833,0.08289199322462082
1783696091063726600,9.6577265625,-0.5019853115081787,-0.21173447370529175,0.10104037076234818
1783696091073690600,9.667690673828124,-0.48075374960899353,-0.2067566215991974,0.11731613427400589
1783696091083654700,9.677654541015626,-0.4673609733581543,-0.19221895933151245,0.13558489084243774
1783696091093617700,9.68761767578125,-0.462125301361084,-0.191257506608963,0.14523570239543915
1783696091103581700,9.697581787109375,-0.4614376723766327,-0.2159801572561264,0.15709635615348816
1783696091113544700,9.707544677734376,-0.4565586447715759,-0.2640601098537445,0.1756121963262558
1783696091123508700,9.7175087890625,-0.4419485628604889,-0.3365423083305359,0.1975577175617218
1783696091133472800,9.72747265625,-0.417962908744812,-0.4160858392715454,0.21717806160449982
1783696091143435800,9.737435791015624,-0.394535094499588,-0.49499690532684326,0.22575397789478302
1783696091153399800,9.74739990234375,-0.3785739541053772,-0.5545843243598938,0.2124648094177246
1783696091163362800,9.75736279296875,-0.37749671936035156,-0.6068259477615356,0.1694326400756836
1783696091173326800,9.767326904296874,-0.3991437256336212,-0.648283839225769,0.08843661844730377
1783696091183289900,9.777289794921876,-0.4424046576023102,-0.6538783311843872,-0.0113536287099123
1783696091193253600,9.787253662109375,-0.4931142330169678,-0.6366131901741028,-0.10818013548851013
1783696091203217000,9.797216796875,-0.5440295934677124,-0.600741982460022,-0.19400449097156525
1783696091213180700,9.8071806640625,-0.5789963006973267,-0.5591551661491394,-0.25433340668678284
1783696091223144700,9.817144775390625,-0.5981239080429077,-0.5012273788452148,-0.28934916853904724
1783696091233107700,9.827107666015625,-0.599556565284729,-0.41993024945259094,-0.29608413577079773
1783696091243071700,9.83707177734375,-0.584087073802948,-0.3355943262577057,-0.27712854743003845
1783696091253034500,9.847034423828125,-0.5654485821723938,-0.2653299570083618,-0.2418532520532608
1783696091262998500,9.85699853515625,-0.5451685786247253,-0.22430449724197388,-0.2020357996225357
1783696091272961500,9.86696142578125,-0.5138048529624939,-0.19654889404773712,-0.1602638214826584
1783696091282925600,9.876925537109376,-0.4828730523586273,-0.1659284085035324,-0.11497516185045242
1783696091292890000,9.88689013671875,-0.45976588129997253,-0.17163854837417603,-0.0767793357372284
1783696091302853000,9.89685302734375,-0.4446505606174469,-0.21172790229320526,-0.050546132028102875
1783696091312817200,9.906817138671874,-0.44185295701026917,-0.26683902740478516,-0.0380212664604187
1783696091322780200,9.9167802734375,-0.4501654803752899,-0.3034417927265167,-0.03574373573064804
1783696091332744200,9.926744140625,-0.4622645378112793,-0.3413892984390259,-0.041064951568841934
1783696091342707200,9.936707275390624,-0.4793734848499298,-0.38470375537872314,-0.046362511813640594
1783696091352671200,9.946671142578126,-0.5026363134384155,-0.4335913062095642,-0.047316551208496094
1783696091362635000,9.956635009765625,-0.520688533782959,-0.4827636480331421,-0.038714006543159485
1783696091372598300,9.966598388671875,-0.5336998105049133,-0.5323852300643921,-0.02874704822897911
1783696091382562000,9.97656201171875,-0.5442893505096436,-0.5839996933937073,-0.02614913508296013
1783696091392525300,9.986525390625,-0.5579031705856323,-0.6183596253395081,-0.03255991265177727
1783696091402489000,9.996489013671875,-0.5805488228797913,-0.6292799115180969,-0.05352910980582237
1783696091412452000,10.0064521484375,-0.6048197150230408,-0.6062602996826172,-0.09288147836923599
1783696091422416100,10.016416015625,-0.6310616731643677,-0.5403198599815369,-0.13478632271289825
1783696091432380200,10.026380126953125,-0.6753537654876709,-0.5211570858955383,-0.14633846282958984
1783696091442343000,10.036343017578124,-0.7129892706871033,-0.5291958451271057,-0.13276246190071106
1783696091452307000,10.046306884765626,-0.7300637364387512,-0.5586917400360107,-0.10844641923904419
1783696091462270000,10.05627001953125,-0.7675669193267822,-0.5864996910095215,-0.0793529823422432
1783696091472234000,10.06623388671875,-0.780396044254303,-0.5608951449394226,-0.05891113355755806
1783696091482197000,10.076197021484376,-0.779566764831543,-0.47198471426963806,-0.09610377997159958
1783696091492161000,10.0861611328125,-0.7847439050674438,-0.3313756585121155,-0.169897198677063
1783696091502125000,10.096125,-0.7771328687667847,-0.1817539632320404,-0.2412179857492447
1783696091512088000,10.106088134765624,-0.756218671798706,-0.036942530423402786,-0.28040099143981934
1783696091522052000,10.116052001953125,-0.72320157289505,0.04584795981645584,-0.28924694657325745
1783696091532015000,10.12601513671875,-0.7556613683700562,0.10587857663631439,-0.05723842233419418
1783696091541979100,10.135979248046874,-0.7328892350196838,-0.35719746351242065,0.05410914123058319
1783696091551942100,10.145942138671876,-0.6640393137931824,-0.6114268898963928,0.16617149114608765
1783696091561906200,10.15590625,-0.6546343564987183,-0.7762128710746765,0.29636675119400024
1783696091571869200,10.165869140625,-0.7282960414886475,-0.9283437728881836,0.35544833540916443
1783696091581833200,10.175833251953126,-0.7990439534187317,-1.0066170692443848,0.3563160002231598
1783696091591797000,10.185796875,-0.8918824791908264,-1.0716382265090942,0.32431697845458984
1783696091601760300,10.19576025390625,-0.9591861367225647,-1.0346410274505615,0.2714601755142212
1783696091611724000,10.20572412109375,-1.0324395895004272,-0.9302504658699036,0.216770201921463
1783696091621687300,10.215687255859375,-1.097655177116394,-0.809847891330719,0.18660591542720795
1783696091631651000,10.225651123046875,-1.0736713409423828,-0.6506293416023254,0.1902216225862503
1783696091641614000,10.235614013671874,-1.0602866411209106,-0.5692692399024963,0.14788775146007538
