time,seconds_elapsed,z,y,x
1783696027866786300,0.064786376953125,0.3493133783340454,0.5686224699020386,0.10831882059574127
1783696027876750300,0.074750244140625,0.3544214963912964,0.6954039931297302,0.1645856648683548
1783696027886713300,0.08471337890625,0.3820195496082306,0.6987992525100708,0.19982488453388214
1783696027896677400,0.094677490234375,0.4164440631866455,0.6242634654045105,0.22680389881134033
1783696027906641200,0.10464111328125,0.4503711462020874,0.5257550477981567,0.23974260687828064
1783696027916605200,0.114605224609375,0.48627641797065735,0.43037551641464233,0.23835432529449463
1783696027926568200,0.124568115234375,0.5079601407051086,0.34223446249961853,0.2022669017314911
1783696027936532200,0.1345322265625,0.5163993239402771,0.25962507724761963,0.139549121260643
1783696027946496300,0.144496337890625,0.5187399983406067,0.2296711802482605,0.07737867534160614
1783696027956460300,0.154460205078125,0.5206649303436279,0.24035386741161346,0.031225107610225677
1783696027966424300,0.16442431640625,0.5292262434959412,0.256285160779953,-0.003022077027708292
1783696027976387300,0.17438720703125,0.5332192182540894,0.25412505865097046,-0.03711248189210892
1783696027986351400,0.184351318359375,0.5254803895950317,0.22469528019428253,-0.07318606972694397
1783696027996315100,0.194315185546875,0.5036227107048035,0.1750289499759674,-0.11171212047338486
1783696028006279200,0.204279052734375,0.48621898889541626,0.1389753371477127,-0.15500794351100922
1783696028016242200,0.2142421875,0.4696030914783478,0.11614224314689636,-0.2005729079246521
1783696028026206200,0.224206298828125,0.45875710248947144,0.1137576475739479,-0.2441275715827942
1783696028036170200,0.234170166015625,0.45855632424354553,0.16478000581264496,-0.2734048068523407
1783696028046134300,0.24413427734375,0.4598945379257202,0.24024547636508942,-0.2836068570613861
1783696028056097300,0.25409716796875,0.4859940707683563,0.3449704945087433,-0.2852359712123871
1783696028066061300,0.264061279296875,0.5102259516716003,0.4722677171230316,-0.27465230226516724
1783696028076025300,0.274025390625,0.5336411595344543,0.5816428065299988,-0.2547341585159302
1783696028085989000,0.283989013671875,0.5593249201774597,0.6623557806015015,-0.22358475625514984
1783696028095952400,0.293952392578125,0.5712389945983887,0.7082213163375854,-0.19315539300441742
1783696028105916200,0.303916259765625,0.5686905980110168,0.7142232656478882,-0.16455969214439392
1783696028115880200,0.313880126953125,0.5599297881126404,0.6763449907302856,-0.14550426602363586
1783696028125844200,0.32384423828125,0.5494270920753479,0.6155943274497986,-0.1332281529903412
1783696028135807200,0.33380712890625,0.5318191647529602,0.5347951054573059,-0.12200601398944855
1783696028145771300,0.343771240234375,0.5144897103309631,0.4408736526966095,-0.1137629970908165
1783696028155735300,0.3537353515625,0.5055496096611023,0.34064242243766785,-0.10359153151512146
1783696028165699300,0.36369921875,0.4923422038555145,0.2497228980064392,-0.09498445689678192
1783696028175662300,0.373662353515625,0.4811527132987976,0.17465586960315704,-0.08264216780662537
1783696028185626400,0.38362646484375,0.47136107087135315,0.12944552302360535,-0.06415370851755142
1783696028195590100,0.393590087890625,0.4510330557823181,0.1297565996646881,-0.046312443912029266
1783696028205554200,0.40355419921875,0.42839911580085754,0.14721974730491638,-0.034622229635715485
1783696028215517200,0.41351708984375,0.4000147581100464,0.17576538026332855,-0.02678382582962513
1783696028225481500,0.4234814453125,0.36930450797080994,0.2173847258090973,-0.025749454274773598
1783696028235445500,0.433445556640625,0.3412244915962219,0.25364863872528076,-0.020089128986001015
1783696028245409500,0.443409423828125,0.31702566146850586,0.2786687910556793,0.00451474916189909
1783696028255372500,0.45337255859375,0.29053235054016113,0.2786019742488861,0.03964744135737419
1783696028265336600,0.463336669921875,0.26677560806274414,0.25639837980270386,0.0854833722114563
1783696028275300600,0.473300537109375,0.23640216886997223,0.23562362790107727,0.1367332935333252
1783696028285264400,0.483264404296875,0.20129132270812988,0.22989997267723083,0.1761677861213684
1783696028295227600,0.4932275390625,0.1629536747932434,0.23413465917110443,0.1931360512971878
1783696028305191400,0.50319140625,0.12540335953235626,0.2445574700832367,0.17741167545318604
1783696028315155500,0.513155517578125,0.09033671021461487,0.2553301453590393,0.13496707379817963
1783696028325119500,0.523119384765625,0.05964750796556473,0.26589035987854004,0.07845134288072586
1783696028335082500,0.53308251953125,0.035243939608335495,0.2657372057437897,0.032460253685712814
1783696028345046500,0.543046630859375,0.01963675022125244,0.24303269386291504,0.003301568329334259
1783696028355010600,0.553010498046875,0.0052145253866910934,0.21296465396881104,-0.008935910649597645
1783696028364974600,0.562974609375,-0.0062597040086984634,0.17657282948493958,0.0034573758020997047
1783696028374937600,0.5729375,-0.026671646162867546,0.13205085694789886,0.02668951079249382
1783696028384901600,0.582901611328125,-0.04137708991765976,0.08640588074922562,0.06253672391176224
1783696028394865400,0.592865478515625,-0.054575350135564804,0.05977727472782135,0.10729075968265533
1783696028404829400,0.602829345703125,-0.06492999196052551,0.05485522374510765,0.1487918645143509
1783696028414792400,0.61279248046875,-0.07498037070035934,0.056204210966825485,0.18765145540237427
1783696028424756500,0.622756591796875,-0.07429061084985733,0.052063263952732086,0.2129480242729187
1783696028434720500,0.632720458984375,-0.0644681379199028,0.021334731951355934,0.20969945192337036
1783696028444684500,0.6426845703125,-0.05695749446749687,-0.01929764822125435,0.1682625263929367
1783696028454647600,0.6526474609375,-0.05778264254331589,-0.05622002109885216,0.10371831804513931
1783696028464611600,0.662611572265625,-0.0634882003068924,-0.055795248597860336,0.0269955825060606
1783696028474575600,0.67257568359375,-0.06126246228814125,-0.009581346064805984,-0.049561794847249985
1783696028484539400,0.682539306640625,-0.05426473915576935,0.057144686579704285,-0.10603652149438858
1783696028494502700,0.692502685546875,-0.037187106907367706,0.13200801610946655,-0.13218441605567932
1783696028504466400,0.702466552734375,-0.012846613302826881,0.18995440006256104,-0.1322893500328064
1783696028514430500,0.712430419921875,0.00509528536349535,0.19746120274066925,-0.1139930784702301
1783696028524394500,0.72239453125,0.019603388383984566,0.1595098227262497,-0.09013461321592331
1783696028534357500,0.732357421875,0.019832894206047058,0.10230107605457306,-0.05187458172440529
1783696028544321500,0.742321533203125,0.016033628955483437,0.04309021681547165,-0.010352704674005508
1783696028554285600,0.75228564453125,0.007243032101541758,-0.01089087501168251,0.019615672528743744
1783696028564249600,0.76224951171875,-0.0029558090027421713,-0.050873979926109314,0.028781739994883537
1783696028574212600,0.772212646484375,-0.011155005544424057,-0.08173385262489319,0.02067609317600727
1783696028584176600,0.7821767578125,-0.0125502347946167,-0.09586618840694427,0.007840189151465893
1783696028594140400,0.792140380859375,-0.003836250165477395,-0.10174887627363205,-0.008296387270092964
1783696028604104400,0.8021044921875,0.004786798730492592,-0.11576882004737854,-0.020924828946590424
1783696028614067500,0.8120673828125,0.01657847873866558,-0.12835651636123657,-0.023273471742868423
1783696028624031500,0.822031494140625,0.029977107420563698,-0.14955049753189087,-0.019616950303316116
1783696028633995500,0.83199560546875,0.04370434954762459,-0.17376987636089325,-0.002896195277571678
1783696028643959600,0.84195947265625,0.04264281317591667,-0.20105981826782227,0.023762313649058342
1783696028653922600,0.851922607421875,0.03801475092768669,-0.23297399282455444,0.04793056100606918
1783696028663886600,0.861886474609375,0.03639395162463188,-0.25814273953437805,0.06716923415660858
1783696028673850600,0.8718505859375,0.028225230053067207,-0.26413029432296753,0.08393067121505737
1783696028683814400,0.881814453125,0.02251754328608513,-0.2457592636346817,0.09726271778345108
1783696028693777400,0.89177734375,0.025997035205364227,-0.19063952565193176,0.11626116186380386
1783696028703741400,0.901741455078125,0.03424990549683571,-0.09674926102161407,0.14787499606609344
1783696028713705500,0.91170556640625,0.044899486005306244,0.025762738659977913,0.18513956665992737
1783696028723669500,0.92166943359375,0.06077618896961212,0.14902715384960175,0.2204562872648239
1783696028733632300,0.93163232421875,0.07922428846359253,0.23591461777687073,0.24647276103496552
1783696028743596500,0.941596435546875,0.09673510491847992,0.2776665687561035,0.24720832705497742
1783696028753560600,0.951560546875,0.10770875215530396,0.2764319181442261,0.22261343896389008
1783696028763524600,0.961524658203125,0.10758145153522491,0.23533374071121216,0.1781919151544571
1783696028773487400,0.9714873046875,0.10424776375293732,0.17515462636947632,0.12440086156129837
1783696028783451600,0.98145166015625,0.09446091204881668,0.11126459389925003,0.06689415872097015
1783696028793415400,0.99141552734375,0.061237167567014694,0.0649740919470787,0.0030643423087894917
1783696028803379500,1.00137939453125,0.03501914441585541,0.028735661879181862,-0.07113505154848099
1783696028813342200,1.01134228515625,0.021413980051875114,0.017710940912365913,-0.14688622951507568
1783696028823306200,1.02130615234375,0.007418801076710224,0.03563428297638893,-0.22175247967243195
1783696028833270500,1.0312705078125,-0.0028336921241134405,0.06298178434371948,-0.2852596044540405
1783696028843234600,1.041234619140625,-0.0026259655132889748,0.07865581661462784,-0.33326202630996704
1783696028853197300,1.051197265625,0.0010176023934036493,0.07735014706850052,-0.356582373380661
1783696028863161300,1.061161376953125,0.016007469967007637,0.0696573406457901,-0.347172349691391
1783696028873125600,1.071125732421875,0.03046713024377823,0.058092985302209854,-0.3089771270751953
1783696028883089700,1.081089599609375,0.04454406723380089,0.05414857715368271,-0.24465008080005646
1783696028893052400,1.091052490234375,0.04804291948676109,0.05546741187572479,-0.15940837562084198
1783696028903016400,1.101016357421875,0.04922030121088028,0.058741502463817596,-0.06356466561555862
1783696028912980500,1.11098046875,0.04477635398507118,0.058361347764730453,0.027023829519748688
1783696028922943200,1.120943115234375,0.03616848587989807,0.038880057632923126,0.10071296244859695
1783696028932907300,1.1309072265625,0.02746080979704857,0.0006877180421724916,0.14819100499153137
1783696028942871300,1.140871337890625,0.022797880694270134,-0.029178302735090256,0.16940735280513763
1783696028952835300,1.15083544921875,0.02142208069562912,-0.04251350834965706,0.17308281362056732
1783696028962798300,1.16079833984375,0.016510944813489914,-0.042844008654356,0.1631593406200409
1783696028972762400,1.170762451171875,0.007038590032607317,-0.047025080770254135,0.1405514031648636
1783696028982726400,1.180726318359375,-0.010598194785416126,-0.05154526233673096,0.11695951968431473
1783696028992690400,1.1906904296875,-0.028464043512940407,-0.06176435574889183,0.09621754288673401
1783696029002653400,1.2006533203125,-0.0387241393327713,-0.07208916544914246,0.07762788236141205
1783696029012617500,1.210617431640625,-0.05885544791817665,-0.07417050749063492,0.07812806963920593
1783696029022581200,1.220581298828125,-0.08915503323078156,-0.05277227237820625,0.0942750796675682
1783696029032545300,1.230545166015625,-0.1311722844839096,-0.022748926654458046,0.10968928784132004
1783696029042508300,1.24050830078125,-0.16733454167842865,0.004255261272192001,0.11841672658920288
1783696029052472300,1.250472412109375,-0.2001888006925583,0.018314436078071594,0.1116950511932373
1783696029062436400,1.260436279296875,-0.22844573855400085,0.03821410983800888,0.10040538012981415
1783696029072400400,1.270400390625,-0.24211132526397705,0.05889780819416046,0.08707750588655472
1783696029082363400,1.28036328125,-0.2460235208272934,0.060415808111429214,0.0740053802728653
1783696029092327400,1.290327392578125,-0.23276706039905548,0.03527875617146492,0.06825120002031326
1783696029102291500,1.30029150390625,-0.212931826710701,-0.02250012196600437,0.08370685577392578
1783696029112255200,1.310255126953125,-0.18623505532741547,-0.08438610285520554,0.12397443503141403
1783696029122218500,1.320218505859375,-0.15796907246112823,-0.13738301396369934,0.18169844150543213
1783696029132182300,1.330182373046875,-0.1406240314245224,-0.1812937706708908,0.2289363294839859
1783696029142146300,1.340146240234375,-0.12904274463653564,-0.21065326035022736,0.2637827396392822
1783696029152110300,1.3501103515625,-0.12605050206184387,-0.21491830050945282,0.2798416316509247
1783696029162073300,1.3600732421875,-0.12478337436914444,-0.18275290727615356,0.28137028217315674
1783696029172037400,1.370037353515625,-0.12500303983688354,-0.1280057728290558,0.2684066593647003
1783696029182001400,1.38000146484375,-0.12286319583654404,-0.06119105592370033,0.2582605481147766
1783696029191965400,1.38996533203125,-0.1125379279255867,0.02625664323568344,0.2647968530654907
1783696029201928400,1.399928466796875,-0.09239750355482101,0.12761762738227844,0.2981550693511963
1783696029211892500,1.409892578125,-0.07018587738275528,0.2179575264453888,0.3280963897705078
1783696029221856300,1.419856201171875,-0.0582549124956131,0.21444109082221985,0.32745349407196045
1783696029231820500,1.429820556640625,-0.06840094923973083,0.14143823087215424,0.2928219735622406
1783696029241783300,1.439783203125,-0.08924870193004608,0.06027387082576752,0.22518406808376312
1783696029251747300,1.449747314453125,-0.11935322731733322,-0.01696152426302433,0.14447171986103058
1783696029261711600,1.459711669921875,-0.1711093634366989,-0.094129279255867,0.07429742813110352
1783696029271675600,1.469675537109375,-0.24043262004852295,-0.18511489033699036,0.028822511434555054
1783696029281638400,1.479638427734375,-0.31543684005737305,-0.23837731778621674,0.036843154579401016
1783696029291602400,1.4896025390625,-0.3829084038734436,-0.22579172253608704,0.09549576044082642
1783696029301566500,1.49956640625,-0.4215942621231079,-0.18255077302455902,0.18041358888149261
1783696029311530500,1.509530517578125,-0.428816020488739,-0.11192671209573746,0.27500903606414795
1783696029321493500,1.519493408203125,-0.4111587405204773,-0.01416979730129242,0.3595644235610962
1783696029331457300,1.529457275390625,-0.3707406222820282,0.08965817093849182,0.4082778990268707
1783696029341421300,1.53942138671875,-0.3118447959423065,0.16927364468574524,0.41076236963272095
1783696029351385600,1.549385498046875,-0.25145223736763,0.22291871905326843,0.37941092252731323
1783696029361348400,1.559348388671875,-0.19269625842571259,0.247572124004364,0.3327896296977997
1783696029371312400,1.5693125,-0.1473735272884369,0.253538578748703,0.29079166054725647
1783696029381276400,1.5792763671875,-0.11815652996301651,0.26427164673805237,0.26431289315223694
1783696029391240700,1.58924072265625,-0.11095213890075684,0.27742961049079895,0.2518673539161682
1783696029401203500,1.599203369140625,-0.12226258218288422,0.2751736342906952,0.24156036972999573
1783696029411167500,1.60916748046875,-0.14271943271160126,0.253986120223999,0.23557911813259125
1783696029421131300,1.61913134765625,-0.1508556604385376,0.21443365514278412,0.23502543568611145
1783696029431095600,1.629095458984375,-0.1434430032968521,0.17105844616889954,0.24937212467193604
1783696029441058300,1.639058349609375,-0.11644334346055984,0.09575118124485016,0.2705722153186798
1783696029451022300,1.649022216796875,-0.0730801597237587,-0.021842828020453453,0.3053602874279022
1783696029460986400,1.658986328125,-0.02380848303437233,-0.13013549149036407,0.35687699913978577
1783696029470950400,1.668950439453125,0.022060452029109,-0.17723727226257324,0.4035703241825104
1783696029480913400,1.678913330078125,0.044942595064640045,-0.21575111150741577,0.42894598841667175
1783696029490877400,1.68887744140625,0.07001952081918716,-0.25221943855285645,0.41833439469337463
1783696029500841500,1.698841552734375,0.09952095150947571,-0.25615614652633667,0.37957048416137695
1783696029510805200,1.70880517578125,0.11670815944671631,-0.24951143562793732,0.33204567432403564
1783696029520768500,1.7187685546875,0.12032952904701233,-0.2672286629676819,0.2805023193359375
1783696029530732300,1.728732177734375,0.11386648565530777,-0.31860408186912537,0.235852912068367
1783696029540696300,1.7386962890625,0.10633533447980881,-0.37630119919776917,0.20090371370315552
1783696029550659300,1.748659423828125,0.09176110476255417,-0.4324577748775482,0.16664989292621613
1783696029560623400,1.758623291015625,0.07482127100229263,-0.49425989389419556,0.12407606840133667
1783696029570587400,1.76858740234375,0.04904252290725708,-0.5482938885688782,0.06570415198802948
1783696029580551400,1.778551513671875,0.025377940386533737,-0.5778040885925293,0.002577912760898471
1783696029590514400,1.788514404296875,-0.022256474941968918,-0.5658559203147888,-0.07301648706197739
1783696029600478500,1.798478515625,-0.06819680333137512,-0.5237971544265747,-0.1441148966550827
1783696029610442500,1.8084423828125,-0.09917294979095459,-0.43719029426574707,-0.19786766171455383
1783696029620406300,1.81840625,-0.1272277534008026,-0.32010549306869507,-0.22552752494812012
1783696029630369500,1.82836962890625,-0.1497618705034256,-0.20448458194732666,-0.22740484774112701
1783696029640333300,1.838333251953125,-0.16425585746765137,-0.10346315801143646,-0.21013638377189636
1783696029650297300,1.84829736328125,-0.17105627059936523,-0.026973776519298553,-0.1717015504837036
1783696029660261400,1.858261474609375,-0.1881050318479538,-0.00640005711466074,-0.13205479085445404
1783696029670224400,1.868224365234375,-0.20618242025375366,-0.03308633714914322,-0.08774110674858093
1783696029680188400,1.8781884765625,-0.22526557743549347,-0.11703876405954361,-0.03363232687115669
1783696029690152400,1.88815234375,-0.23896294832229614,-0.21628007292747498,0.046504322439432144
1783696029700116500,1.898116455078125,-0.25580185651779175,-0.2955053746700287,0.14431211352348328
1783696029710079500,1.90807958984375,-0.2718881070613861,-0.3768305480480194,0.23201972246170044
1783696029720043500,1.91804345703125,-0.2975681722164154,-0.4681341052055359,0.2840200960636139
1783696029730007300,1.92800732421875,-0.3327578902244568,-0.567438006401062,0.2949266731739044
1783696029739971300,1.937971435546875,-0.3685598373413086,-0.6548168659210205,0.2751239538192749
1783696029749934300,1.947934326171875,-0.410421222448349,-0.7209209203720093,0.25065383315086365
1783696029759898400,1.9578984375,-0.47478795051574707,-0.7723777294158936,0.21801386773586273
1783696029769862400,1.9678623046875,-0.5281829237937927,-0.8310044407844543,0.18358705937862396
1783696029779826400,1.977826416015625,-0.5697013139724731,-0.8859230875968933,0.1589389592409134
1783696029789789400,1.98778955078125,-0.6130338311195374,-0.8996005654335022,0.1561175286769867
1783696029799753500,1.99775341796875,-0.656398355960846,-0.8680309653282166,0.16947515308856964
1783696029809717500,2.007717529296875,-0.6924302577972412,-0.8205225467681885,0.18072856962680817
1783696029819681300,2.017681396484375,-0.7368339896202087,-0.7901196479797363,0.17897860705852509
1783696029829644500,2.02764453125,-0.7905225157737732,-0.7790230512619019,0.1598730981349945
1783696029839608300,2.0376083984375,-0.8442749381065369,-0.7909358739852905,0.12900573015213013
1783696029849572400,2.047572265625,-0.8994742631912231,-0.831770658493042,0.10162429511547089
1783696029859536400,2.057536376953125,-0.9584348201751709,-0.9210169315338135,0.09494934976100922
1783696029869499400,2.06749951171875,-1.0059865713119507,-1.0256586074829102,0.11860878020524979
1783696029879463400,2.07746337890625,-1.0472428798675537,-1.1051350831985474,0.16289980709552765
1783696029889427500,2.087427490234375,-1.0792367458343506,-1.1882182359695435,0.2148563265800476
1783696029899391500,2.0973916015625,-1.0971020460128784,-1.256966471672058,0.27557480335235596
1783696029909354500,2.1073544921875,-1.0977222919464111,-1.2699549198150635,0.33743321895599365
1783696029919318500,2.117318603515625,-1.0842573642730713,-1.2504611015319824,0.3870857357978821
1783696029929282300,2.1272822265625,-1.0688799619674683,-1.2424776554107666,0.40772774815559387
1783696029939245600,2.13724560546875,-1.044168472290039,-1.2313437461853027,0.4046747088432312
1783696029949209300,2.147209228515625,-1.0215600728988647,-1.2145236730575562,0.3793349266052246
1783696029959173400,2.15717333984375,-1.0115779638290405,-1.2080756425857544,0.33112797141075134
1783696029969137400,2.167137451171875,-1.0167025327682495,-1.1619031429290771,0.27525779604911804
1783696029979100400,2.177100341796875,-1.0418784618377686,-1.0689085721969604,0.22089789807796478
1783696029989064400,2.187064453125,-1.0914028882980347,-0.9519611597061157,0.16287171840667725
1783696029999028500,2.197028564453125,-1.156245470046997,-0.8447039127349854,0.08996901661157608
1783696030008992500,2.206992431640625,-1.2331329584121704,-0.7689119577407837,0.00921696238219738
1783696030018955500,2.21695556640625,-1.3148270845413208,-0.7118779420852661,-0.06439760327339172
1783696030028919600,2.22691943359375,-1.3971184492111206,-0.6703425645828247,-0.10987364500761032
1783696030038883300,2.23688330078125,-1.4716966152191162,-0.6475051641464233,-0.11888844519853592
1783696030048847400,2.246847412109375,-1.5363000631332397,-0.6388784050941467,-0.08401194959878922
1783696030058810400,2.256810302734375,-1.580779790878296,-0.6741640567779541,-0.020300064235925674
1783696030068774400,2.2667744140625,-1.6155418157577515,-0.753383219242096,0.043669626116752625
1783696030078738400,2.276738525390625,-1.648987889289856,-0.8622667789459229,0.09773233532905579
1783696030088702500,2.286702392578125,-1.685793161392212,-0.9650525450706482,0.127478688955307
1783696030098665500,2.29666552734375,-1.7212555408477783,-1.0152382850646973,0.1292954981327057
1783696030108629500,2.30662939453125,-1.7555086612701416,-1.0214875936508179,0.09596529603004456
1783696030118593500,2.316593505859375,-1.7870020866394043,-1.0478012561798096,0.03238605707883835
1783696030128557600,2.3265576171875,-1.8146179914474487,-1.1184982061386108,-0.025769386440515518
1783696030138520600,2.3365205078125,-1.862922191619873,-1.183490514755249,-0.06616794317960739
1783696030148484400,2.346484375,-1.879930019378662,-1.2159247398376465,-0.08318935334682465
1783696030158448400,2.356448486328125,-1.8740535974502563,-1.2283073663711548,-0.07023733854293823
1783696030168412400,2.366412353515625,-1.8647160530090332,-1.2274527549743652,-0.04918209835886955
1783696030178375400,2.37637548828125,-1.867185354232788,-1.2386585474014282,-0.037634629756212234
1783696030188339500,2.38633935546875,-1.871456265449524,-1.2783745527267456,-0.04674743488430977
1783696030198303500,2.396303466796875,-1.8659669160842896,-1.3460105657577515,-0.0623551569879055
1783696030208267500,2.406267578125,-1.882602334022522,-1.4104126691818237,-0.07994107156991959
1783696030218230500,2.41623046875,-1.9015449285507202,-1.5130107402801514,-0.09845004230737686
1783696030228194600,2.426194580078125,-1.9172062873840332,-1.6621613502502441,-0.09423817694187164
1783696030238158600,2.43615869140625,-1.9693927764892578,-1.806022047996521,-0.06846143305301666
1783696030248122400,2.446122314453125,-2.0347511768341064,-1.947373628616333,-0.02566654607653618
1783696030258085400,2.45608544921875,-2.0870907306671143,-2.0412302017211914,0.023351065814495087
1783696030268049400,2.46604931640625,-2.137204885482788,-2.0646843910217285,0.07651325315237045
1783696030278013400,2.476013427734375,-2.181389331817627,-2.029453754425049,0.11961331963539124
1783696030287976400,2.4859765625,-2.2237749099731445,-1.981360912322998,0.12668059766292572
1783696030297940500,2.4959404296875,-2.2599544525146484,-1.9577198028564453,0.09576635807752609
1783696030307904500,2.505904541015625,-2.2678372859954834,-1.9739513397216797,0.041518691927194595
1783696030317868500,2.51586865234375,-2.254218101501465,-1.9829962253570557,-0.009024374186992645
1783696030327831600,2.52583154296875,-2.2324652671813965,-1.990635633468628,-0.04537750035524368
1783696030337795600,2.535795654296875,-2.217958688735962,-2.0041840076446533,-0.08693426102399826
1783696030347759400,2.54575927734375,-2.204322099685669,-2.0089027881622314,-0.14182846248149872
1783696030357723400,2.555723388671875,-2.1996653079986572,-1.9916441440582275,-0.2069837749004364
1783696030367686400,2.565686279296875,-2.2077672481536865,-1.954760193824768,-0.27195653319358826
1783696030377650400,2.575650390625,-2.2280147075653076,-1.8826782703399658,-0.30807724595069885
1783696030387614500,2.585614501953125,-2.2509706020355225,-1.8022924661636353,-0.315616637468338
1783696030397578500,2.59557861328125,-2.2729249000549316,-1.736270546913147,-0.2981097996234894
1783696030407541500,2.60554150390625,-2.292886972427368,-1.692073106765747,-0.26396307349205017
1783696030417505500,2.615505615234375,-2.3073456287384033,-1.6591624021530151,-0.21700701117515564
1783696030427469600,2.625469482421875,-2.3104350566864014,-1.6427652835845947,-0.18035708367824554
1783696030437433600,2.63543359375,-2.3032748699188232,-1.6180835962295532,-0.15004605054855347
1783696030447396600,2.645396728515625,-2.291128635406494,-1.5909968614578247,-0.12815453112125397
1783696030457360400,2.6553603515625,-2.260859966278076,-1.5622227191925049,-0.10460926592350006
1783696030467324400,2.665324462890625,-2.2231295108795166,-1.5472768545150757,-0.07154759019613266
1783696030477288400,2.675288330078125,-2.1750619411468506,-1.5394532680511475,-0.03333628922700882
1783696030487251500,2.68525146484375,-2.1146457195281982,-1.5271868705749512,0.015714365988969803
1783696030497215500,2.695215576171875,-2.049367666244507,-1.4990715980529785,0.06238013878464699
1783696030507179500,2.705179443359375,-1.9829108715057373,-1.457324743270874,0.08721631020307541
1783696030517142500,2.715142578125,-1.9160163402557373,-1.3948674201965332,0.08657155930995941
1783696030527106600,2.7251064453125,-1.8562438488006592,-1.3301985263824463,0.05912746489048004
1783696030537070600,2.735070556640625,-1.810854434967041,-1.2645233869552612,0.025127684697508812
1783696030547034600,2.74503466796875,-1.7731047868728638,-1.1818878650665283,0.002200833987444639
1783696030556997600,2.75499755859375,-1.7399846315383911,-1.1065973043441772,-0.011053984984755516
1783696030566961400,2.76496142578125,-1.7084757089614868,-1.0398035049438477,-0.00564103526994586
1783696030576925400,2.774925537109375,-1.6772794723510742,-0.9845383763313293,0.01474679447710514
1783696030586889500,2.784889404296875,-1.63987135887146,-0.9343572854995728,0.04886168986558914
1783696030596852500,2.7948525390625,-1.6047978401184082,-0.9067065119743347,0.08704715967178345
1783696030606816500,2.80481640625,-1.5633947849273682,-0.8799709677696228,0.12861932814121246
1783696030616780500,2.814780517578125,-1.5162776708602905,-0.8714948892593384,0.163639098405838
1783696030626744600,2.82474462890625,-1.4707350730895996,-0.889683723449707,0.19811399281024933
1783696030636707600,2.83470751953125,-1.4225728511810303,-0.9060110449790955,0.25601083040237427
1783696030646671600,2.844671630859375,-1.3747974634170532,-0.8910049200057983,0.33226099610328674
1783696030656635600,2.8546357421875,-1.3315361738204956,-0.8572275042533875,0.4148525595664978
1783696030666599400,2.864599365234375,-1.2859086990356445,-0.8309389352798462,0.4752727150917053
1783696030676562400,2.8745625,-1.2395933866500854,-0.7954474687576294,0.5144332051277161
1783696030686526500,2.8845263671875,-1.189401626586914,-0.728219211101532,0.5315397381782532
1783696030696490500,2.894490478515625,-1.1332422494888306,-0.6279445290565491,0.5167812705039978
1783696030706454500,2.90445458984375,-1.0660531520843506,-0.5925620198249817,0.4699019491672516
1783696030716417500,2.91441748046875,-1.002801537513733,-0.676891565322876,0.3941265046596527
1783696030726381600,2.924381591796875,-0.9800333976745605,-0.8515095114707947,0.3116048574447632
1783696030736345600,2.934345703125,-1.004993200302124,-1.0192772150039673,0.235751673579216
1783696030746309600,2.9443095703125,-1.0594351291656494,-1.1165539026260376,0.18120187520980835
1783696030756272600,2.954272705078125,-1.1105704307556152,-1.0952707529067993,0.15251563489437103
1783696030766236400,2.964236328125,-1.1511763334274292,-0.9956237077713013,0.1616985946893692
1783696030776200400,2.974200439453125,-1.1873369216918945,-0.8486486673355103,0.21422384679317474
1783696030786164500,2.98416455078125,-1.2074874639511108,-0.7009406685829163,0.281547486782074
1783696030796127500,2.99412744140625,-1.1918185949325562,-0.5987938046455383,0.3190852701663971
1783696030806091500,3.004091552734375,-1.1383280754089355,-0.5637463331222534,0.3115515410900116
1783696030816055600,3.0140556640625,-1.0720131397247314,-0.5892679691314697,0.2581320106983185
1783696030826018600,3.0240185546875,-1.0195612907409668,-0.6451519727706909,0.18173009157180786
1783696030835982600,3.033982666015625,-0.9875972270965576,-0.73284512758255,0.09002227336168289
1783696030845946600,3.043946533203125,-0.9836161732673645,-0.8123287558555603,0.0019246891606599092
1783696030855910700,3.05391064453125,-1.000480055809021,-0.8635618090629578,-0.06484661996364594
1783696030865873700,3.063873779296875,-1.0181235074996948,-0.8775631785392761,-0.10093919187784195
1783696030875837400,3.07383740234375,-1.0266817808151245,-0.868232786655426,-0.09538863599300385
1783696030885801500,3.083801513671875,-1.0219999551773071,-0.8275107741355896,-0.045985352247953415
1783696030895765500,3.093765625,-1.0113203525543213,-0.7654849886894226,0.0368642583489418
1783696030905728500,3.103728515625,-0.981349766254425,-0.7063312530517578,0.12737350165843964
1783696030915692500,3.113692626953125,-0.9508970975875854,-0.6807308197021484,0.20352526009082794
1783696030925656600,3.123656494140625,-0.9133327007293701,-0.6980631947517395,0.23203657567501068
1783696030935620600,3.13362060546875,-0.8786253333091736,-0.7406154870986938,0.2139822095632553
1783696030945583600,3.14358349609375,-0.846224844455719,-0.7816917300224304,0.1643701195716858
1783696030955547600,3.153547607421875,-0.8308669328689575,-0.7712563872337341,0.10525752604007721
1783696030965511700,3.16351171875,-0.8382542729377747,-0.7092252969741821,0.04006889835000038
1783696030975475500,3.173475341796875,-0.8552072048187256,-0.6432979702949524,-0.037663981318473816
1783696030985438500,3.1834384765625,-0.8730468153953552,-0.5631983280181885,-0.11170320957899094
1783696030995402500,3.193402587890625,-0.8989591002464294,-0.48275911808013916,-0.17296044528484344
1783696031005366500,3.203366455078125,-0.9142447710037231,-0.3995409905910492,-0.20398379862308502
1783696031015330600,3.21333056640625,-0.9140756726264954,-0.34060177206993103,-0.209123432636261
1783696031025293600,3.22329345703125,-0.9055685997009277,-0.310592919588089,-0.1935998797416687
1783696031035257600,3.233257568359375,-0.90055251121521,-0.2969663143157959,-0.16776642203330994
1783696031045221600,3.2432216796875,-0.8643851280212402,-0.2934141755104065,-0.13007193803787231
1783696031055184600,3.2531845703125,-0.8391316533088684,-0.2697983384132385,-0.08575000613927841
1783696031065148700,3.263148681640625,-0.8257495760917664,-0.22404693067073822,-0.059634603559970856
1783696031075112700,3.27311279296875,-0.815102756023407,-0.1789095550775528,-0.061133965849876404
1783696031085076500,3.283076416015625,-0.8022578954696655,-0.1470656543970108,-0.07845010608434677
1783696031095039500,3.29303955078125,-0.7870326042175293,-0.09579873830080032,-0.0931350439786911
1783696031105003500,3.30300341796875,-0.7737264037132263,-0.05960662290453911,-0.09733372926712036
1783696031114967600,3.312967529296875,-0.7561865448951721,-0.03747601807117462,-0.07752992957830429
1783696031124931600,3.322931640625,-0.7430514097213745,-0.0368996225297451,-0.04090112820267677
1783696031134894600,3.33289453125,-0.732114851474762,-0.07000084966421127,0.00037627166602760553
1783696031144858600,3.342858642578125,-0.720660924911499,-0.13863642513751984,0.03211991861462593
1783696031154822700,3.35282275390625,-0.7118809819221497,-0.2109772115945816,0.0519263818860054
1783696031164786700,3.36278662109375,-0.7018246054649353,-0.2751881778240204,0.06291069835424423
1783696031174749700,3.372749755859375,-0.6933304667472839,-0.32781970500946045,0.05712737515568733
1783696031184713700,3.382713623046875,-0.684256374835968,-0.3752336800098419,0.032712727785110474
1783696031194677500,3.392677490234375,-0.6808943748474121,-0.41953322291374207,0.0033875941298902035
1783696031204641500,3.4026416015625,-0.6768276691436768,-0.4531106948852539,-0.016132663935422897
1783696031214604500,3.4126044921875,-0.6635962724685669,-0.4572404623031616,-0.0352829247713089
1783696031224568300,3.422568359375,-0.6545774936676025,-0.41539815068244934,-0.05824759602546692
1783696031234532600,3.43253271484375,-0.6096992492675781,-0.38474971055984497,-0.0814751535654068
1783696031244496600,3.44249658203125,-0.5826625823974609,-0.31572869420051575,-0.11221858859062195
1783696031254459400,3.45245947265625,-0.547390341758728,-0.26555684208869934,-0.1360783874988556
1783696031264423400,3.46242333984375,-0.5091137886047363,-0.18035325407981873,-0.14526551961898804
1783696031274387700,3.4723876953125,-0.47099488973617554,-0.08699854463338852,-0.15219132602214813
1783696031284351500,3.4823515625,-0.43330055475234985,-0.03231390193104744,-0.1540316343307495
1783696031294314500,3.492314453125,-0.3994022607803345,-0.02298538200557232,-0.13767927885055542
1783696031304278300,3.5022783203125,-0.39201852679252625,-0.053430359810590744,-0.11973123997449875
1783696031314242300,3.5122421875,-0.38499894738197327,-0.12029434740543365,-0.08830594271421432
1783696031324205300,3.522205322265625,-0.3854648768901825,-0.17970959842205048,-0.051316358149051666
1783696031334169300,3.53216943359375,-0.40091201663017273,-0.21033301949501038,-0.008114025928080082
1783696031344133400,3.54213330078125,-0.416801780462265,-0.24322304129600525,0.02067543938755989
1783696031354097400,3.552097412109375,-0.4263811707496643,-0.27993205189704895,0.036579836159944534
1783696031364060400,3.562060302734375,-0.42824792861938477,-0.3038373291492462,0.044935185462236404
1783696031374024400,3.5720244140625,-0.4207354187965393,-0.2963927388191223,0.04954991117119789
1783696031383988500,3.581988525390625,-0.4087790846824646,-0.2737717926502228,0.055245086550712585
1783696031393952300,3.5919521484375,-0.39801886677742004,-0.2534870207309723,0.06441035866737366
1783696031403915500,3.60191552734375,-0.388042151927948,-0.2377924770116806,0.07409590482711792
1783696031413879300,3.61187939453125,-0.3812100887298584,-0.24238590896129608,0.0824691504240036
1783696031423843300,3.62184326171875,-0.3742820620536804,-0.28300875425338745,0.09177590906620026
1783696031433807400,3.631807373046875,-0.3683815896511078,-0.3361356258392334,0.11818593740463257
1783696031443770400,3.641770263671875,-0.3535528779029846,-0.3660890460014343,0.16530269384384155
1783696031453734400,3.651734375,-0.3366186320781708,-0.3773672878742218,0.21637839078903198
1783696031463698400,3.661698486328125,-0.32708752155303955,-0.3926375210285187,0.2639473080635071
1783696031473662500,3.671662353515625,-0.32134121656417847,-0.41064900159835815,0.2977777123451233
1783696031483625500,3.68162548828125,-0.30773741006851196,-0.41216155886650085,0.3186318576335907
1783696031493589500,3.691589599609375,-0.2828238010406494,-0.3928813338279724,0.33657732605934143
1783696031503553300,3.70155322265625,-0.24507904052734375,-0.40790385007858276,0.3482738137245178
1783696031513516500,3.7115166015625,-0.21328569948673248,-0.4831131100654602,0.33910030126571655
1783696031523480300,3.721480224609375,-0.1848762482404709,-0.5831672549247742,0.31673485040664673
1783696031533444400,3.7314443359375,-0.16842004656791687,-0.660358190536499,0.29064226150512695
1783696031543408400,3.741408447265625,-0.18025675415992737,-0.7072330117225647,0.25573238730430603
1783696031553371400,3.751371337890625,-0.18769335746765137,-0.7629125118255615,0.21280993521213531
1783696031563335400,3.76133544921875,-0.1986035257577896,-0.8130182027816772,0.1738121062517166
1783696031573299500,3.771299560546875,-0.20605239272117615,-0.8174704909324646,0.16860216856002808
1783696031583263500,3.781263427734375,-0.22808738052845,-0.7543419599533081,0.1885567456483841
1783696031593226500,3.7912265625,-0.23580841720104218,-0.6769872903823853,0.21541473269462585
1783696031603190500,3.8011904296875,-0.22050601243972778,-0.6162831783294678,0.23061040043830872
1783696031613154300,3.811154296875,-0.2026766836643219,-0.5456084609031677,0.21221354603767395
1783696031623118300,3.821118408203125,-0.18812580406665802,-0.49386170506477356,0.14839105308055878
1783696031633081300,3.831081298828125,-0.1710810363292694,-0.4629727602005005,0.05020163208246231
1783696031643045400,3.84104541015625,-0.1801663339138031,-0.4378487467765808,-0.06167113035917282
1783696031653009400,3.851009521484375,-0.2209065705537796,-0.4323914051055908,-0.1717534214258194
1783696031662973400,3.860973388671875,-0.27117955684661865,-0.43799933791160583,-0.24471545219421387
1783696031672936400,3.8709365234375,-0.3292660415172577,-0.4369407296180725,-0.2639314830303192
1783696031682900500,3.880900390625,-0.38606324791908264,-0.44871482253074646,-0.22889827191829681
1783696031692864500,3.890864501953125,-0.42847248911857605,-0.4744601249694824,-0.14962609112262726
1783696031702828300,3.900828369140625,-0.45595061779022217,-0.4904099702835083,-0.04471033811569214
1783696031712791600,3.91079150390625,-0.4608375132083893,-0.47755807638168335,0.06280706822872162
1783696031722755300,3.92075537109375,-0.4534280300140381,-0.43830177187919617,0.156276136636734
1783696031732719400,3.93071923828125,-0.44444388151168823,-0.3778115212917328,0.22345677018165588
1783696031742682400,3.940682373046875,-0.43998631834983826,-0.2931070029735565,0.2548028826713562
1783696031752646400,3.950646484375,-0.44828179478645325,-0.20122338831424713,0.2507133483886719
1783696031762610400,3.9606103515625,-0.46025538444519043,-0.12876513600349426,0.2107984572649002
1783696031772574500,3.970574462890625,-0.47192084789276123,-0.08644857257604599,0.1560734212398529
1783696031782537500,3.980537353515625,-0.4878385663032532,-0.07509877532720566,0.10376078635454178
1783696031792501500,3.99050146484375,-0.5040503144264221,-0.07659360766410828,0.06055046617984772
1783696031802465500,4.000465576171875,-0.5091922283172607,-0.09017596393823624,0.02404407039284706
1783696031812429300,4.01042919921875,-0.5023390650749207,-0.10809557884931564,-0.014277219772338867
1783696031822392600,4.020392578125,-0.4923366606235504,-0.13233044743537903,-0.0629548579454422
1783696031832356400,4.0303564453125,-0.48990917205810547,-0.17399241030216217,-0.11660343408584595
1783696031842320400,4.0403203125,-0.4919290840625763,-0.2409134805202484,-0.17985454201698303
1783696031852284400,4.050284423828125,-0.48375263810157776,-0.29853180050849915,-0.2325366586446762
1783696031862247400,4.060247314453125,-0.4689311385154724,-0.33484262228012085,-0.26914137601852417
1783696031872211500,4.07021142578125,-0.45185789465904236,-0.3631879985332489,-0.2960893511772156
1783696031882175500,4.080175537109375,-0.4387449324131012,-0.3929830491542816,-0.31674882769584656
1783696031892139500,4.090139404296875,-0.42255690693855286,-0.4171086251735687,-0.3338037133216858
1783696031902102500,4.1001025390625,-0.40411999821662903,-0.4173192083835602,-0.3424290418624878
1783696031912066600,4.110066650390625,-0.3894193470478058,-0.4035096764564514,-0.3337380886077881
1783696031922030300,4.1200302734375,-0.378133088350296,-0.38458943367004395,-0.3039405047893524
1783696031931993600,4.12999365234375,-0.3632585406303406,-0.35343658924102783,-0.25153854489326477
1783696031941957400,4.139957275390625,-0.3493557572364807,-0.3187689483165741,-0.17970222234725952
1783696031951921400,4.14992138671875,-0.333499014377594,-0.28368791937828064,-0.10441917181015015
1783696031961885400,4.159885498046875,-0.3112828731536865,-0.25273606181144714,-0.038165315985679626
1783696031971848400,4.169848388671875,-0.2912338078022003,-0.22940197587013245,0.002602619118988514
1783696031981812500,4.1798125,-0.27995654940605164,-0.2089356780052185,0.008601540699601173
1783696031991776500,4.189776611328125,-0.28376272320747375,-0.199332594871521,-0.015393008477985859
1783696032001740500,4.199740478515625,-0.28636613488197327,-0.18238545954227448,-0.05482855439186096
1783696032011703600,4.20970361328125,-0.3047366142272949,-0.16456837952136993,-0.09726069867610931
1783696032021667600,4.21966748046875,-0.3216894865036011,-0.15188142657279968,-0.14911969006061554
1783696032031631400,4.22963134765625,-0.3421023488044739,-0.16939038038253784,-0.20424047112464905
1783696032041595400,4.239595458984375,-0.35645413398742676,-0.19417959451675415,-0.24453234672546387
1783696032051558400,4.249558349609375,-0.37663742899894714,-0.21125578880310059,-0.2629217505455017
1783696032061522400,4.2595224609375,-0.3890460431575775,-0.2246868759393692,-0.263930082321167
1783696032071486500,4.269486572265625,-0.3959846496582031,-0.24055612087249756,-0.25646495819091797
1783696032081450500,4.279450439453125,-0.38873299956321716,-0.2592927813529968,-0.23134221136569977
1783696032091413500,4.28941357421875,-0.37341371178627014,-0.2441527247428894,-0.19603374600410461
1783696032101377500,4.29937744140625,-0.3482253849506378,-0.20547696948051453,-0.1582358479499817
1783696032111341600,4.309341552734375,-0.30823829770088196,-0.15350323915481567,-0.1358996480703354
1783696032121304600,4.3193046875,-0.2537228763103485,-0.10750412195920944,-0.12551438808441162
1783696032131268600,4.3292685546875,-0.2005464881658554,-0.05964311584830284,-0.11860056221485138
1783696032141232400,4.339232421875,-0.1548905372619629,-0.03424445539712906,-0.113063283264637
1783696032151196400,4.349196533203125,-0.11417320370674133,-0.010854443535208702,-0.09439798444509506
1783696032161159400,4.359159423828125,-0.06735804677009583,0.008914133533835411,-0.051684245467185974
1783696032171123500,4.36912353515625,-0.02130107395350933,0.049789395183324814,0.007064288482069969
1783696032181087500,4.37908740234375,0.0037543936632573605,0.10030095279216766,0.07534120976924896
1783696032191051500,4.389051513671875,0.018857713788747787,0.1069391518831253,0.1371166855096817
1783696032201014500,4.3990146484375,0.019838793203234673,0.09271703660488129,0.19150575995445251
1783696032210978600,4.408978515625,0.007584524340927601,0.09562520682811737,0.23448918759822845
1783696032220942600,4.418942626953125,0.00012920095468871295,0.09686580300331116,0.25737953186035156
1783696032230906400,4.42890625,0.0062837665900588036,0.06815825402736664,0.26974058151245117
1783696032240869600,4.43886962890625,0.025299226865172386,0.057594843208789825,0.301016628742218
1783696032250833400,4.44883349609375,0.05743878707289696,0.10301532596349716,0.35794010758399963
1783696032260797400,4.45879736328125,0.09593085944652557,0.16725200414657593,0.41475710272789
1783696032270761500,4.468761474609375,0.1298360973596573,0.21049295365810394,0.4484841823577881
1783696032280724500,4.478724365234375,0.15514953434467316,0.24566403031349182,0.4649799168109894
1783696032290688500,4.4886884765625,0.18400435149669647,0.2738059461116791,0.4578370451927185
1783696032300652500,4.498652587890625,0.20125024020671844,0.2629314959049225,0.42951780557632446
1783696032310615600,4.508615478515625,0.20086780190467834,0.22838710248470306,0.3831186294555664
1783696032320579600,4.51857958984375,0.18577541410923004,0.20189690589904785,0.3234536945819855
1783696032330543600,4.528543701171875,0.15382519364356995,0.18339751660823822,0.2823651134967804
1783696032340507400,4.53850732421875,0.10881929844617844,0.167246013879776,0.2846520245075226
1783696032350470700,4.548470703125,0.0518428310751915,0.14140616357326508,0.31702888011932373
1783696032360434400,4.558434326171875,-0.001150546595454216,0.10502168536186218,0.37100401520729065
1783696032370398500,4.5683984375,-0.029258348047733307,0.0856756865978241,0.43230465054512024
1783696032380362500,4.578362548828125,-0.03291747346520424,0.05865637958049774,0.4786444306373596
1783696032390325500,4.588325439453125,-0.017689252272248268,0.021496227011084557,0.49427318572998047
1783696032400289500,4.59828955078125,0.006181584671139717,-0.01810554601252079,0.4869476854801178
1783696032410253600,4.608253662109375,0.024267110973596573,-0.03589519485831261,0.465041846036911
1783696032420217600,4.618217529296875,0.032865703105926514,-0.03613915294408798,0.4296179413795471
1783696032430180600,4.6281806640625,0.03270538151264191,-0.027504120022058487,0.37691476941108704
1783696032440144600,4.63814453125,0.013523331843316555,-0.003694064449518919,0.31389620900154114
1783696032450108400,4.6481083984375,-0.0059872521087527275,0.02432558499276638,0.2519412338733673
1783696032460071700,4.65807177734375,-0.030402077361941338,0.032646868377923965,0.18968810141086578
1783696032470035500,4.668035400390625,-0.06019938364624977,0.021272776648402214,0.1426233947277069
1783696032479999500,4.67799951171875,-0.07874056696891785,-0.007212702184915543,0.11492089927196503
1783696032489963500,4.687963623046875,-0.07744999974966049,-0.04007291421294212,0.1045212522149086
1783696032499926500,4.697926513671875,-0.0601704865694046,-0.06265176087617874,0.11776573210954666
1783696032509890600,4.707890625,-0.02356214076280594,-0.07030089199542999,0.1523444801568985
1783696032519854600,4.7178544921875,0.01719752699136734,-0.061737190932035446,0.1982390433549881
1783696032529818600,4.727818603515625,0.05962194874882698,-0.03487042337656021,0.2464292049407959
1783696032539781600,4.73778173828125,0.0909828245639801,-0.010585028678178787,0.28002217411994934
1783696032549745700,4.74774560546875,0.1030552014708519,-0.005449654534459114,0.281695157289505
1783696032559709400,4.75770947265625,0.10239682346582413,-0.03149962052702904,0.25769999623298645
1783696032569673500,4.767673583984375,0.08419971168041229,-0.09814762324094772,0.20735320448875427
1783696032579636500,4.777636474609375,0.05428719148039818,-0.19246555864810944,0.15438783168792725
1783696032589600500,4.7876005859375,0.021956680342555046,-0.2890578508377075,0.10817079991102219
1783696032599564500,4.797564453125,-0.0013043914223089814,-0.3640589118003845,0.0758177638053894
1783696032609527600,4.807527587890625,-0.0077058314345777035,-0.3911712169647217,0.04827161878347397
1783696032619491600,4.81749169921875,-0.005154830869287252,-0.3838498890399933,0.014132186770439148
1783696032629455600,4.82745556640625,0.002725995145738125,-0.36321625113487244,-0.04108632728457451
1783696032639419600,4.837419677734375,0.010695447213947773,-0.3326839506626129,-0.11732464283704758
1783696032649382700,4.847382568359375,0.016108054667711258,-0.2813968062400818,-0.20107600092887878
1783696032659346700,4.8573466796875,0.020265094935894012,-0.2115093320608139,-0.27453896403312683
1783696032669310500,4.867310546875,0.01748368889093399,-0.12768687307834625,-0.3417781889438629
1783696032679274500,4.8772744140625,0.01602541282773018,-0.032419197261333466,-0.39252686500549316
1783696032689237500,4.887237548828125,0.020353583618998528,0.07513443380594254,-0.4279985725879669
1783696032699201500,4.897201416015625,0.02964830957353115,0.18417267501354218,-0.4390456974506378
1783696032709165600,4.90716552734375,0.043928444385528564,0.264817476272583,-0.42581671476364136
1783696032719129600,4.917129638671875,0.06503096967935562,0.32327044010162354,-0.3919127285480499
1783696032729092600,4.927092529296875,0.08078169822692871,0.34091654419898987,-0.3488994836807251
1783696032739056600,4.937056640625,0.09370522201061249,0.30892878770828247,-0.30776721239089966
1783696032749020700,4.947020751953125,0.09757852554321289,0.2581180930137634,-0.27514055371284485
1783696032758984400,4.956984375,0.09068465232849121,0.19152683019638062,-0.2546091675758362
1783696032768947700,4.96694775390625,0.08460758626461029,0.12431291490793228,-0.2506447732448578
1783696032778911500,4.976911376953125,0.07776233553886414,0.06259951740503311,-0.2501137852668762
1783696032788875500,4.98687548828125,0.06362973898649216,-0.010333013720810413,-0.23999936878681183
1783696032798839600,4.996839599609375,0.036358196288347244,-0.10162412375211716,-0.2243746668100357
1783696032808802600,5.006802490234375,0.00035572369233705103,-0.1887875199317932,-0.20357456803321838
1783696032818766600,5.0167666015625,-0.03720049932599068,-0.268510639667511,-0.18250738084316254
1783696032828730600,5.026730712890625,-0.0738261491060257,-0.36715543270111084,-0.15383285284042358
1783696032838693600,5.036693603515625,-0.10615445673465729,-0.43969663977622986,-0.12146542966365814
1783696032848657700,5.04665771484375,-0.13446173071861267,-0.4552138149738312,-0.08276889473199844
1783696032858621700,5.05662158203125,-0.14389726519584656,-0.44092079997062683,-0.05337224528193474
1783696032868585500,5.06658544921875,-0.14755643904209137,-0.3963267207145691,-0.03261157497763634
1783696032878548700,5.076548828125,-0.14506231248378754,-0.3289582431316376,-0.011694435030221939
1783696032888512500,5.086512451171875,-0.13299286365509033,-0.2467525601387024,0.016261830925941467
1783696032898476500,5.0964765625,-0.12447155267000198,-0.16692878305912018,0.047490086406469345
1783696032908440600,5.106440673828125,-0.11898570507764816,-0.09690363705158234,0.07415711879730225
1783696032918403600,5.116403564453125,-0.1115865483880043,-0.042478274554014206,0.0839470848441124
1783696032928367600,5.12636767578125,-0.10504449903964996,-0.002979602199047804,0.07939334213733673
1783696032938331600,5.13633154296875,-0.11039812117815018,0.01621920056641102,0.0711178183555603
1783696032948295700,5.146295654296875,-0.1178339347243309,0.007203335873782635,0.05856260657310486
1783696032958258700,5.1562587890625,-0.12626202404499054,-0.02467447519302368,0.049323540180921555
1783696032968222700,5.16622265625,-0.1328117996454239,-0.07068564742803574,0.05387222021818161
1783696032978186500,5.1761865234375,-0.13257737457752228,-0.11147033423185349,0.06348887085914612
1783696032988149800,5.186149658203125,-0.1342671513557434,-0.1366017907857895,0.0681573897600174
1783696032998113500,5.196113525390625,-0.1326703578233719,-0.13867142796516418,0.07442483305931091
1783696033008077600,5.20607763671875,-0.1209295466542244,-0.11048240959644318,0.08057327568531036
1783696033018041600,5.21604150390625,-0.09983637183904648,-0.04055574908852577,0.09570904076099396
1783696033028004600,5.226004638671875,-0.0615297332406044,0.004920387174934149,0.11156842857599258
1783696033037968600,5.23596875,-0.03241961821913719,-0.03556732088327408,0.10881108045578003
1783696033047932700,5.2459326171875,-0.02495131455361843,-0.09814920276403427,0.09097429364919662
1783696033057896700,5.255896728515625,-0.027843128889799118,-0.14144474267959595,0.0657409131526947
1783696033067859700,5.265859619140625,-0.036731962114572525,-0.16055531799793243,0.0286734439432621
1783696033077823700,5.27582373046875,-0.0551442876458168,-0.15829433500766754,-0.021465493366122246
1783696033087787500,5.28578759765625,-0.08246619254350662,-0.12028490006923676,-0.0765409916639328
1783696033097751600,5.29575146484375,-0.09104585647583008,-0.004529186524450779,-0.1297069489955902
1783696033107714600,5.305714599609375,-0.08909695595502853,0.10956649482250214,-0.16939418017864227
1783696033117678600,5.3156787109375,-0.07208064198493958,0.162965789437294,-0.18824872374534607
1783696033127642600,5.325642578125,-0.042657241225242615,0.13755764067173004,-0.19264613091945648
1783696033137605600,5.335605712890625,-0.016269829124212265,0.06246471032500267,-0.19368265569210052
1783696033147569700,5.345569580078125,-0.0024235225282609463,-0.0210040844976902,-0.19352953135967255
1783696033157533700,5.35553369140625,-0.019061537459492683,-0.07541301846504211,-0.18730205297470093
1783696033167497700,5.365497802734375,-0.050905752927064896,-0.09562987834215164,-0.19017720222473145
1783696033177460700,5.375460693359375,-0.08561945706605911,-0.0971345379948616,-0.18559153378009796
1783696033187424800,5.3854248046875,-0.11662344634532928,-0.10165419429540634,-0.16254879534244537
1783696033197388500,5.395388427734375,-0.13007234036922455,-0.06469535827636719,-0.13450680673122406
1783696033207352600,5.4053525390625,-0.11676131933927536,-0.025511473417282104,-0.08787085115909576
1783696033217315600,5.415315673828125,-0.1122971922159195,0.006991533562541008,-0.021199125796556473
1783696033227279400,5.425279296875,-0.10878182202577591,-0.004992424510419369,0.05723336711525917
1783696033237243400,5.435243408203125,-0.09834891557693481,-0.01355813629925251,0.14122579991817474
1783696033247207400,5.44520751953125,-0.08760306239128113,0.0037713199853897095,0.22395743429660797
1783696033257170400,5.45517041015625,-0.08043820410966873,0.040815774351358414,0.2850774824619293
1783696033267134500,5.465134521484375,-0.0842348039150238,0.07568374276161194,0.31389182806015015
1783696033277098500,5.475098388671875,-0.09652584046125412,0.0996522307395935,0.29630807042121887
1783696033287061500,5.4850615234375,-0.10987573862075806,0.13230285048484802,0.25568875670433044
1783696033297025500,5.495025634765625,-0.11785043776035309,0.15953025221824646,0.20157645642757416
1783696033306989300,5.5049892578125,-0.12367263436317444,0.17149797081947327,0.13625790178775787
1783696033316953300,5.514953369140625,-0.12855833768844604,0.15873153507709503,0.06343914568424225
1783696033326916400,5.524916259765625,-0.13954228162765503,0.13934318721294403,-0.013323012739419937
1783696033336880400,5.53488037109375,-0.15165992081165314,0.13341346383094788,-0.08284067362546921
1783696033346844400,5.544844482421875,-0.16327902674674988,0.1510089635848999,-0.1426542103290558
1783696033356808400,5.554808349609375,-0.16931447386741638,0.18833661079406738,-0.1926918625831604
1783696033366771500,5.564771484375,-0.17169374227523804,0.23124758899211884,-0.23040860891342163
1783696033376735500,5.574735595703125,-0.1666841059923172,0.267595112323761,-0.2506087124347687
1783696033386699500,5.584699462890625,-0.1570437252521515,0.2822800576686859,-0.2606850564479828
1783696033396663600,5.59466357421875,-0.14491654932498932,0.2830727696418762,-0.26137256622314453
1783696033406626600,5.60462646484375,-0.12356624752283096,0.25817006826400757,-0.2442694902420044
1783696033416590300,5.61459033203125,-0.108222097158432,0.21809789538383484,-0.21494300663471222
1783696033426554400,5.624554443359375,-0.08619881421327591,0.17826153337955475,-0.16859334707260132
1783696033436517000,5.63451708984375,-0.065281942486763,0.1544041782617569,-0.11203691363334656
1783696033446481400,5.6444814453125,-0.05365964397788048,0.13265174627304077,-0.046968165785074234
1783696033456445400,5.654445556640625,-0.04464895278215408,0.1044485941529274,0.0205072034150362
1783696033466409500,5.664409423828125,-0.03734390065073967,0.06534140557050705,0.07672572880983353
1783696033476372200,5.674372314453125,-0.036033403128385544,0.017863113433122635,0.12080973386764526
1783696033486336500,5.68433642578125,-0.03961135819554329,-0.031299371272325516,0.14939983189105988
1783696033496300500,5.694300537109375,-0.043222859501838684,-0.0710979625582695,0.16574148833751678
1783696033506264600,5.7042646484375,-0.04814464598894119,-0.08868254721164703,0.17100682854652405
1783696033516227300,5.714227294921875,-0.050898145884275436,-0.08059873431921005,0.15872825682163239
1783696033526191400,5.72419140625,-0.054251596331596375,-0.051244039088487625,0.13626262545585632
1783696033536155400,5.7341552734375,-0.0568186454474926,-0.013250615447759628,0.1003047525882721
1783696033546119400,5.744119384765625,-0.05668122321367264,0.0330047644674778,0.0563436821103096
1783696033556082200,5.754082275390625,-0.05209007486701012,0.07503979653120041,0.01783815398812294
1783696033566046200,5.764046142578125,-0.04176367074251175,0.11952816694974899,-0.006300738081336021
1783696033576010500,5.774010498046875,-0.03616476431488991,0.14212273061275482,-0.02170424535870552
1783696033585973200,5.78397314453125,-0.036444131284952164,0.14922404289245605,-0.02752937749028206
1783696033595937300,5.793937255859375,-0.033917784690856934,0.14931035041809082,-0.01852259412407875
1783696033605901300,5.8039013671875,-0.029968053102493286,0.14313021302223206,0.0076208594255149364
1783696033615865300,5.813865234375,-0.02790209650993347,0.1265982985496521,0.04410512372851372
1783696033625828400,5.823828369140625,-0.021491602063179016,0.10561126470565796,0.08435960114002228
1783696033635792100,5.833792236328125,-0.014610792510211468,0.07701477408409119,0.11921186000108719
1783696033645756200,5.843756103515625,-0.003910477738827467,0.04022346809506416,0.1449020355939865
1783696033655720400,5.853720458984375,0.009911919943988323,0.008604991249740124,0.16088172793388367
1783696033665683200,5.86368310546875,0.026562536135315895,-0.011848085559904575,0.1728033721446991
1783696033675647200,5.873647216796875,0.04234885424375534,-0.018924793228507042,0.18513831496238708
1783696033685611300,5.883611328125,0.05714830756187439,-0.008793596178293228,0.20755520462989807
1783696033695574300,5.89357421875,0.06973960995674133,0.010447511449456215,0.2359260618686676
1783696033705538300,5.903538330078125,0.0767676904797554,0.03352140635251999,0.26482003927230835
1783696033715502300,5.91350244140625,0.07948111742734909,0.06802796572446823,0.2952410578727722
1783696033725466400,5.92346630859375,0.08334509283304214,0.12149092555046082,0.31740015745162964
1783696033735429400,5.933429443359375,0.08485524356365204,0.1672346293926239,0.3287132978439331
1783696033745393200,5.94339306640625,0.09097811579704285,0.14557407796382904,0.3175482451915741
1783696033755357200,5.953357177734375,0.08953079581260681,0.038184817880392075,0.2863880693912506
1783696033765321200,5.9633212890625,0.0772072821855545,-0.08581355214118958,0.25291213393211365
1783696033775284200,5.9732841796875,0.05616534501314163,-0.16000594198703766,0.22503048181533813
1783696033785248300,5.983248291015625,0.021175140514969826,-0.18515311181545258,0.18866156041622162
1783696033795212300,5.99321240234375,-0.024455726146697998,-0.16433049738407135,0.14295779168605804
1783696033805176300,6.00317626953125,-0.07223470509052277,-0.07869070023298264,0.08827964216470718
1783696033815139300,6.013139404296875,-0.10206903517246246,0.06568124145269394,0.038455016911029816
1783696033825103400,6.023103271484375,-0.10217369347810745,0.2176782339811325,0.007293104659765959
1783696033835067400,6.0330673828125,-0.0791345089673996,0.3207821547985077,-0.014655474573373795
1783696033845030400,6.043030517578125,-0.0504211001098156,0.34471598267555237,-0.034700825810432434
1783696033854994200,6.052994140625,-0.03361756354570389,0.2747689187526703,-0.05980563908815384
1783696033864958200,6.062958251953125,-0.03186893090605736,0.14851564168930054,-0.07676784694194794
1783696033874922200,6.072922119140625,-0.0468103289604187,0.0037107854150235653,-0.07983527332544327
1783696033884885200,6.08288525390625,-0.06838832795619965,-0.10104704648256302,-0.0714993104338646
1783696033894849300,6.092849365234375,-0.08413004875183105,-0.15136612951755524,-0.05532258003950119
1783696033904813300,6.102813232421875,-0.08400647342205048,-0.1515653431415558,-0.039519913494586945
1783696033914777300,6.11277734375,-0.07671118527650833,-0.10095138102769852,-0.03724813088774681
1783696033924740400,6.122740234375,-0.047359682619571686,-0.013263879343867302,-0.04249775409698486
1783696033934704400,6.132704345703125,-0.0026854805182665586,0.08806881308555603,-0.05097086727619171
1783696033944668400,6.14266845703125,0.05380948632955551,0.19842034578323364,-0.04583389684557915
1783696033954631400,6.15263134765625,0.10811392217874527,0.2911568284034729,-0.020407238975167274
1783696033964595200,6.16259521484375,0.1615111082792282,0.3438118100166321,0.021831560879945755
1783696033974559200,6.172559326171875,0.20529887080192566,0.34028559923171997,0.06443801522254944
1783696033984523300,6.182523193359375,0.22364085912704468,0.27651485800743103,0.10215529799461365
1783696033994486300,6.192486328125,0.2151641845703125,0.174830824136734,0.1328454464673996
1783696034004450300,6.2024501953125,0.19255448877811432,0.051081448793411255,0.14553914964199066
1783696034014414300,6.212414306640625,0.16959375143051147,-0.06171836704015732,0.14522048830986023
1783696034024378400,6.22237841796875,0.13862837851047516,-0.15400035679340363,0.14065930247306824
1783696034034341400,6.23234130859375,0.11623440682888031,-0.21882253885269165,0.12535302340984344
1783696034044305400,6.242305419921875,0.11545542627573013,-0.22900299727916718,0.104716457426548
1783696034054269400,6.25226953125,0.12870647013187408,-0.22248327732086182,0.07631243020296097
1783696034064233200,6.262233154296875,0.15539321303367615,-0.20834481716156006,0.037858784198760986
1783696034074196200,6.2721962890625,0.16172030568122864,-0.18668611347675323,-0.03146819770336151
1783696034084160300,6.28216015625,0.17077265679836273,-0.16840830445289612,-0.12056105583906174
1783696034094124300,6.292124267578125,0.15902018547058105,-0.12556521594524384,-0.22757035493850708
1783696034104087300,6.30208740234375,0.14401966333389282,-0.07619500160217285,-0.34069931507110596
1783696034114051300,6.31205126953125,0.128239706158638,-0.01117763388901949,-0.43676140904426575
1783696034124015400,6.322015380859375,0.11716122925281525,0.09050025790929794,-0.4848107099533081
1783696034133979400,6.3319794921875,0.12241687625646591,0.2246466726064682,-0.4817735552787781
1783696034143942400,6.3419423828125,0.14601542055606842,0.3606458008289337,-0.4229733347892761
1783696034153906400,6.351906494140625,0.17870332300662994,0.48064836859703064,-0.3234126567840576
1783696034163870200,6.3618701171875,0.20822952687740326,0.55859375,-0.20516803860664368
1783696034173834200,6.371834228515625,0.23037222027778625,0.557542622089386,-0.10187460482120514
1783696034183797200,6.38179736328125,0.2359163761138916,0.48563432693481445,-0.02985048107802868
1783696034193761300,6.39176123046875,0.22902651131153107,0.3810069262981415,0.014302168041467667
1783696034203725300,6.401725341796875,0.20835424959659576,0.25077328085899353,0.030499780550599098
1783696034213689300,6.411689453125,0.1705554723739624,0.12401831150054932,0.022552138194441795
1783696034223652400,6.42165234375,0.13056917488574982,0.022541489452123642,-0.002073579467833042
1783696034233616000,6.431615966796875,0.0856270119547844,-0.06448883563280106,-0.02912549488246441
1783696034243580000,6.441579833984375,0.048822131007909775,-0.14688649773597717,-0.04948562756180763
1783696034253543000,6.45154296875,0.020677169784903526,-0.21927407383918762,-0.04972640052437782
1783696034263507000,6.4615068359375,-0.014919440262019634,-0.29690229892730713,-0.025113731622695923
1783696034273471000,6.471470947265625,-0.04698104038834572,-0.36920180916786194,0.02106044627726078
1783696034283434800,6.481434814453125,-0.08010277152061462,-0.4257867932319641,0.0818210020661354
1783696034293398000,6.49139794921875,-0.11347731202840805,-0.45219045877456665,0.14593848586082458
1783696034303361800,6.50136181640625,-0.14898017048835754,-0.458636611700058,0.2094295769929886
1783696034313325800,6.511325927734375,-0.18952739238739014,-0.46463945508003235,0.25145211815834045
1783696034323289900,6.521289794921875,-0.22929318249225616,-0.4710416793823242,0.25801920890808105
1783696034333252900,6.5312529296875,-0.2688562273979187,-0.48680269718170166,0.23953092098236084
1783696034343217000,6.541216796875,-0.3003888726234436,-0.49606356024742126,0.20900684595108032
1783696034353181000,6.551180908203125,-0.32797378301620483,-0.4867585301399231,0.17501097917556763
1783696034363144000,6.56114404296875,-0.3403007388114929,-0.45619717240333557,0.13757731020450592
1783696034373108000,6.57110791015625,-0.35077211260795593,-0.39628273248672485,0.10261961817741394
1783696034383072000,6.581072021484375,-0.3583381772041321,-0.3289652168750763,0.07507853955030441
1783696034393035800,6.591035888671875,-0.3710673749446869,-0.2726012170314789,0.053654953837394714
1783696034402999000,6.6009990234375,-0.3716548681259155,-0.23636358976364136,0.03532388433814049
1783696034412962800,6.610962890625,-0.3781428039073944,-0.21741628646850586,0.020180564373731613
1783696034422926800,6.6209267578125,-0.39808666706085205,-0.20965850353240967,0.01132102683186531
1783696034432891000,6.630890869140625,-0.4181203842163086,-0.21887317299842834,-0.0006022290326654911
1783696034442854000,6.64085400390625,-0.4564637541770935,-0.22977934777736664,-0.009858045727014542
1783696034452818000,6.65081787109375,-0.48956209421157837,-0.2419682890176773,-0.01748516410589218
1783696034462782000,6.660781982421875,-0.506844162940979,-0.23422008752822876,-0.01741698756814003
1783696034472746000,6.67074609375,-0.5246118903160095,-0.21497710049152374,-0.011807834729552269
1783696034482709000,6.680708984375,-0.5451400876045227,-0.22540763020515442,-0.025806475430727005
1783696034492673000,6.690673095703125,-0.5638669729232788,-0.2544669806957245,-0.050119347870349884
1783696034502636800,6.70063671875,-0.5892724990844727,-0.27896779775619507,-0.07178789377212524
1783696034512600000,6.71060009765625,-0.6175052523612976,-0.3133369982242584,-0.0887041687965393
1783696034522563800,6.720563720703125,-0.648633599281311,-0.3436914384365082,-0.08996489644050598
1783696034532527900,6.73052783203125,-0.6749386191368103,-0.35178157687187195,-0.07586285471916199
1783696034542492000,6.740491943359375,-0.695439875125885,-0.3311340808868408,-0.058814093470573425
1783696034552455000,6.750454833984375,-0.7155488133430481,-0.30470430850982666,-0.05281641334295273
1783696034562419000,6.7604189453125,-0.7303050756454468,-0.2871682047843933,-0.06693729013204575
1783696034572383000,6.770383056640625,-0.7369676828384399,-0.28606218099594116,-0.08567415177822113
1783696034582347000,6.780346923828125,-0.7361791133880615,-0.3004746735095978,-0.10319828242063522
1783696034592310000,6.79031005859375,-0.7348003387451172,-0.3397049605846405,-0.10110485553741455
1783696034602274000,6.800274169921875,-0.7341262698173523,-0.3800510764122009,-0.08747772127389908
1783696034612237800,6.81023779296875,-0.7381801605224609,-0.42771896719932556,-0.064793661236763
1783696034622201000,6.820201171875,-0.7501646876335144,-0.4778375029563904,-0.040996190160512924
1783696034632164900,6.830164794921875,-0.7716428637504578,-0.5364072322845459,-0.025760317221283913
1783696034642129000,6.84012890625,-0.793458104133606,-0.5965957641601562,-0.0162376519292593
1783696034652093000,6.850093017578125,-0.8075643181800842,-0.6389569044113159,-0.01859128102660179
1783696034662056000,6.860055908203125,-0.810195803642273,-0.6556570529937744,-0.021080270409584045
1783696034672020000,6.87002001953125,-0.8037573099136353,-0.6386783719062805,-0.02367301844060421
1783696034681984000,6.87998388671875,-0.797957181930542,-0.6145732998847961,-0.021652478724718094
1783696034691948000,6.889947998046875,-0.7953887581825256,-0.5908052921295166,-0.02137896977365017
1783696034701911000,6.8999111328125,-0.800365686416626,-0.5702177286148071,-0.008482611738145351
1783696034711875000,6.909875,-0.8154518604278564,-0.5499177575111389,0.01845068484544754
1783696034721838800,6.9198388671875,-0.8484553694725037,-0.5215329527854919,0.06027615815401077
1783696034731802000,6.929802001953125,-0.8909123539924622,-0.5103424191474915,0.11034044623374939
1783696034741766000,6.939765869140625,-0.9322443604469299,-0.5089112520217896,0.1758323758840561
1783696034751730000,6.94972998046875,-0.9905409216880798,-0.4973275661468506,0.2387762814760208
1783696034761694000,6.95969384765625,-1.026076316833496,-0.49057433009147644,0.28890231251716614
1783696034771657000,6.969656982421875,-1.0464301109313965,-0.5205197334289551,0.3134300112724304
1783696034781621000,6.97962109375,-1.0676994323730469,-0.5749819278717041,0.3015672266483307
1783696034791585000,6.9895849609375,-1.0832130908966064,-0.6497660279273987,0.2569334805011749
1783696034801549000,6.999549072265625,-1.107834815979004,-0.7318976521492004,0.16512766480445862
1783696034811512000,7.009511962890625,-1.1293933391571045,-0.8035630583763123,0.04724952578544617
1783696034821476000,7.01947607421875,-1.1520951986312866,-0.867609441280365,-0.07623353600502014
1783696034831440000,7.02943994140625,-1.1763522624969482,-0.9053507447242737,-0.17690539360046387
1783696034841403000,7.03940283203125,-1.1995280981063843,-0.9068027138710022,-0.2390446662902832
1783696034851367000,7.049366943359375,-1.2117419242858887,-0.8878201246261597,-0.28146031498908997
1783696034861331000,7.0593310546875,-1.2169067859649658,-0.8415815234184265,-0.3111678659915924
1783696034871295000,7.069294921875,-1.216031551361084,-0.7788286805152893,-0.3299387991428375
1783696034881258000,7.079258056640625,-1.2119559049606323,-0.7326539754867554,-0.35016122460365295
1783696034891222000,7.089221923828125,-1.1836490631103516,-0.7205087542533875,-0.3648478388786316
1783696034901186000,7.09918603515625,-1.142117977142334,-0.7047098278999329,-0.34747764468193054
1783696034911150000,7.109150146484375,-1.1054733991622925,-0.6783469915390015,-0.29608649015426636
1783696034921113000,7.119113037109375,-1.067609429359436,-0.6452170014381409,-0.22028706967830658
1783696034931077000,7.1290771484375,-1.033339500427246,-0.5995084047317505,-0.1354396790266037
1783696034941041000,7.139041015625,-1.0254442691802979,-0.5438696146011353,-0.056907329708337784
1783696034951004000,7.14900390625,-1.0367904901504517,-0.5151770710945129,-0.008868339471518993
1783696034960968000,7.158968017578125,-1.06226646900177,-0.5156420469284058,0.005808074958622456
1783696034970932000,7.168931884765625,-1.0968037843704224,-0.5364899635314941,-0.0024274110328406096
1783696034980896000,7.17889599609375,-1.1197232007980347,-0.5425238609313965,-0.02939830906689167
1783696034990859000,7.18885888671875,-1.1558878421783447,-0.5931762456893921,-0.03751077130436897
1783696035000823000,7.198822998046875,-1.1990844011306763,-0.6766977906227112,-0.04928487166762352
1783696035010787000,7.208787109375,-1.2334978580474854,-0.7814240455627441,-0.04528422653675079
1783696035020751000,7.218751220703125,-1.2612658739089966,-0.8845959901809692,-0.043480467051267624
1783696035030714000,7.228714111328125,-1.271201252937317,-0.9216081500053406,-0.044536467641592026
1783696035040678100,7.23867822265625,-1.2656954526901245,-0.875477135181427,-0.053132351487874985
1783696035050642000,7.248641845703125,-1.2498738765716553,-0.7880367040634155,-0.07962587475776672
1783696035060605000,7.25860498046875,-1.2263271808624268,-0.7008512020111084,-0.11740601062774658
1783696035070569000,7.26856884765625,-1.19540274143219,-0.6276875138282776,-0.15397806465625763
1783696035080533000,7.278532958984375,-1.1542563438415527,-0.5544961094856262,-0.17308011651039124
1783696035090497000,7.2884970703125,-1.1048457622528076,-0.4962916076183319,-0.17281080782413483
1783696035100460000,7.2984599609375,-1.0533151626586914,-0.4623091220855713,-0.15198221802711487
1783696035110424000,7.308424072265625,-1.003663182258606,-0.4515852630138397,-0.11994811147451401
1783696035120388000,7.31838818359375,-0.9623119831085205,-0.45973771810531616,-0.08160391449928284
1783696035130352000,7.32835205078125,-0.9292515516281128,-0.4762929081916809,-0.03867140784859657
1783696035140315100,7.338315185546875,-0.9054895043373108,-0.4973907470703125,0.015385167673230171
1783696035150279200,7.348279052734375,-0.8819165229797363,-0.518795371055603,0.07641948759555817
1783696035160243000,7.358242919921875,-0.8599844574928284,-0.5397201180458069,0.14345742762088776
1783696035170206000,7.3682060546875,-0.8446765542030334,-0.5539439916610718,0.2078702300786972
1783696035180169700,7.378169677734375,-0.8298895955085754,-0.5641286969184875,0.2678653597831726
1783696035190134000,7.388134033203125,-0.8086602091789246,-0.5637079477310181,0.31427961587905884
1783696035200098000,7.39809814453125,-0.7840563058853149,-0.5291667580604553,0.3544022738933563
1783696035210060800,7.408060791015625,-0.7561995387077332,-0.47567984461784363,0.3834519386291504
1783696035220024800,7.41802490234375,-0.7311477065086365,-0.39599302411079407,0.3987475335597992
1783696035229989600,7.42798974609375,-0.6996084451675415,-0.31241941452026367,0.4061163067817688
1783696035239953400,7.437953369140625,-0.6748650074005127,-0.2655733525753021,0.39302581548690796
1783696035249916700,7.447916748046875,-0.6672331690788269,-0.27931511402130127,0.3590647578239441
1783696035259880400,7.45788037109375,-0.6743651628494263,-0.3172142803668976,0.3267821967601776
1783696035269844500,7.467844482421875,-0.6784518957138062,-0.3384363055229187,0.30142074823379517
1783696035279807500,7.477807373046875,-0.7086971402168274,-0.3708302080631256,0.29816317558288574
1783696035289771500,7.487771484375,-0.7478778958320618,-0.40960416197776794,0.3019232153892517
1783696035299735600,7.497735595703125,-0.7773337960243225,-0.40943506360054016,0.31676608324050903
1783696035309699600,7.507699462890625,-0.8051367402076721,-0.36358076333999634,0.33268317580223083
1783696035319662600,7.51766259765625,-0.8359311819076538,-0.28780025243759155,0.34671750664711
1783696035329626600,7.527626708984375,-0.8487288951873779,-0.23299555480480194,0.3592459261417389
1783696035339590700,7.537590576171875,-0.8535127639770508,-0.23146210610866547,0.3797394931316376
1783696035349554400,7.547554443359375,-0.8627529144287109,-0.2611778676509857,0.4035339951515198
1783696035359517700,7.557517578125,-0.865661084651947,-0.30843353271484375,0.4213542640209198
1783696035369481500,7.5674814453125,-0.859976589679718,-0.3548373579978943,0.43091893196105957
1783696035379445500,7.577445556640625,-0.867909848690033,-0.4081386625766754,0.4297295808792114
1783696035389409500,7.587409423828125,-0.8738235831260681,-0.45773524045944214,0.4147520363330841
1783696035399372500,7.59737255859375,-0.8752358555793762,-0.5051973462104797,0.38186758756637573
1783696035409336600,7.607336669921875,-0.8664222955703735,-0.5449326634407043,0.3410925567150116
1783696035419300600,7.617300537109375,-0.8525530695915222,-0.5517022013664246,0.30520644783973694
1783696035429263600,7.627263671875,-0.8453414440155029,-0.5067435503005981,0.29136061668395996
1783696035439227600,7.6372275390625,-0.8295787572860718,-0.4587765634059906,0.2878628373146057
1783696035449191700,7.647191650390625,-0.7934755682945251,-0.41808798909187317,0.28705573081970215
1783696035459155500,7.657155517578125,-0.7454246878623962,-0.3892941474914551,0.29170188307762146
1783696035469118700,7.66711865234375,-0.6831740140914917,-0.3913402259349823,0.294909805059433
1783696035479082500,7.67708251953125,-0.6194149851799011,-0.3988431692123413,0.29222241044044495
1783696035489046500,7.687046630859375,-0.556916356086731,-0.43133559823036194,0.274341344833374
1783696035499009500,7.697009521484375,-0.4962162375450134,-0.4883277714252472,0.23927763104438782
1783696035508973600,7.7069736328125,-0.44383424520492554,-0.5372905731201172,0.19766120612621307
1783696035518937600,7.7169375,-0.4125351905822754,-0.5764376521110535,0.1609223634004593
1783696035528901600,7.726901611328125,-0.40497153997421265,-0.616967499256134,0.13835006952285767
1783696035538864600,7.73686474609375,-0.40957215428352356,-0.6661866903305054,0.13114489614963531
1783696035548828700,7.74682861328125,-0.42239910364151,-0.721799373626709,0.1347203403711319
1783696035558792700,7.756792724609375,-0.44711190462112427,-0.7703158259391785,0.14203524589538574
1783696035568756500,7.766756591796875,-0.46794405579566956,-0.8276699781417847,0.13140447437763214
1783696035578719500,7.776719482421875,-0.47770294547080994,-0.876055896282196,0.0987170934677124
1783696035588683500,7.78668359375,-0.48548728227615356,-0.9002742171287537,0.043999556452035904
1783696035598647600,7.7966474609375,-0.49560993909835815,-0.9013866186141968,-0.03384091332554817
1783696035608611600,7.806611572265625,-0.5092210173606873,-0.8724793791770935,-0.12026011943817139
1783696035618574600,7.81657470703125,-0.5275238752365112,-0.8223275542259216,-0.20191769301891327
1783696035628538600,7.82653857421875,-0.5470641255378723,-0.7341550588607788,-0.26437798142433167
1783696035638502700,7.836502685546875,-0.5661824345588684,-0.625789999961853,-0.2941046953201294
1783696035648465700,7.846465576171875,-0.5940274000167847,-0.5227426290512085,-0.2976594567298889
1783696035658429700,7.8564296875,-0.623660683631897,-0.4385571777820587,-0.2816956639289856
1783696035668393700,7.866393798828125,-0.65916907787323,-0.36932170391082764,-0.25066518783569336
1783696035678357500,7.876357421875,-0.6927356123924255,-0.3252631425857544,-0.2104320228099823
1783696035688320500,7.886320556640625,-0.7279269695281982,-0.303455650806427,-0.16881026327610016
1783696035698284500,7.896284423828125,-0.7604430913925171,-0.3097289800643921,-0.13867606222629547
1783696035708248600,7.90624853515625,-0.7885451316833496,-0.3547291159629822,-0.12385735660791397
1783696035718211600,7.916211669921875,-0.8088719248771667,-0.4374154508113861,-0.12318331003189087
1783696035728175600,7.926175537109375,-0.8161756992340088,-0.5254149436950684,-0.12808409333229065
1783696035738139600,7.9361396484375,-0.8252051472663879,-0.5867429971694946,-0.13966351747512817
1783696035748103700,7.946103759765625,-0.8430945873260498,-0.6341826915740967,-0.1550879031419754
1783696035758066700,7.956066650390625,-0.8700500726699829,-0.673171877861023,-0.1764291524887085
1783696035768030700,7.96603076171875,-0.9184520244598389,-0.7091999053955078,-0.1875017136335373
1783696035777994800,7.975994873046875,-0.9785486459732056,-0.737348735332489,-0.19575537741184235
1783696035787958500,7.98595849609375,-1.0228277444839478,-0.7801924347877502,-0.1924593597650528
1783696035797921500,7.995921630859375,-1.0629572868347168,-0.8185440301895142,-0.18085142970085144
1783696035807885600,8.005885498046876,-1.0992987155914307,-0.84419846534729,-0.1703663021326065
1783696035817849600,8.015849609375,-1.1278486251831055,-0.8590844869613647,-0.17130319774150848
1783696035827812600,8.0258125,-1.147918701171875,-0.8555435538291931,-0.15957050025463104
1783696035837776600,8.035776611328124,-1.15674889087677,-0.8184688687324524,-0.12967811524868011
1783696035847740700,8.04574072265625,-1.158942461013794,-0.7774841785430908,-0.09315548092126846
1783696035857704700,8.05570458984375,-1.1286990642547607,-0.7131704092025757,-0.04256686940789223
1783696035867667700,8.065667724609375,-1.0892974138259888,-0.6442949175834656,0.01461935043334961
1783696035877631700,8.0756318359375,-1.0622178316116333,-0.59786456823349,0.0625045895576477
1783696035887595800,8.085595703125,-1.0416027307510376,-0.5841660499572754,0.10200946033000946
1783696035897559600,8.0955595703125,-1.0240700244903564,-0.5754237174987793,0.13931769132614136
1783696035907522600,8.1055224609375,-1.0126821994781494,-0.5850878357887268,0.171796053647995
1783696035917486600,8.115486572265626,-1.0124456882476807,-0.6087798476219177,0.19203314185142517
1783696035927450600,8.12545068359375,-1.015658974647522,-0.6297638416290283,0.2067488133907318
1783696035937413600,8.13541357421875,-1.0222015380859375,-0.6451965570449829,0.21774287521839142
1783696035947377700,8.145377685546874,-1.0299383401870728,-0.6429101228713989,0.2229139506816864
1783696035957341700,8.155341796875,-1.0352295637130737,-0.6235105991363525,0.21539103984832764
1783696035967305700,8.1653056640625,-1.0473308563232422,-0.6127300262451172,0.19907116889953613
1783696035977268700,8.175268798828125,-1.0577688217163086,-0.6124264597892761,0.17978428304195404
1783696035987232800,8.185232666015626,-1.071799635887146,-0.6164258122444153,0.15307484567165375
1783696035997196800,8.19519677734375,-1.0907621383666992,-0.6264328956604004,0.11445475369691849
1783696036007159800,8.205159912109375,-1.1117480993270874,-0.6397562623023987,0.0740184336900711
1783696036017123600,8.21512353515625,-1.1372840404510498,-0.666556179523468,0.03354211896657944
1783696036027087600,8.225087646484376,-1.1632003784179688,-0.6706910133361816,0.01468946598470211
1783696036037051600,8.2350517578125,-1.1879558563232422,-0.6540691256523132,0.01913534663617611
1783696036047014700,8.2450146484375,-1.2051684856414795,-0.6395494341850281,0.03936115652322769
1783696036056978700,8.254978759765624,-1.2172664403915405,-0.6280922293663025,0.0725899487733841
1783696036066942700,8.264942626953125,-1.223022222518921,-0.6102411150932312,0.10770934820175171
1783696036076906800,8.27490673828125,-1.220925211906433,-0.606968104839325,0.13090281188488007
1783696036086869800,8.284869873046874,-1.2138160467147827,-0.6221068501472473,0.1315208524465561
1783696036096833800,8.294833740234376,-1.2042073011398315,-0.6469210982322693,0.10656996071338654
1783696036106797600,8.304797607421875,-1.196557879447937,-0.6779740452766418,0.07307957112789154
1783696036116760600,8.314760498046875,-1.1921496391296387,-0.708156168460846,0.04799365997314453
1783696036126724600,8.324724609375,-1.1894171237945557,-0.7334420680999756,0.035360049456357956
1783696036136688600,8.334688720703125,-1.192169189453125,-0.7647230625152588,0.04475514963269234
1783696036146652700,8.344652587890625,-1.1934207677841187,-0.8056615591049194,0.06976177543401718
1783696036156615400,8.354615478515624,-1.1941227912902832,-0.8413612246513367,0.10298630595207214
1783696036166579700,8.364579833984376,-1.1956666707992554,-0.8697004318237305,0.14273332059383392
1783696036176543700,8.374543701171875,-1.1956863403320312,-0.9064424633979797,0.1800716370344162
1783696036186507800,8.3845078125,-1.1905137300491333,-0.9493659734725952,0.2036862075328827
1783696036196470500,8.394470458984374,-1.1841381788253784,-0.9873970150947571,0.21150870621204376
1783696036206434600,8.4044345703125,-1.183059811592102,-1.003561019897461,0.2073182761669159
1783696036216398600,8.414398681640625,-1.1852755546569824,-1.0031455755233765,0.19094409048557281
1783696036226361600,8.424361572265624,-1.1881356239318848,-0.9848370552062988,0.177887424826622
1783696036236325000,8.4343251953125,-1.1943279504776,-0.9735702872276306,0.16344857215881348
1783696036246289000,8.444288818359375,-1.209433674812317,-0.9744332432746887,0.15191765129566193
1783696036256253000,8.4542529296875,-1.2263332605361938,-0.9824342131614685,0.14330846071243286
1783696036266216000,8.4642158203125,-1.240454912185669,-0.9821985363960266,0.1376538723707199
1783696036276180000,8.474179931640625,-1.2505555152893066,-0.9695528149604797,0.1260984092950821
1783696036286144000,8.48414404296875,-1.2527387142181396,-0.9447557926177979,0.11335662752389908
1783696036296108000,8.49410791015625,-1.2539727687835693,-0.9009672999382019,0.08974424004554749
1783696036306071000,8.504071044921876,-1.24994695186615,-0.8542337417602539,0.05520675331354141
1783696036316035000,8.51403515625,-1.2401721477508545,-0.8022230267524719,0.0029403504449874163
1783696036325999000,8.5239990234375,-1.2263168096542358,-0.7646239399909973,-0.06550838053226471
1783696036335962000,8.533962158203124,-1.2198182344436646,-0.75702965259552,-0.13993442058563232
1783696036345926100,8.543926025390626,-1.2105622291564941,-0.7669174075126648,-0.20590180158615112
1783696036355890000,8.553889892578125,-1.2040050029754639,-0.7787564992904663,-0.25127434730529785
1783696036365854000,8.56385400390625,-1.2005032300949097,-0.777979850769043,-0.2737336754798889
1783696036375817000,8.57381689453125,-1.1992443799972534,-0.777763843536377,-0.2851863503456116
1783696036385781000,8.583781005859375,-1.2056031227111816,-0.7823535799980164,-0.28906840085983276
1783696036395745000,8.5937451171875,-1.2083499431610107,-0.7765327095985413,-0.2819971740245819
1783696036405708000,8.6037080078125,-1.2053523063659668,-0.747814953327179,-0.25142329931259155
1783696036415672000,8.613672119140626,-1.2002880573272705,-0.7034853100776672,-0.20679615437984467
1783696036425636000,8.623635986328125,-1.1905821561813354,-0.6595131158828735,-0.16120247542858124
1783696036435600100,8.63360009765625,-1.1773639917373657,-0.6167134642601013,-0.12115145474672318
1783696036445563100,8.643563232421876,-1.1620264053344727,-0.5733447074890137,-0.09813351929187775
1783696036455527200,8.653527099609375,-1.1500186920166016,-0.5265140533447266,-0.09108146280050278
1783696036465491000,8.663490966796875,-1.143791675567627,-0.48550885915756226,-0.08556368947029114
1783696036475455000,8.673455078125,-1.1409945487976074,-0.457955539226532,-0.07780349999666214
1783696036485418000,8.68341796875,-1.1447877883911133,-0.4551834762096405,-0.07243481278419495
1783696036495382000,8.693382080078125,-1.153337836265564,-0.4674564003944397,-0.06211639195680618
1783696036505346000,8.703345947265625,-1.1643589735031128,-0.4832531213760376,-0.04243139550089836
1783696036515309000,8.71330908203125,-1.1760011911392212,-0.4804309606552124,-0.026810090988874435
1783696036525273000,8.723273193359375,-1.1861475706100464,-0.46413516998291016,-0.014199174009263515
1783696036535237000,8.733237060546875,-1.1918443441390991,-0.435717910528183,-0.007097321562469006
1783696036545201200,8.743201171875,-1.193746566772461,-0.40624305605888367,-0.005084583535790443
1783696036555164200,8.7531640625,-1.1874569654464722,-0.3822239935398102,-0.00579910958185792
1783696036565128200,8.763128173828125,-1.1799089908599854,-0.36281853914260864,-0.01182879600673914
1783696036575092000,8.773092041015625,-1.1610897779464722,-0.34524035453796387,-0.020266756415367126
1783696036585055200,8.78305517578125,-1.140817642211914,-0.3274478018283844,-0.02924794703722
1783696036595019000,8.79301904296875,-1.115036964416504,-0.30618539452552795,-0.03665686398744583
1783696036604983000,8.802983154296875,-1.0833570957183838,-0.28239479660987854,-0.036741603165864944
1783696036614947000,8.812947021484375,-1.0505280494689941,-0.27164149284362793,-0.0179335605353117
1783696036624910000,8.82291015625,-1.0213488340377808,-0.2871619164943695,0.019121767953038216
1783696036634874000,8.8328740234375,-0.9884117841720581,-0.32554739713668823,0.06424423307180405
1783696036644838100,8.842838134765625,-0.9463759064674377,-0.3797595202922821,0.11682691425085068
1783696036654802200,8.85280224609375,-0.9032108783721924,-0.4263025224208832,0.17067177593708038
1783696036664765200,8.86276513671875,-0.8758080005645752,-0.4540340304374695,0.20450177788734436
1783696036674729200,8.872729248046875,-0.8163814544677734,-0.4969916343688965,0.24172984063625336
1783696036684693000,8.88269287109375,-0.7808023691177368,-0.4949648380279541,0.2975265681743622
1783696036694656300,8.89265625,-0.7617136240005493,-0.4591485261917114,0.35168859362602234
1783696036704620000,8.9026201171875,-0.7198014259338379,-0.35309237241744995,0.4042329490184784
1783696036714584000,8.912583984375,-0.6735007762908936,-0.26807257533073425,0.45406627655029297
1783696036724548000,8.922548095703124,-0.651878297328949,-0.27861288189888,0.4982178509235382
1783696036734511000,8.932510986328126,-0.6647676825523376,-0.36578720808029175,0.5235466361045837
1783696036744475100,8.94247509765625,-0.6960186958312988,-0.46089881658554077,0.5203245878219604
1783696036754439200,8.952439208984375,-0.739189088344574,-0.5357642769813538,0.47075167298316956
1783696036764402200,8.962402099609376,-0.7893927693367004,-0.5674936771392822,0.3906015157699585
1783696036774366200,8.9723662109375,-0.8494861721992493,-0.5673911571502686,0.31050828099250793
1783696036784330200,8.982330322265625,-0.9090254306793213,-0.5251306295394897,0.266543984413147
1783696036794294000,8.9922939453125,-0.9492934942245483,-0.4618608355522156,0.27286872267723083
1783696036804257300,9.00225732421875,-0.9456591010093689,-0.4111084043979645,0.31707122921943665
1783696036814221000,9.012220947265625,-0.9064751863479614,-0.3916529417037964,0.35941389203071594
1783696036824185000,9.02218505859375,-0.8600701093673706,-0.4141620099544525,0.3761708736419678
1783696036834149000,9.032149169921874,-0.827833354473114,-0.465156227350235,0.3587029278278351
1783696036844112100,9.042112060546875,-0.8298326134681702,-0.5221817493438721,0.3164316415786743
1783696036854076200,9.052076171875,-0.8510984778404236,-0.5523718595504761,0.26438096165657043
1783696036864040200,9.062040283203125,-0.888184130191803,-0.5309269428253174,0.21032671630382538
1783696036874003200,9.072003173828126,-0.9258342981338501,-0.463608056306839,0.1633264422416687
1783696036883967200,9.08196728515625,-0.9474765062332153,-0.38155680894851685,0.12903186678886414
1783696036893931300,9.09193115234375,-0.9348390102386475,-0.3031805157661438,0.10950423032045364
1783696036903895000,9.10189501953125,-0.8846453428268433,-0.24109835922718048,0.11231090873479843
1783696036913858000,9.111858154296876,-0.8104339838027954,-0.1967087835073471,0.14202061295509338
1783696036923822000,9.121822021484375,-0.7255048155784607,-0.16487698256969452,0.19482837617397308
1783696036933786000,9.1317861328125,-0.6566580533981323,-0.14690996706485748,0.25178512930870056
1783696036943750100,9.141750244140624,-0.6115308403968811,-0.176699697971344,0.2863347828388214
1783696036953713200,9.151713134765625,-0.6022385358810425,-0.25333189964294434,0.29338231682777405
1783696036963677200,9.16167724609375,-0.6228072643280029,-0.3638841509819031,0.2770453691482544
1783696036973641200,9.17164111328125,-0.6627088785171509,-0.46534550189971924,0.2511224150657654
1783696036983604000,9.18160400390625,-0.6957778334617615,-0.5531577467918396,0.213832288980484
1783696036993568300,9.191568359375,-0.7125903964042664,-0.6198230385780334,0.16801100969314575
1783696037003532300,9.2015322265625,-0.7034076452255249,-0.6635199785232544,0.11861581355333328
1783696037013496000,9.21149609375,-0.6772016286849976,-0.6879901885986328,0.0729718953371048
1783696037023459000,9.221458984375,-0.6514588594436646,-0.6988537907600403,0.02681545540690422
1783696037033422800,9.2314228515625,-0.6283873319625854,-0.6983251571655273,-0.018600229173898697
1783696037043387100,9.24138720703125,-0.6180889010429382,-0.6723541617393494,-0.0695825070142746
1783696037053350000,9.251349853515626,-0.6186535358428955,-0.6258047819137573,-0.12924477458000183
1783696037063314000,9.26131396484375,-0.6380518078804016,-0.562499463558197,-0.19177864491939545
1783696037073278000,9.27127783203125,-0.6688309907913208,-0.48937487602233887,-0.22878113389015198
1783696037083242200,9.2812421875,-0.6638922691345215,-0.384162038564682,-0.25983160734176636
1783696037093205000,9.291205078125,-0.6431158781051636,-0.22150519490242004,-0.25266212224960327
1783696037103169000,9.3011689453125,-0.6255238652229309,-0.08062288910150528,-0.21997147798538208
1783696037113133000,9.311133056640625,-0.6052058339118958,0.004459247458726168,-0.17677287757396698
1783696037123096000,9.321095947265626,-0.5771149396896362,0.031103691086173058,-0.13094562292099
1783696037133060000,9.33106005859375,-0.5605178475379944,0.004362890962511301,-0.09099022299051285
1783696037143023900,9.34102392578125,-0.5608340501785278,-0.05919723957777023,-0.05586525797843933
1783696037152988000,9.35098779296875,-0.5774796009063721,-0.1541631668806076,-0.0171828456223011
1783696037162951000,9.360950927734375,-0.6045933961868286,-0.26718851923942566,0.0115511454641819
1783696037172915000,9.3709150390625,-0.6321702003479004,-0.3651028275489807,0.041730351746082306
1783696037182879000,9.38087890625,-0.6590684056282043,-0.42657995223999023,0.06859158724546432
1783696037192843000,9.390843017578124,-0.6878819465637207,-0.4651941955089569,0.08046475797891617
1783696037202806000,9.400805908203125,-0.710512101650238,-0.5047674775123596,0.07055134326219559
1783696037212770000,9.41077001953125,-0.7308717370033264,-0.5509887933731079,0.04187682643532753
1783696037222734000,9.420734130859374,-0.7473536729812622,-0.5834219455718994,0.009921074844896793
1783696037232697300,9.430697265625,-0.7600705623626709,-0.5937941670417786,-0.019026152789592743
1783696037242661000,9.4406611328125,-0.7707796692848206,-0.5840100646018982,-0.043265096843242645
1783696037252625200,9.450625244140625,-0.7810477018356323,-0.5654686093330383,-0.06078736484050751
1783696037262589200,9.460589111328124,-0.7927687764167786,-0.5467352271080017,-0.05713798478245735
1783696037272552200,9.47055224609375,-0.7956140637397766,-0.5297759771347046,-0.02962140552699566
1783696037282516200,9.48051611328125,-0.798839807510376,-0.5348772406578064,0.015111736953258514
1783696037292480300,9.490480224609374,-0.7973105907440186,-0.5666234493255615,0.07422405481338501
1783696037302443300,9.500443359375,-0.7924124598503113,-0.6052656173706055,0.14845611155033112
1783696037312407300,9.5104072265625,-0.7831385731697083,-0.647598385810852,0.23288658261299133
1783696037322371300,9.520371337890625,-0.7754960656166077,-0.6856681704521179,0.308481365442276
1783696037332335400,9.53033544921875,-0.7598081827163696,-0.7093082070350647,0.35062989592552185
1783696037342298400,9.54029833984375,-0.7354080080986023,-0.7218058109283447,0.358074814081192
1783696037352262100,9.55026220703125,-0.713157594203949,-0.7052843570709229,0.3333340585231781
1783696037362226200,9.56022607421875,-0.6910293698310852,-0.6491358280181885,0.28679850697517395
1783696037372190200,9.570190185546876,-0.6608133912086487,-0.5577633380889893,0.22286958992481232
1783696037382153200,9.5801533203125,-0.6347590684890747,-0.4572491943836212,0.1558523178100586
1783696037392117200,9.5901171875,-0.6231247782707214,-0.39224037528038025,0.09313967078924179
1783696037402081300,9.600081298828124,-0.6230235695838928,-0.380714476108551,0.03605012595653534
1783696037412044300,9.610044189453125,-0.6337068676948547,-0.4317297339439392,-0.007582574617117643
1783696037422008300,9.62000830078125,-0.6617087125778198,-0.5034865140914917,-0.0299640204757452
1783696037431972400,9.629972412109375,-0.7043938636779785,-0.5616059899330139,-0.01839764416217804
1783696037441936100,9.63993603515625,-0.740629255771637,-0.5831179618835449,0.02211896888911724
1783696037451899400,9.6498994140625,-0.76326584815979,-0.5683848261833191,0.07786957919597626
1783696037461863200,9.65986328125,-0.7682527899742126,-0.5264889597892761,0.1424074023962021
1783696037471827200,9.6698271484375,-0.7587242722511292,-0.46760302782058716,0.1920391321182251
1783696037481791200,9.679791259765626,-0.7333965301513672,-0.4094824492931366,0.20394505560398102
1783696037491754200,9.689754150390625,-0.7114608883857727,-0.35788530111312866,0.16786162555217743
1783696037501718300,9.69971826171875,-0.6954453587532043,-0.3076249361038208,0.09457428008317947
1783696037511682300,9.709682373046874,-0.697865903377533,-0.28196218609809875,0.03523772582411766
1783696037521645300,9.719645263671875,-0.7124385833740234,-0.31231704354286194,-0.010697966441512108
1783696037531609300,9.729609375,-0.7160029411315918,-0.39404094219207764,-0.05417007580399513
1783696037541573400,9.739573486328124,-0.7080901861190796,-0.4495707154273987,-0.07515628635883331
1783696037551537200,9.749537109375,-0.7013896703720093,-0.49041616916656494,-0.07243587076663971
1783696037561500200,9.759500244140625,-0.6990202069282532,-0.541376531124115,-0.061160583049058914
1783696037571464200,9.769464111328125,-0.7078853249549866,-0.5412183403968811,0.044793810695409775
1783696037581428200,9.77942822265625,-0.7008576989173889,-0.6893032789230347,0.11179255694150925
1783696037591391000,9.789390869140625,-0.6794927716255188,-0.7363309860229492,0.18379856646060944
1783696037601355000,9.79935498046875,-0.6853470802307129,-0.7061810493469238,0.2773132920265198
1783696037611319300,9.8093193359375,-0.6921716928482056,-0.6213955879211426,0.3530067205429077
1783696037621283300,9.819283447265626,-0.6951970458030701,-0.5238913893699646,0.370435506105423
1783696037631246000,9.82924609375,-0.7077421545982361,-0.4627281725406647,0.3444153368473053
1783696037641210000,9.839210205078125,-0.7023726105690002,-0.4109192490577698,0.31113237142562866
1783696037651174400,9.84917431640625,-0.6915702819824219,-0.3896983861923218,0.25659164786338806
