time,seconds_elapsed,z,y,x
1783696005212846300,0.065846435546875,0.42200496792793274,-0.12062699347734451,0.1692318618297577
1783696005222810400,0.075810302734375,0.3971185088157654,-0.036500636488199234,0.12635304033756256
1783696005232774100,0.085774169921875,0.38115444779396057,0.03681565821170807,0.057990770787000656
1783696005242737400,0.0957373046875,0.37948212027549744,0.10309183597564697,-0.023052044212818146
1783696005252701200,0.105701171875,0.39290204644203186,0.17387491464614868,-0.09134907275438309
1783696005262665200,0.115665283203125,0.42040252685546875,0.24119673669338226,-0.14718079566955566
1783696005272629200,0.125629150390625,0.4610937535762787,0.27370649576187134,-0.19950631260871887
1783696005282593300,0.13559326171875,0.5050481557846069,0.26508793234825134,-0.24688442051410675
1783696005292557300,0.145557373046875,0.550620436668396,0.2438231110572815,-0.27014127373695374
1783696005302520300,0.155520263671875,0.5914545059204102,0.22879226505756378,-0.2657470405101776
1783696005312484400,0.165484375,0.6243591904640198,0.21881525218486786,-0.23722191154956818
1783696005322448100,0.1754482421875,0.6365633606910706,0.22199128568172455,-0.19478999078273773
1783696005332412200,0.185412109375,0.6368374228477478,0.22878234088420868,-0.15116262435913086
1783696005342376200,0.195376220703125,0.6269943118095398,0.24741338193416595,-0.10702081769704819
1783696005352339200,0.205339111328125,0.6025598049163818,0.2823830544948578,-0.06399106234312057
1783696005362303200,0.21530322265625,0.5715369582176208,0.312677800655365,-0.039217837154865265
1783696005372267300,0.225267333984375,0.5466499924659729,0.31711888313293457,-0.0325562059879303
1783696005382231300,0.235231201171875,0.533518373966217,0.3066002428531647,-0.047017280012369156
1783696005392195300,0.2451953125,0.5183449983596802,0.3013961613178253,-0.06998384743928909
1783696005402158300,0.255158447265625,0.5054988265037537,0.2820855975151062,-0.08604545891284943
1783696005412122400,0.265122314453125,0.49980291724205017,0.25597888231277466,-0.0859767496585846
1783696005422086100,0.275086181640625,0.4988415241241455,0.22574666142463684,-0.07222285121679306
1783696005432050200,0.28505029296875,0.4987504184246063,0.19698213040828705,-0.057562414556741714
1783696005442014200,0.29501416015625,0.508806049823761,0.16814883053302765,-0.03657657653093338
1783696005451978200,0.304978271484375,0.5148325562477112,0.13258790969848633,-0.011331139132380486
1783696005461941200,0.314941162109375,0.5121259689331055,0.09946095943450928,0.011190607212483883
1783696005471905300,0.3249052734375,0.5052949786186218,0.07147379964590073,0.02522999420762062
1783696005481869300,0.334869384765625,0.4863727390766144,0.08099986612796783,0.03334317356348038
1783696005491833000,0.3448330078125,0.45843538641929626,0.09514497965574265,0.03264036774635315
1783696005501797000,0.354797119140625,0.43759602308273315,0.06924840807914734,0.013737434521317482
1783696005511760100,0.364760009765625,0.4292273223400116,0.0028214440681040287,-0.012011604383587837
1783696005521724200,0.37472412109375,0.4271349012851715,-0.07212258130311966,-0.02656754106283188
1783696005531688200,0.384688232421875,0.42965662479400635,-0.12362013012170792,-0.013788096606731415
1783696005541652200,0.39465234375,0.43757742643356323,-0.12384916841983795,0.020936431363224983
1783696005551616300,0.4046162109375,0.4485640525817871,-0.0649818554520607,0.0769304558634758
1783696005561580300,0.414580322265625,0.46233898401260376,0.039100341498851776,0.1467691957950592
1783696005571543300,0.424543212890625,0.4774090051651001,0.17216145992279053,0.22220084071159363
1783696005581507300,0.43450732421875,0.48696714639663696,0.2841460704803467,0.27963683009147644
1783696005591471000,0.44447119140625,0.4818616211414337,0.34489649534225464,0.3154422342777252
1783696005601435100,0.45443505859375,0.46839070320129395,0.3816009759902954,0.32939478754997253
1783696005611399200,0.464399169921875,0.4414485692977905,0.3840433359146118,0.3217208981513977
1783696005621363200,0.47436328125,0.40335455536842346,0.3544359803199768,0.3033219873905182
1783696005631326200,0.484326171875,0.3586962819099426,0.33359968662261963,0.2843283414840698
1783696005641290200,0.494290283203125,0.3299437165260315,0.3123106062412262,0.2722015976905823
1783696005651254300,0.504254150390625,0.32085755467414856,0.33522123098373413,0.27474915981292725
1783696005661218000,0.514218017578125,0.3183862566947937,0.35700300335884094,0.28036296367645264
1783696005671182000,0.52418212890625,0.3141568899154663,0.36854779720306396,0.2657981514930725
1783696005681145000,0.53414501953125,0.30560216307640076,0.36355727910995483,0.226405069231987
1783696005691109000,0.544109130859375,0.2821202874183655,0.33663085103034973,0.1526823788881302
1783696005701073200,0.5540732421875,0.244423046708107,0.33485323190689087,0.06467528641223907
1783696005711037200,0.564037109375,0.1940392255783081,0.358604371547699,-0.015261361375451088
1783696005721001200,0.574001220703125,0.13916614651679993,0.3814702332019806,-0.07343059778213501
1783696005730965200,0.58396533203125,0.11081627011299133,0.3909423053264618,-0.0921371728181839
1783696005740928300,0.59392822265625,0.12155319005250931,0.3998681902885437,-0.07882683724164963
1783696005750892300,0.603892333984375,0.16217970848083496,0.4126702547073364,-0.04735732823610306
1783696005760856000,0.61385595703125,0.21675212681293488,0.4154481887817383,-0.010795651003718376
1783696005770820000,0.623820068359375,0.2664000988006592,0.40264347195625305,0.030965112149715424
1783696005780784400,0.633784423828125,0.3169757127761841,0.38680747151374817,0.06617435812950134
1783696005790747100,0.6437470703125,0.36311444640159607,0.382112056016922,0.10259468108415604
1783696005800711200,0.653711181640625,0.40996578335762024,0.3647788166999817,0.13256464898586273
1783696005810675200,0.66367529296875,0.45182961225509644,0.3382369577884674,0.15604759752750397
1783696005820639500,0.673639404296875,0.5162805914878845,0.30524417757987976,0.1681290864944458
1783696005830603300,0.683603271484375,0.6331380009651184,0.31454765796661377,0.14777694642543793
1783696005840567300,0.6935673828125,0.7117242813110352,0.36368054151535034,0.1000460609793663
1783696005850530000,0.703530029296875,0.7338154911994934,0.4037763178348541,0.02770954556763172
1783696005860494000,0.713494140625,0.6917292475700378,0.4116574227809906,-0.05331559479236603
1783696005870458400,0.723458251953125,0.6298112869262695,0.38817980885505676,-0.12071913480758667
1783696005880422400,0.73342236328125,0.5878701210021973,0.34871095418930054,-0.16220195591449738
1783696005890386400,0.743386474609375,0.5802167057991028,0.3039591908454895,-0.15660665929317474
1783696005900349200,0.75334912109375,0.5986441373825073,0.29806187748908997,-0.10778854787349701
1783696005910313500,0.7633134765625,0.6130699515342712,0.31648001074790955,-0.04290302097797394
1783696005920277200,0.77327734375,0.6131892800331116,0.3339487910270691,0.013202525675296783
1783696005930241300,0.7832412109375,0.5879486203193665,0.329064279794693,0.05532121658325195
1783696005940205300,0.793205322265625,0.5504371523857117,0.3074892461299896,0.09114319086074829
1783696005950169300,0.80316943359375,0.4992578327655792,0.30046170949935913,0.10555168986320496
1783696005960132400,0.81313232421875,0.4208509027957916,0.3460107445716858,0.1034223809838295
1783696005970096400,0.823096435546875,0.3675818145275116,0.39868515729904175,0.09621506929397583
1783696005980060400,0.833060302734375,0.34242528676986694,0.5058512687683105,0.048685222864151
1783696005990024400,0.8430244140625,0.33131033182144165,0.5438609719276428,0.010086964815855026
1783696005999988200,0.85298828125,0.3133831322193146,0.536220371723175,-0.018729612231254578
1783696006009951200,0.862951171875,0.2788083553314209,0.5140975117683411,-0.07392336428165436
1783696006019915300,0.872915283203125,0.25844842195510864,0.4817030727863312,-0.14368847012519836
1783696006029879300,0.88287939453125,0.25360921025276184,0.4494628310203552,-0.21087442338466644
1783696006039843300,0.89284326171875,0.2531715929508209,0.4274681508541107,-0.2726421356201172
1783696006049807400,0.902807373046875,0.25615671277046204,0.3944675922393799,-0.32796263694763184
1783696006059771400,0.912771484375,0.266397088766098,0.33530566096305847,-0.36590346693992615
1783696006069734400,0.922734375,0.2724573612213135,0.24964773654937744,-0.3910676836967468
1783696006079698400,0.932698486328125,0.27055662870407104,0.15646985173225403,-0.39821600914001465
1783696006089662200,0.942662109375,0.2657168507575989,0.06396681815385818,-0.37772271037101746
1783696006099626200,0.952626220703125,0.2690516710281372,-0.009528153575956821,-0.32129162549972534
1783696006109590300,0.96259033203125,0.27980151772499084,-0.0438041016459465,-0.23162485659122467
1783696006119553300,0.97255322265625,0.2940634787082672,-0.04701479524374008,-0.12284718453884125
1783696006129517300,0.982517333984375,0.30554065108299255,-0.05692202225327492,-0.006176765076816082
1783696006139481300,0.9924814453125,0.3147777318954468,-0.06105448305606842,0.10720010846853256
1783696006149445400,1.0024453125,0.3189743459224701,-0.06224917620420456,0.21521952748298645
1783696006159409400,1.012409423828125,0.3285658657550812,-0.06355193257331848,0.3056304156780243
1783696006169372400,1.022372314453125,0.34096795320510864,-0.06099342927336693,0.37738236784935
1783696006179336200,1.032336181640625,0.35550156235694885,-0.06030559539794922,0.4265070855617523
1783696006189300200,1.04230029296875,0.3598790168762207,-0.05929093062877655,0.44106897711753845
1783696006199264800,1.0522646484375,0.3507448136806488,-0.05861738696694374,0.4131098985671997
1783696006209228800,1.062228759765625,0.32754841446876526,-0.05341889336705208,0.3438306748867035
1783696006219192800,1.07219287109375,0.3099953234195709,-0.055600542575120926,0.25375258922576904
1783696006229155800,1.08215576171875,0.2961876392364502,-0.03715788573026657,0.16701103746891022
1783696006239120000,1.092119873046875,0.2860111594200134,0.010164357721805573,0.09450487792491913
1783696006249083600,1.102083740234375,0.2714218199253082,0.0756208598613739,0.038945212960243225
1783696006259047700,1.112047607421875,0.2592230439186096,0.1397894024848938,0.0028508235700428486
1783696006269011700,1.12201171875,0.24586915969848633,0.19253836572170258,-0.02303323708474636
1783696006278974700,1.131974609375,0.2336006909608841,0.2252558022737503,-0.05061907693743706
1783696006288938800,1.141938720703125,0.22286894917488098,0.24988631904125214,-0.07943421602249146
1783696006298902800,1.15190283203125,0.22609245777130127,0.27521249651908875,-0.09785012155771255
1783696006308866800,1.16186669921875,0.24029242992401123,0.30415838956832886,-0.10490190982818604
1783696006318830800,1.171830810546875,0.26230087876319885,0.3133792579174042,-0.09449414163827896
1783696006328795000,1.181794921875,0.2850908637046814,0.30626171827316284,-0.0530439056456089
1783696006338757600,1.191757568359375,0.3009384870529175,0.27168935537338257,0.01640084572136402
1783696006348721700,1.2017216796875,0.31006672978401184,0.21477948129177094,0.10089921951293945
1783696006358685700,1.211685791015625,0.31668946146965027,0.15826216340065002,0.190800279378891
1783696006368649700,1.221649658203125,0.32156598567962646,0.11678316444158554,0.2773756682872772
1783696006378614000,1.231614013671875,0.33155620098114014,0.09567757695913315,0.3633344769477844
1783696006388576800,1.24157666015625,0.3481844365596771,0.09481391310691833,0.42425695061683655
1783696006398540800,1.251540771484375,0.36817607283592224,0.12241385877132416,0.459611177444458
1783696006408504800,1.2615048828125,0.39743757247924805,0.16489873826503754,0.4722159206867218
1783696006418468900,1.27146875,0.43438953161239624,0.24353228509426117,0.4627898633480072
1783696006428433000,1.281432861328125,0.48467427492141724,0.33353114128112793,0.4280875623226166
1783696006438395600,1.291395751953125,0.5339592695236206,0.38726183772087097,0.366168349981308
1783696006448359700,1.301359619140625,0.5777349472045898,0.40205118060112,0.28716832399368286
1783696006458324000,1.311323974609375,0.6054698824882507,0.37633591890335083,0.20280009508132935
1783696006468288000,1.3212880859375,0.6090611815452576,0.3346233665943146,0.1253921240568161
1783696006478252000,1.331251953125,0.5840945839881897,0.2848752439022064,0.06626036018133163
1783696006488215800,1.3412158203125,0.5385337471961975,0.2570457458496094,0.03235538676381111
1783696006498178800,1.3511787109375,0.48348379135131836,0.26083463430404663,0.030981093645095825
1783696006508142800,1.361142822265625,0.4326155483722687,0.30912867188453674,0.05371277034282684
1783696006518107000,1.37110693359375,0.3912658095359802,0.3737294673919678,0.0845404639840126
1783696006528071000,1.38107080078125,0.36726006865501404,0.4210008382797241,0.09249772131443024
1783696006538035000,1.391034912109375,0.3680669963359833,0.4333416819572449,0.07259532064199448
1783696006547998000,1.400998046875,0.3878020644187927,0.4218541383743286,0.025104766711592674
1783696006557962000,1.4109619140625,0.41701018810272217,0.3976294994354248,-0.028818465769290924
1783696006567926000,1.420926025390625,0.44415178894996643,0.37895166873931885,-0.06870276480913162
1783696006577889800,1.430889892578125,0.464551717042923,0.3787926733493805,-0.07426579296588898
1783696006587853800,1.440853759765625,0.4718967080116272,0.40171849727630615,-0.052790068089962006
1783696006597817900,1.45081787109375,0.4692718982696533,0.440835565328598,-0.011947792023420334
1783696006607780900,1.46078076171875,0.47476279735565186,0.5015318989753723,0.026317304000258446
1783696006617745000,1.470744873046875,0.48938465118408203,0.5875847935676575,0.0651894360780716
1783696006627709000,1.480708984375,0.5196400284767151,0.6684426069259644,0.09834259748458862
1783696006637673000,1.4906728515625,0.5540686249732971,0.7318287491798401,0.12495643645524979
1783696006647637000,1.500636962890625,0.5945537090301514,0.7496426105499268,0.14204274117946625
1783696006657600000,1.51060009765625,0.6321991682052612,0.742900550365448,0.15774840116500854
1783696006667564000,1.52056396484375,0.6742174625396729,0.6956896185874939,0.17090600728988647
1783696006677527800,1.53052783203125,0.7131324410438538,0.6551635265350342,0.17683136463165283
1783696006687491800,1.540491943359375,0.7356018424034119,0.6105608940124512,0.16281035542488098
1783696006697455900,1.550455810546875,0.7424536347389221,0.5468772649765015,0.12445235252380371
1783696006707419000,1.5604189453125,0.7315272092819214,0.44365236163139343,0.05295180901885033
1783696006717383000,1.5703828125,0.7164267897605896,0.3125206530094147,-0.036399148404598236
1783696006727347000,1.580346923828125,0.6951143145561218,0.19981062412261963,-0.11478370428085327
1783696006737311000,1.59031103515625,0.6719995141029358,0.11514735966920853,-0.17201092839241028
1783696006747274800,1.600274658203125,0.6445673704147339,0.04368356242775917,-0.19905266165733337
1783696006757238800,1.61023876953125,0.6093429327011108,-0.017929887399077415,-0.20570601522922516
1783696006767201800,1.620201904296875,0.563753604888916,-0.07289193570613861,-0.20681868493556976
1783696006777165800,1.630165771484375,0.5075579881668091,-0.13602113723754883,-0.21679429709911346
1783696006787129900,1.6401298828125,0.4485074281692505,-0.21826142072677612,-0.25002068281173706
1783696006797094000,1.650093994140625,0.39016810059547424,-0.29118093848228455,-0.28830453753471375
1783696006807058000,1.660057861328125,0.3423827290534973,-0.3087309002876282,-0.31098297238349915
1783696006817021000,1.67002099609375,0.3018754720687866,-0.27493932843208313,-0.3127691149711609
1783696006826985000,1.67998486328125,0.2816002666950226,-0.20898158848285675,-0.2914496958255768
1783696006836949000,1.689948974609375,0.28288838267326355,-0.10067222267389297,-0.2480907291173935
1783696006846912800,1.699912841796875,0.2991427183151245,0.06619452685117722,-0.1876010149717331
1783696006856876800,1.709876708984375,0.32415321469306946,0.25411704182624817,-0.12971103191375732
1783696006866839800,1.71983984375,0.35544854402542114,0.4339624345302582,-0.0938478335738182
1783696006876803800,1.729803955078125,0.38122236728668213,0.5755000114440918,-0.09397004544734955
1783696006886767900,1.739767822265625,0.4082038998603821,0.6565618515014648,-0.11103078722953796
1783696006896732000,1.74973193359375,0.43627142906188965,0.6987485289573669,-0.1262328177690506
1783696006906696000,1.759696044921875,0.4543377757072449,0.7098177075386047,-0.1280224621295929
1783696006916659000,1.769658935546875,0.4549976885318756,0.6783053278923035,-0.12006045132875443
1783696006926623000,1.779623046875,0.44101691246032715,0.6057080626487732,-0.10066571086645126
1783696006936586800,1.789586669921875,0.41536977887153625,0.5207161903381348,-0.07540247589349747
1783696006946550800,1.79955078125,0.3764290511608124,0.43050616979599,-0.05002095177769661
1783696006956514800,1.809514892578125,0.3299572467803955,0.33897125720977783,-0.03300102800130844
1783696006966478800,1.819478759765625,0.2814192771911621,0.25127682089805603,-0.02774474397301674
1783696006976441900,1.82944189453125,0.24078212678432465,0.15754203498363495,-0.03194638714194298
1783696006986406000,1.839406005859375,0.2129443734884262,0.07968451082706451,-0.03254719823598862
1783696006996370000,1.849369873046875,0.19749949872493744,0.00653123389929533,-0.02726895734667778
1783696007006334000,1.859333984375,0.18383347988128662,-0.06382548809051514,-0.01703975722193718
1783696007016297700,1.869297607421875,0.16522791981697083,-0.10719956457614899,-0.005003315396606922
1783696007026260700,1.8792607421875,0.14411331713199615,-0.12378572672605515,0.003955557942390442
1783696007036224800,1.889224853515625,0.1139129176735878,-0.11299248039722443,0.012890505604445934
1783696007046188800,1.899188720703125,0.08390229195356369,-0.09269680082798004,0.01915053278207779
1783696007056152800,1.90915283203125,0.05007358640432358,-0.07368269562721252,0.016922764480113983
1783696007066116900,1.919116943359375,0.01884855516254902,-0.0631600171327591,0.00956391915678978
1783696007076079900,1.929079833984375,0.002861184999346733,-0.0686998963356018,-0.004445786587893963
1783696007086044000,1.9390439453125,0.0014646233757957816,-0.09278526157140732,-0.012580945156514645
1783696007096008000,1.949008056640625,0.005366259720176458,-0.11333132535219193,-0.001992209814488888
1783696007105971700,1.9589716796875,0.006044300738722086,-0.12611502408981323,0.017735954374074936
1783696007115935700,1.968935791015625,0.005435124970972538,-0.1410454958677292,0.0333058163523674
1783696007125899800,1.978899658203125,-0.0011087942402809858,-0.1509372740983963,0.04984990507364273
1783696007135862800,1.98886279296875,-0.01003588642925024,-0.15272046625614166,0.07549619674682617
1783696007145826800,1.998826904296875,-0.02096123807132244,-0.14233626425266266,0.108598493039608
1783696007155790800,2.008790771484375,-0.028104238212108612,-0.1122831329703331,0.14602899551391602
1783696007165755000,2.0187548828125,-0.029629429802298546,-0.07255462557077408,0.18450208008289337
1783696007175719000,2.028718994140625,-0.020391525700688362,-0.057869914919137955,0.21668994426727295
1783696007185682000,2.038681884765625,-0.020124677568674088,-0.08159281313419342,0.21932166814804077
1783696007195645700,2.048645751953125,-0.031329475343227386,-0.12202094495296478,0.19778791069984436
1783696007205609700,2.058609619140625,-0.05720341578125954,-0.16378118097782135,0.14815671741962433
1783696007215573800,2.06857373046875,-0.08998188376426697,-0.1931741088628769,0.07577870041131973
1783696007225537800,2.078537841796875,-0.12851649522781372,-0.19857633113861084,-0.0027968049980700016
1783696007235500800,2.088500732421875,-0.17357201874256134,-0.1499098539352417,-0.07238850742578506
1783696007245464800,2.09846484375,-0.22108548879623413,-0.055752988904714584,-0.11311942338943481
1783696007255428900,2.108428955078125,-0.26104357838630676,0.06833466142416,-0.13577976822853088
1783696007265393000,2.118392822265625,-0.2871425449848175,0.184641033411026,-0.14478710293769836
1783696007275356700,2.128356689453125,-0.2910977303981781,0.26419633626937866,-0.140708789229393
1783696007285319700,2.138319580078125,-0.27588868141174316,0.29872849583625793,-0.12105625122785568
1783696007295283700,2.14828369140625,-0.24554993212223053,0.3018326163291931,-0.08095381408929825
1783696007305247700,2.158247802734375,-0.20759162306785583,0.2909567952156067,-0.0231256652623415
1783696007315211800,2.168211669921875,-0.17554011940956116,0.2638402581214905,0.026854997500777245
1783696007325175800,2.17817578125,-0.15742850303649902,0.21653586626052856,0.0567828007042408
1783696007335140000,2.18814013671875,-0.16234943270683289,0.1476941555738449,0.07326656579971313
1783696007345102800,2.198102783203125,-0.18096758425235748,0.07091229408979416,0.08158788084983826
1783696007355067000,2.20806689453125,-0.20443527400493622,0.0031508805695921183,0.09921060502529144
1783696007365030700,2.21803076171875,-0.22396956384181976,-0.042098887264728546,0.12608084082603455
1783696007374995000,2.227994873046875,-0.2320811003446579,-0.07286000996828079,0.17071890830993652
1783696007384959000,2.237958984375,-0.23716028034687042,-0.08728315681219101,0.22172430157661438
1783696007394921700,2.247921630859375,-0.23736891150474548,-0.08744350075721741,0.273834764957428
1783696007404885800,2.2578857421875,-0.2295496016740799,-0.08480989933013916,0.30254286527633667
1783696007414850000,2.26785009765625,-0.21408957242965698,-0.07632476091384888,0.3133429288864136
1783696007424814000,2.27781396484375,-0.19105030596256256,-0.054471924901008606,0.3075726628303528
1783696007434777900,2.28777783203125,-0.18060915172100067,-0.014653443358838558,0.2868541479110718
1783696007444740900,2.297740966796875,-0.18383929133415222,0.031433891505002975,0.25824275612831116
1783696007454704600,2.30770458984375,-0.19913512468338013,0.06748352199792862,0.22530677914619446
1783696007464669000,2.3176689453125,-0.20884528756141663,0.08332853019237518,0.20191410183906555
1783696007474633000,2.327633056640625,-0.2159745693206787,0.0940282866358757,0.19940270483493805
1783696007484597000,2.337596923828125,-0.2139095515012741,0.09731169790029526,0.2129019945859909
1783696007494559700,2.347559814453125,-0.20504558086395264,0.06658951938152313,0.22345450520515442
1783696007504524000,2.35752392578125,-0.18979951739311218,-0.00041108811274170876,0.21876442432403564
1783696007514488000,2.367488037109375,-0.1702859103679657,-0.0800311267375946,0.1940753161907196
1783696007524452000,2.3774521484375,-0.15546834468841553,-0.13930749893188477,0.14476102590560913
1783696007534416000,2.387415771484375,-0.15258505940437317,-0.14232754707336426,0.07186326384544373
1783696007544379000,2.39737890625,-0.1632712483406067,-0.09960911422967911,-0.01267824787646532
1783696007554343000,2.407343017578125,-0.17971712350845337,-0.03990265727043152,-0.09305285662412643
1783696007564307000,2.417306884765625,-0.19482097029685974,0.02868732064962387,-0.1635209023952484
1783696007574271000,2.42727099609375,-0.2064206600189209,0.0945148766040802,-0.22120735049247742
1783696007584235000,2.437235107421875,-0.19931454956531525,0.14696982502937317,-0.27147266268730164
1783696007594199000,2.447198974609375,-0.18298698961734772,0.19055643677711487,-0.31257590651512146
1783696007604162000,2.457162109375,-0.16013945639133453,0.22192901372909546,-0.3372218608856201
1783696007614126000,2.4671259765625,-0.13469670712947845,0.2433895617723465,-0.3434908092021942
1783696007624089900,2.47708984375,-0.10919108241796494,0.24938780069351196,-0.31716999411582947
1783696007634054000,2.487053955078125,-0.08268788456916809,0.2421351671218872,-0.270729660987854
1783696007644018000,2.497017822265625,-0.06449929624795914,0.21626043319702148,-0.20115193724632263
1783696007653981000,2.50698095703125,-0.058871373534202576,0.18915830552577972,-0.12048805505037308
1783696007663945000,2.516945068359375,-0.051760464906692505,0.1535997837781906,-0.038223542273044586
1783696007673909000,2.526908935546875,-0.06058718264102936,0.10090591758489609,0.029880842193961143
1783696007683873000,2.536873046875,-0.0836285874247551,0.03322700411081314,0.08204524219036102
1783696007693836800,2.5468369140625,-0.1157052218914032,-0.04142168164253235,0.11126592010259628
1783696007703800000,2.556800048828125,-0.1568145751953125,-0.10930831730365753,0.12273482233285904
1783696007713763800,2.566763916015625,-0.1883428990840912,-0.15613652765750885,0.12238901853561401
1783696007723728000,2.576727783203125,-0.2201160043478012,-0.18740949034690857,0.11085540056228638
1783696007733692000,2.58669189453125,-0.2510221004486084,-0.2074681967496872,0.08102548122406006
1783696007743656000,2.596656005859375,-0.27788275480270386,-0.1956687867641449,0.04396653175354004
1783696007753619000,2.606618896484375,-0.2968485653400421,-0.15009914338588715,0.008099566213786602
1783696007763583000,2.6165830078125,-0.30832865834236145,-0.0999278575181961,-0.018813008442521095
1783696007773547000,2.626547119140625,-0.31612324714660645,-0.04894034564495087,-0.03367149457335472
1783696007783511000,2.636510986328125,-0.31442201137542725,-0.010419853031635284,-0.04020556062459946
1783696007793474800,2.646474853515625,-0.30123284459114075,0.01903928630053997,-0.03397360444068909
1783696007803438800,2.65643896484375,-0.2823947072029114,0.03432662785053253,-0.02201361581683159
1783696007813401900,2.66640185546875,-0.2735561728477478,0.03517377749085426,-0.010017837397754192
1783696007823366000,2.676365966796875,-0.25804591178894043,0.02943173237144947,-0.003184964880347252
1783696007833330000,2.686329833984375,-0.23878495395183563,0.03036039136350155,0.005543605424463749
1783696007843294000,2.6962939453125,-0.22024668753147125,0.041643138974905014,0.02351568080484867
1783696007853258000,2.706258056640625,-0.20861366391181946,0.0549437515437603,0.051674820482730865
1783696007863221000,2.716220947265625,-0.20078717172145844,0.06417559832334518,0.0748824030160904
1783696007873185000,2.72618505859375,-0.18898598849773407,0.055610284209251404,0.08821680396795273
1783696007883148800,2.736148681640625,-0.18198427557945251,0.02477886527776718,0.09433701634407043
1783696007893112800,2.74611279296875,-0.17583999037742615,-0.010638143867254257,0.10538873076438904
1783696007903076900,2.756076904296875,-0.1609441339969635,-0.034460388123989105,0.1232827752828598
1783696007913040000,2.766039794921875,-0.13672183454036713,-0.04774993285536766,0.1488015055656433
1783696007923004000,2.77600390625,-0.10588721930980682,-0.0466521754860878,0.1763889193534851
1783696007932968000,2.785968017578125,-0.08423469215631485,-0.026861662045121193,0.2013637125492096
1783696007942932000,2.795931884765625,-0.07087893784046173,0.026000753045082092,0.2188098132610321
1783696007952896000,2.80589599609375,-0.06095527857542038,0.0913909301161766,0.2322971522808075
1783696007962859000,2.81585888671875,-0.05084911361336708,0.16722950339317322,0.23893481492996216
1783696007972822800,2.82582275390625,-0.0453144907951355,0.2299317866563797,0.24129478633403778
1783696007982786800,2.835786865234375,-0.052338313311338425,0.24333813786506653,0.2344970703125
1783696007992750800,2.845750732421875,-0.07747886329889297,0.2053305208683014,0.20774142444133759
1783696008002715000,2.85571484375,-0.10666338354349136,0.1308211386203766,0.16469569504261017
1783696008012678000,2.865677978515625,-0.1446317732334137,0.04093768075108528,0.12802653014659882
1783696008022642000,2.875641845703125,-0.18580956757068634,-0.04897116869688034,0.10091101378202438
1783696008032606000,2.88560595703125,-0.23214425146579742,-0.11930210888385773,0.09438506513834
1783696008042570000,2.895570068359375,-0.2748451232910156,-0.15934006869792938,0.10381505638360977
1783696008052533800,2.90553369140625,-0.3098520338535309,-0.171813502907753,0.1276780068874359
1783696008062497000,2.9154970703125,-0.3305639624595642,-0.16411058604717255,0.1576356440782547
1783696008072460800,2.925460693359375,-0.33920055627822876,-0.15441030263900757,0.1818113923072815
1783696008082424800,2.9354248046875,-0.3272402882575989,-0.1523524671792984,0.20348873734474182
1783696008092388900,2.945388916015625,-0.30252805352211,-0.14849252998828888,0.22171443700790405
1783696008102353000,2.955352783203125,-0.2633628249168396,-0.13711205124855042,0.24069558084011078
1783696008112316000,2.96531591796875,-0.22539450228214264,-0.13387355208396912,0.2558325231075287
1783696008122280000,2.975280029296875,-0.19629067182540894,-0.14139218628406525,0.2685760259628296
1783696008132244000,2.985243896484375,-0.18841692805290222,-0.1642780900001526,0.2789823114871979
1783696008142207700,2.995207763671875,-0.1858357936143875,-0.18876266479492188,0.28729671239852905
1783696008152171800,3.005171875,-0.20944347977638245,-0.19888488948345184,0.2880138158798218
1783696008162135800,3.0151357421875,-0.2450089305639267,-0.21133410930633545,0.2772948741912842
1783696008172098800,3.025098876953125,-0.27986544370651245,-0.2516615092754364,0.2575710117816925
1783696008182062800,3.035062744140625,-0.3090784549713135,-0.3340224325656891,0.23658744990825653
1783696008192027000,3.04502685546875,-0.31689736247062683,-0.4290213882923126,0.2381620854139328
1783696008201990400,3.054990478515625,-0.31846940517425537,-0.5432941913604736,0.2628850042819977
1783696008211954400,3.064954345703125,-0.3179011940956116,-0.6537595987319946,0.30781230330467224
1783696008221917400,3.07491748046875,-0.3108842968940735,-0.7364145517349243,0.36446094512939453
1783696008231881500,3.084881591796875,-0.2889423966407776,-0.7576960921287537,0.4197210967540741
1783696008241845200,3.09484521484375,-0.26038771867752075,-0.7269200682640076,0.4649927020072937
1783696008251809300,3.104809326171875,-0.2313854694366455,-0.6784369945526123,0.480083703994751
1783696008261773300,3.114773193359375,-0.2003772258758545,-0.6362977623939514,0.46635857224464417
1783696008271736300,3.124736328125,-0.17304204404354095,-0.5936635732650757,0.4394833445549011
1783696008281700400,3.134700439453125,-0.15258684754371643,-0.5438432693481445,0.4062180519104004
1783696008291664400,3.144664306640625,-0.14744076132774353,-0.5108860731124878,0.36895349621772766
1783696008301628400,3.15462841796875,-0.15647420287132263,-0.5006941556930542,0.32027968764305115
1783696008311592400,3.164592529296875,-0.1792217195034027,-0.5275875926017761,0.2631027400493622
1783696008321555500,3.174555419921875,-0.21599678695201874,-0.5801796913146973,0.21087628602981567
1783696008331519500,3.18451953125,-0.2618805766105652,-0.6287341117858887,0.1718393862247467
1783696008341483300,3.194483154296875,-0.3141555190086365,-0.680408775806427,0.14152994751930237
1783696008351447300,3.204447265625,-0.36455169320106506,-0.7595607042312622,0.109930619597435
1783696008361411300,3.214411376953125,-0.4181656539440155,-0.8494139313697815,0.06902473419904709
1783696008371374300,3.224374267578125,-0.45597904920578003,-0.8984541296958923,0.034723054617643356
1783696008381338400,3.23433837890625,-0.46684688329696655,-0.912219226360321,0.007898896001279354
1783696008391302400,3.244302490234375,-0.4583096206188202,-0.8628359436988831,0.01771356910467148
1783696008401266400,3.254266357421875,-0.44477328658103943,-0.7823102474212646,0.06944307684898376
1783696008411230200,3.264230224609375,-0.42803141474723816,-0.6735727787017822,0.14179326593875885
1783696008421194200,3.2741943359375,-0.4113861322402954,-0.5536437034606934,0.2182116061449051
1783696008431157200,3.2841572265625,-0.3819877505302429,-0.472490519285202,0.2668476104736328
1783696008441121300,3.294121337890625,-0.3544895350933075,-0.440027117729187,0.2916264832019806
1783696008451085300,3.304085205078125,-0.33429858088493347,-0.43936532735824585,0.30573591589927673
1783696008461049300,3.31404931640625,-0.32474184036254883,-0.46580278873443604,0.3172343969345093
1783696008471013400,3.324013427734375,-0.331759512424469,-0.5216231942176819,0.3276996612548828
1783696008480976400,3.333976318359375,-0.3587612807750702,-0.6021939516067505,0.32514703273773193
1783696008490940400,3.3439404296875,-0.39608776569366455,-0.7012326717376709,0.32406482100486755
1783696008500904400,3.353904541015625,-0.44131729006767273,-0.8060073256492615,0.32057422399520874
1783696008510868200,3.3638681640625,-0.48933544754981995,-0.9138184189796448,0.319722980260849
1783696008520832300,3.373832275390625,-0.5430817604064941,-1.0236213207244873,0.3249763250350952
1783696008530795300,3.383795166015625,-0.5891366600990295,-1.1292973756790161,0.33748897910118103
1783696008540759300,3.39375927734375,-0.6287000775337219,-1.2109509706497192,0.3541710078716278
1783696008550723300,3.403723388671875,-0.6656140089035034,-1.2573474645614624,0.37595751881599426
1783696008560687400,3.413687255859375,-0.7002366781234741,-1.2509909868240356,0.4002380669116974
1783696008570651400,3.4236513671875,-0.7249417901039124,-1.208871841430664,0.4145090579986572
1783696008580614400,3.433614501953125,-0.748953104019165,-1.1547377109527588,0.417288601398468
1783696008590578400,3.443578369140625,-0.779484212398529,-1.0942208766937256,0.41396471858024597
1783696008600542200,3.453542236328125,-0.8126839995384216,-1.018197774887085,0.40834519267082214
1783696008610506200,3.46350634765625,-0.8421474099159241,-0.9403088688850403,0.39923208951950073
1783696008620470300,3.47347021484375,-0.8525534272193909,-0.8930201530456543,0.37566232681274414
1783696008630433300,3.483433349609375,-0.835161030292511,-0.882283627986908,0.33790549635887146
1783696008640397300,3.493397216796875,-0.8162152767181396,-0.888927161693573,0.3070567548274994
1783696008650361300,3.503361328125,-0.7925161719322205,-0.9046741724014282,0.3112260103225708
1783696008660325400,3.513325439453125,-0.7759276032447815,-0.9275714755058289,0.3524908721446991
1783696008670289200,3.5232890625,-0.7703796029090881,-0.9431256651878357,0.41701871156692505
1783696008680253200,3.533253173828125,-0.795412540435791,-0.9401312470436096,0.462714821100235
1783696008690216200,3.54321630859375,-0.8479196429252625,-0.9302258491516113,0.4703017771244049
1783696008700180200,3.55318017578125,-0.9037887454032898,-0.919337272644043,0.43913373351097107
1783696008710144300,3.563144287109375,-0.9663383960723877,-0.8753839135169983,0.38670721650123596
1783696008720108300,3.5731083984375,-1.034119725227356,-0.8182839155197144,0.32892006635665894
1783696008730072300,3.583072265625,-1.102841854095459,-0.7440562844276428,0.2633134722709656
1783696008740035300,3.593035400390625,-1.1583482027053833,-0.6953060626983643,0.20236995816230774
1783696008749999400,3.602999267578125,-1.2105259895324707,-0.6655624508857727,0.13935644924640656
1783696008759963400,3.61296337890625,-1.2630627155303955,-0.6551873087882996,0.07446452975273132
1783696008769927200,3.62292724609375,-1.329633355140686,-0.6669619679450989,0.01522569078952074
1783696008779891500,3.632891357421875,-1.4019893407821655,-0.6699798703193665,-0.025347301736474037
1783696008789854200,3.642854248046875,-1.4831217527389526,-0.6598819494247437,-0.03806670010089874
1783696008799818200,3.652818359375,-1.5771409273147583,-0.6463008522987366,-0.022393997758626938
1783696008809782300,3.6627822265625,-1.6736207008361816,-0.635798454284668,0.007311819586902857
1783696008819746600,3.67274658203125,-1.7520776987075806,-0.6025824546813965,0.0327007994055748
1783696008829710600,3.682710693359375,-1.8049216270446777,-0.5288933515548706,0.04783741384744644
1783696008839673300,3.69267333984375,-1.8203905820846558,-0.41973167657852173,0.053696900606155396
1783696008849637400,3.702637451171875,-1.8194667100906372,-0.3263799250125885,0.041197724640369415
1783696008859601400,3.712601318359375,-1.8083088397979736,-0.2965700924396515,0.011397483758628368
1783696008869565400,3.7225654296875,-1.8108279705047607,-0.3412379026412964,-0.021911291405558586
1783696008879529500,3.732529541015625,-1.8421858549118042,-0.44944268465042114,-0.048335444182157516
1783696008889493500,3.742493408203125,-1.8980600833892822,-0.5744490623474121,-0.06976787000894547
1783696008899456300,3.752456298828125,-1.9483293294906616,-0.6811941266059875,-0.07712271809577942
1783696008909420500,3.762420654296875,-1.9881526231765747,-0.7297967076301575,-0.08539865911006927
1783696008919384600,3.772384521484375,-2.0134592056274414,-0.7376676797866821,-0.10179201513528824
1783696008929348400,3.782348388671875,-2.032456874847412,-0.7361633777618408,-0.12897223234176636
1783696008939312400,3.7923125,-2.050769567489624,-0.7592106461524963,-0.16610762476921082
1783696008949275400,3.802275390625,-2.075147867202759,-0.8271681070327759,-0.19655899703502655
1783696008959239400,3.812239501953125,-2.1034679412841797,-0.9110760688781738,-0.2055319845676422
1783696008969203500,3.822203369140625,-2.1327388286590576,-1.000864028930664,-0.198246031999588
1783696008979167500,3.83216748046875,-2.1547865867614746,-1.0989251136779785,-0.1880948543548584
1783696008989131500,3.842131591796875,-2.179098606109619,-1.202380657196045,-0.1694425642490387
1783696008999094500,3.852094482421875,-2.1987428665161133,-1.3191709518432617,-0.1378265917301178
1783696009009058600,3.86205859375,-2.2043862342834473,-1.437219262123108,-0.08598827570676804
1783696009019022600,3.872022705078125,-2.1996095180511475,-1.5446120500564575,-0.002885397057980299
1783696009028986400,3.881986328125,-2.1832847595214844,-1.652703881263733,0.10596591979265213
1783696009038950400,3.891950439453125,-2.1695351600646973,-1.7802586555480957,0.2083175927400589
1783696009048914400,3.90191455078125,-2.153923749923706,-1.927364468574524,0.2843376398086548
1783696009058877400,3.91187744140625,-2.137949228286743,-2.0626697540283203,0.32442009449005127
1783696009068841500,3.921841552734375,-2.1253721714019775,-2.1573994159698486,0.334343284368515
1783696009078805500,3.931805419921875,-2.111778736114502,-2.211906909942627,0.3202383816242218
1783696009088769500,3.94176953125,-2.107207775115967,-2.229102611541748,0.2855913043022156
1783696009098733300,3.9517333984375,-2.115265130996704,-2.2093729972839355,0.23600032925605774
1783696009108696600,3.961696533203125,-2.1324684619903564,-2.1721508502960205,0.17692843079566956
1783696009118660400,3.971660400390625,-2.1599347591400146,-2.12912654876709,0.10970517992973328
1783696009128624400,3.981624267578125,-2.2031874656677246,-2.102116584777832,0.03929702565073967
1783696009138588400,3.99158837890625,-2.2475199699401855,-2.106619119644165,-0.02683778665959835
1783696009148552400,4.001552490234375,-2.2854926586151123,-2.1492512226104736,-0.06477902829647064
1783696009158515500,4.011515380859375,-2.313981771469116,-2.1702616214752197,-0.04924027994275093
1783696009168479500,4.0214794921875,-2.334115982055664,-2.139416217803955,0.010617220774292946
1783696009178443500,4.031443603515625,-2.3351247310638428,-2.070509433746338,0.08702251315116882
1783696009188407300,4.0414072265625,-2.3212647438049316,-1.9772028923034668,0.15972493588924408
1783696009198371300,4.051371337890625,-2.297311544418335,-1.8680191040039062,0.20987838506698608
1783696009208336100,4.061336181640625,-2.2647759914398193,-1.7677150964736938,0.23878276348114014
1783696009218299100,4.071299072265625,-2.236506223678589,-1.7058544158935547,0.23727886378765106
1783696009228263200,4.08126318359375,-2.2187435626983643,-1.6948699951171875,0.21634075045585632
1783696009238227200,4.091227294921875,-2.2145912647247314,-1.6932510137557983,0.19266897439956665
1783696009248191200,4.101191162109375,-2.208087921142578,-1.6665246486663818,0.17649078369140625
1783696009258155000,4.111155029296875,-2.1896097660064697,-1.6137274503707886,0.16779875755310059
1783696009268118000,4.121117919921875,-2.159048557281494,-1.541308045387268,0.16954122483730316
1783696009278082000,4.13108203125,-2.1206295490264893,-1.4734824895858765,0.1718243509531021
1783696009288046000,4.141046142578125,-2.079434394836426,-1.4263643026351929,0.17723512649536133
1783696009298010000,4.151010009765625,-2.0398731231689453,-1.3909528255462646,0.18719562888145447
1783696009307974100,4.16097412109375,-1.9959743022918701,-1.3796403408050537,0.19361512362957
1783696009317937200,4.170937255859375,-1.942658543586731,-1.3771759271621704,0.19311018288135529
1783696009327901200,4.180901123046875,-1.8953666687011719,-1.3644014596939087,0.18659162521362305
1783696009337865200,4.190865234375,-1.8551708459854126,-1.31954824924469,0.16914258897304535
1783696009347829000,4.2008291015625,-1.8132519721984863,-1.241168737411499,0.1348540186882019
1783696009357793000,4.21079296875,-1.7682371139526367,-1.1499568223953247,0.09087884426116943
1783696009367757000,4.220757080078125,-1.728707194328308,-1.066068172454834,0.044130727648735046
1783696009377720000,4.230719970703125,-1.690451741218567,-0.983067512512207,0.01695743016898632
1783696009387684000,4.24068408203125,-1.651117205619812,-0.9106899499893188,0.015520893037319183
1783696009397648100,4.250648193359375,-1.6038521528244019,-0.8693507313728333,0.04015939682722092
1783696009407612200,4.260612060546875,-1.5531933307647705,-0.8733793497085571,0.0937948077917099
1783696009417576200,4.270576171875,-1.5094321966171265,-0.9092630743980408,0.16577711701393127
1783696009427539200,4.280539306640625,-1.464492678642273,-0.9617169499397278,0.23748500645160675
1783696009437503000,4.2905029296875,-1.4167029857635498,-0.9935776591300964,0.29714515805244446
1783696009447467000,4.300467041015625,-1.363944411277771,-0.987849771976471,0.33894044160842896
1783696009457431000,4.31043115234375,-1.3066537380218506,-0.9414327144622803,0.35639825463294983
1783696009467395000,4.32039501953125,-1.251922845840454,-0.8755008578300476,0.34699785709381104
1783696009477359000,4.330359130859375,-1.1912221908569336,-0.8270025253295898,0.31865090131759644
1783696009487322000,4.340322021484375,-1.131604790687561,-0.789712131023407,0.2776091992855072
1783696009497286100,4.3502861328125,-1.0754345655441284,-0.7748268842697144,0.23884209990501404
1783696009507250200,4.360250244140625,-1.0269149541854858,-0.7411822080612183,0.22172175347805023
1783696009517214000,4.3702138671875,-0.9869173765182495,-0.6987617611885071,0.2254304736852646
1783696009527178000,4.380177978515625,-0.9603453874588013,-0.6370642781257629,0.2499767541885376
1783696009537141000,4.39014111328125,-0.9454002380371094,-0.587284505367279,0.277143657207489
1783696009547105000,4.40010498046875,-0.932007372379303,-0.5628491044044495,0.31255799531936646
1783696009557069000,4.410069091796875,-0.9182854294776917,-0.5342782139778137,0.3593188524246216
1783696009567033000,4.420033203125,-0.8982187509536743,-0.5041767358779907,0.40354928374290466
1783696009576997000,4.4299970703125,-0.8661391139030457,-0.4800620973110199,0.4407733380794525
1783696009586960100,4.439960205078125,-0.8369787931442261,-0.45834484696388245,0.4496467113494873
1783696009596924200,4.449924072265625,-0.8126441240310669,-0.4532448947429657,0.41708528995513916
1783696009606888000,4.459887939453125,-0.7885209918022156,-0.4703674614429474,0.3509766757488251
1783696009616852000,4.46985205078125,-0.7714160680770874,-0.508244514465332,0.25420138239860535
1783696009626816000,4.47981591796875,-0.766118586063385,-0.5546793937683105,0.14903973042964935
1783696009636779000,4.489779052734375,-0.7681026458740234,-0.6120526790618896,0.05864964798092842
1783696009646743000,4.499742919921875,-0.7717379927635193,-0.6633630394935608,0.006262627895921469
1783696009656707000,4.50970703125,-0.7686484456062317,-0.703555166721344,-0.0046121240593492985
1783696009666671000,4.519671142578125,-0.7586638927459717,-0.7260295152664185,0.02414730191230774
1783696009676635100,4.52963525390625,-0.7407421469688416,-0.7267088890075684,0.06781008839607239
1783696009686598100,4.53959814453125,-0.7204128503799438,-0.7287619709968567,0.10557402670383453
1783696009696562200,4.549562255859375,-0.6864634156227112,-0.7183429002761841,0.12658371031284332
1783696009706526000,4.55952587890625,-0.6245154738426208,-0.693669319152832,0.12835322320461273
1783696009716490000,4.569489990234375,-0.5403691530227661,-0.6517876386642456,0.12950824201107025
1783696009726454000,4.5794541015625,-0.4462875723838806,-0.5665439963340759,0.14845861494541168
1783696009736418300,4.589418212890625,-0.36028343439102173,-0.4544598162174225,0.17790305614471436
1783696009746381000,4.599381103515625,-0.29213741421699524,-0.3553474545478821,0.19461217522621155
1783696009756345000,4.609344970703125,-0.24936863780021667,-0.28552868962287903,0.1836354285478592
1783696009766309000,4.61930908203125,-0.236746683716774,-0.25269898772239685,0.15742284059524536
1783696009776273000,4.62927294921875,-0.24778415262699127,-0.25420713424682617,0.12762020528316498
1783696009786237200,4.6392373046875,-0.2739628851413727,-0.29225924611091614,0.0892593041062355
1783696009796200000,4.649199951171875,-0.30825135111808777,-0.37991851568222046,0.04682396352291107
1783696009806164000,4.6591640625,-0.34870079159736633,-0.5014047026634216,0.006562264170497656
1783696009816128000,4.6691279296875,-0.4034777581691742,-0.6338008046150208,-0.02546943724155426
1783696009826092300,4.67909228515625,-0.45468053221702576,-0.7339136004447937,-0.04935813322663307
1783696009836056300,4.689056396484375,-0.4961637854576111,-0.7763292193412781,-0.05934498831629753
1783696009846019000,4.69901904296875,-0.5274705290794373,-0.7490254640579224,-0.055279236286878586
1783696009855983000,4.708983154296875,-0.5504229664802551,-0.6735978126525879,-0.04261324182152748
1783696009865947100,4.718947021484375,-0.5648946166038513,-0.5823767781257629,-0.03380679339170456
1783696009875911200,4.7289111328125,-0.5691224336624146,-0.49852925539016724,-0.03495461493730545
1783696009885875200,4.738875244140625,-0.5605894923210144,-0.4205075204372406,-0.04178585857152939
1783696009895839200,4.748839111328125,-0.5425359606742859,-0.35669630765914917,-0.04305219277739525
1783696009905802000,4.758802001953125,-0.522901177406311,-0.32008132338523865,-0.042928945273160934
1783696009915766300,4.768766357421875,-0.5082269310951233,-0.3117227256298065,-0.04777510091662407
1783696009925730300,4.778730224609375,-0.508823037147522,-0.3126886188983917,-0.05169222503900528
1783696009935694300,4.7886943359375,-0.5261748433113098,-0.2917500436306,-0.059071045368909836
1783696009945658000,4.798658203125,-0.5485867261886597,-0.2596680521965027,-0.07389556616544724
1783696009955621000,4.80862109375,-0.5796192288398743,-0.24040301144123077,-0.09776707738637924
1783696009965585200,4.818585205078125,-0.6035221219062805,-0.239027202129364,-0.11804675310850143
1783696009975549200,4.828549072265625,-0.6144818067550659,-0.24485845863819122,-0.1302376240491867
1783696009985513200,4.83851318359375,-0.6178796887397766,-0.26850220561027527,-0.13285577297210693
1783696009995477200,4.848477294921875,-0.6073218584060669,-0.29638180136680603,-0.12837207317352295
1783696010005440300,4.858440185546875,-0.5991308093070984,-0.31266888976097107,-0.11340467631816864
1783696010015404300,4.868404296875,-0.5961872339248657,-0.3455203175544739,-0.1041448712348938
1783696010025368300,4.878368408203125,-0.5962551236152649,-0.3841511011123657,-0.10133546590805054
1783696010035332000,4.88833203125,-0.6009044647216797,-0.4101869761943817,-0.10089871287345886
1783696010045296000,4.898296142578125,-0.6171327233314514,-0.4269516170024872,-0.10445710271596909
1783696010055259100,4.908259033203125,-0.6399669647216797,-0.44189512729644775,-0.10991019010543823
1783696010065223200,4.91822314453125,-0.6659746170043945,-0.4419858753681183,-0.10967665910720825
1783696010075187200,4.928187255859375,-0.6807458400726318,-0.41837483644485474,-0.1008719801902771
1783696010085151200,4.938151123046875,-0.6779766082763672,-0.407914400100708,-0.0876593291759491
1783696010095115300,4.948115234375,-0.6623047590255737,-0.40404990315437317,-0.07864826172590256
1783696010105078300,4.958078369140625,-0.6398288011550903,-0.40084001421928406,-0.07177705317735672
1783696010115042300,4.968042236328125,-0.6207802891731262,-0.4067026972770691,-0.061575014144182205
1783696010125006000,4.978006103515625,-0.6061406135559082,-0.4171820282936096,-0.05547192692756653
1783696010134970000,4.98797021484375,-0.595767617225647,-0.42759791016578674,-0.04352045804262161
1783696010144934100,4.99793408203125,-0.5909978151321411,-0.4412876069545746,-0.025446239858865738
1783696010154898200,5.007898193359375,-0.588994562625885,-0.44097602367401123,-0.0037233682814985514
1783696010164861200,5.017861083984375,-0.588286817073822,-0.44173455238342285,0.02389972284436226
1783696010174825200,5.0278251953125,-0.5868580341339111,-0.45501652359962463,0.058115217834711075
1783696010184789200,5.037789306640625,-0.5732406377792358,-0.45479172468185425,0.09926756471395493
1783696010194753300,5.047753173828125,-0.5564677715301514,-0.4364188313484192,0.1498953253030777
1783696010204716800,5.057716796875,-0.5271060466766357,-0.3984357416629791,0.20018243789672852
1783696010214679800,5.0676796875,-0.496256023645401,-0.33712685108184814,0.25088638067245483
1783696010224643600,5.0776435546875,-0.4514140188694,-0.2431609332561493,0.30576440691947937
1783696010234607600,5.087607666015625,-0.3979420065879822,-0.16130948066711426,0.3446013033390045
1783696010244571600,5.097571533203125,-0.3658842444419861,-0.15531231462955475,0.3509501516819
1783696010254535700,5.10753564453125,-0.3566441237926483,-0.20125450193881989,0.33651235699653625
1783696010264498700,5.117498779296875,-0.36660635471343994,-0.23981790244579315,0.31958842277526855
1783696010274462700,5.127462646484375,-0.37701529264450073,-0.24548403918743134,0.3119824230670929
1783696010284426800,5.1374267578125,-0.39149636030197144,-0.22136326134204865,0.3136579990386963
1783696010294390800,5.147390869140625,-0.40904632210731506,-0.18253757059574127,0.31870362162590027
1783696010304354600,5.1573544921875,-0.42288801074028015,-0.13728702068328857,0.31772005558013916
1783696010314317800,5.16731787109375,-0.4256284236907959,-0.09928690642118454,0.31632137298583984
1783696010324281600,5.177281494140625,-0.4182945787906647,-0.08597642928361893,0.31248146295547485
1783696010334245600,5.18724560546875,-0.41036662459373474,-0.08885104954242706,0.30598413944244385
1783696010344209700,5.197209716796875,-0.4037814438343048,-0.10986124724149704,0.29379022121429443
1783696010354173700,5.207173583984375,-0.4104579985141754,-0.13019049167633057,0.2636203467845917
1783696010364136700,5.21713671875,-0.4189397394657135,-0.1422298401594162,0.21033093333244324
1783696010374100700,5.227100830078125,-0.43145740032196045,-0.1472882479429245,0.1407441347837448
1783696010384064800,5.237064697265625,-0.45230552554130554,-0.15353287756443024,0.06569943577051163
1783696010394028500,5.247028564453125,-0.47776132822036743,-0.15381570160388947,0.006643039174377918
1783696010403992600,5.25699267578125,-0.4981372058391571,-0.136863574385643,-0.02495516836643219
1783696010413955600,5.26695556640625,-0.5024523735046387,-0.10427394509315491,-0.02724229171872139
1783696010423919600,5.276919677734375,-0.49463245272636414,-0.058534134179353714,0.005614066496491432
1783696010433883600,5.286883544921875,-0.4788553714752197,-0.006206214427947998,0.07746615260839462
1783696010443847700,5.29684765625,-0.4578438997268677,0.04198050498962402,0.16148041188716888
1783696010453811700,5.306811767578125,-0.4282228946685791,0.0625654086470604,0.23799356818199158
1783696010463774700,5.316774658203125,-0.39830130338668823,0.04212987795472145,0.29521384835243225
1783696010473738800,5.32673876953125,-0.3775307834148407,-0.010138919577002525,0.32741492986679077
1783696010483702800,5.336702880859375,-0.3726692497730255,-0.08382674306631088,0.3294643759727478
1783696010493666600,5.34666650390625,-0.3861696124076843,-0.16790220141410828,0.2989216446876526
1783696010503630600,5.356630615234375,-0.4165160059928894,-0.24422089755535126,0.24229475855827332
1783696010513593600,5.366593505859375,-0.4586906135082245,-0.2887111306190491,0.1628422886133194
1783696010523557600,5.3765576171875,-0.5140286684036255,-0.30247271060943604,0.06525693833827972
1783696010533521700,5.386521728515625,-0.5641704201698303,-0.2949948012828827,-0.040750980377197266
1783696010543485700,5.396485595703125,-0.6011567115783691,-0.24851347506046295,-0.14131878316402435
1783696010553449700,5.40644970703125,-0.6201000809669495,-0.17798790335655212,-0.22053425014019012
1783696010563413500,5.41641357421875,-0.6176713109016418,-0.11040154099464417,-0.2729717791080475
1783696010573376800,5.426376708984375,-0.5996193289756775,-0.05037495121359825,-0.28921574354171753
1783696010583340500,5.436340576171875,-0.5698289275169373,-0.012382145039737225,-0.2822283208370209
1783696010593304600,5.4463046875,-0.5232081413269043,0.004815750289708376,-0.27135729789733887
1783696010603268600,5.4562685546875,-0.469211220741272,0.004362480249255896,-0.2555365264415741
1783696010613231600,5.466231689453125,-0.41210582852363586,-0.012592002749443054,-0.23277956247329712
1783696010623195600,5.476195556640625,-0.37025564908981323,-0.05026952177286148,-0.1960604190826416
1783696010633159700,5.48615966796875,-0.34099602699279785,-0.08841691166162491,-0.14966842532157898
1783696010643123700,5.496123779296875,-0.3188590109348297,-0.1179170161485672,-0.09415020793676376
1783696010653087500,5.50608740234375,-0.3010914623737335,-0.13604994118213654,-0.03410311043262482
1783696010663051500,5.516051513671875,-0.28523072600364685,-0.14233790338039398,0.01536674052476883
1783696010673014500,5.5260146484375,-0.2692866325378418,-0.14709165692329407,0.05135110765695572
1783696010682978600,5.535978515625,-0.25178253650665283,-0.15951085090637207,0.06876769661903381
1783696010692942600,5.545942626953125,-0.2419392168521881,-0.17805443704128265,0.06885744631290436
1783696010702906600,5.55590673828125,-0.2383745312690735,-0.1933121681213379,0.06332064419984818
1783696010712870700,5.56587060546875,-0.24221773445606232,-0.19718679785728455,0.05823933705687523
1783696010722833700,5.575833740234375,-0.25213977694511414,-0.19262412190437317,0.05406423658132553
1783696010732797700,5.585797607421875,-0.26860663294792175,-0.181150421500206,0.04198014363646507
1783696010742761700,5.59576171875,-0.2950374186038971,-0.16331246495246887,0.01989852264523506
1783696010752725500,5.6057255859375,-0.31958481669425964,-0.1296871304512024,-0.010474829003214836
1783696010762688500,5.6156884765625,-0.3401145935058594,-0.08147994428873062,-0.03838399425148964
1783696010772652500,5.625652587890625,-0.3535265326499939,-0.028001800179481506,-0.05986185744404793
1783696010782616600,5.635616455078125,-0.3550058603286743,0.012785534374415874,-0.06939420104026794
1783696010792580600,5.64558056640625,-0.34151214361190796,0.0477544367313385,-0.06018313020467758
1783696010802544600,5.655544677734375,-0.3254326581954956,0.055246710777282715,-0.035994354635477066
1783696010812507600,5.665507568359375,-0.3090457022190094,0.04822608828544617,-0.004208728671073914
1783696010822471700,5.6754716796875,-0.29138097167015076,0.03374195471405983,0.03186804801225662
1783696010832435700,5.685435791015625,-0.2638814151287079,0.030385036021471024,0.060167863965034485
1783696010842399500,5.6953994140625,-0.22695913910865784,0.022585472092032433,0.08522973954677582
1783696010852363500,5.705363525390625,-0.188991516828537,0.021324465051293373,0.09883236885070801
1783696010862327600,5.71532763671875,-0.15846170485019684,0.015625329688191414,0.10853544622659683
1783696010872290600,5.72529052734375,-0.12536899745464325,0.0066328998655080795,0.10564964264631271
1783696010882254600,5.735254638671875,-0.09449098259210587,0.0035931160673499107,0.1070442721247673
1783696010892218600,5.745218505859375,-0.06979069858789444,-0.014170967973768711,0.11316448450088501
1783696010902182700,5.7551826171875,-0.05496121942996979,-0.04232664033770561,0.13141845166683197
1783696010912145700,5.765145751953125,-0.04371628910303116,-0.0694221705198288,0.15897604823112488
1783696010922109700,5.775109619140625,-0.03290534391999245,-0.082542285323143,0.19365493953227997
1783696010932073500,5.785073486328125,-0.026388326659798622,-0.09999824315309525,0.21375088393688202
1783696010942037500,5.79503759765625,-0.021401744335889816,-0.10817892104387283,0.23125101625919342
1783696010952001500,5.80500146484375,-0.016753196716308594,-0.09252486377954483,0.25130409002304077
1783696010961964500,5.814964599609375,-0.00998416356742382,-0.05595778673887253,0.2644720673561096
1783696010971928600,5.824928466796875,0.0020831520669162273,-0.0007792208343744278,0.2662169635295868
1783696010981892600,5.834892578125,0.023726392537355423,0.0613110214471817,0.2523013949394226
1783696010991856600,5.844856689453125,0.04184148088097572,0.05932164192199707,0.20759837329387665
1783696011001820700,5.854820556640625,0.043503254652023315,0.010454506613314152,0.14250396192073822
1783696011011784400,5.864784423828125,0.040797214955091476,-0.034199513494968414,0.07659364491701126
1783696011021747700,5.874747802734375,0.035362694412469864,-0.05638709291815758,0.026770219206809998
1783696011031711500,5.88471142578125,0.003338717855513096,-0.058351971209049225,-0.013930605724453926
1783696011041675500,5.894675537109375,-0.04569099470973015,-0.07044783979654312,-0.05641057714819908
1783696011051639600,5.9046396484375,-0.10458413511514664,-0.09465331584215164,-0.09750847518444061
1783696011061602600,5.9146025390625,-0.16721726953983307,-0.12209580838680267,-0.12147027999162674
1783696011071566600,5.924566650390625,-0.21380899846553802,-0.12157595902681351,-0.11983057111501694
1783696011081530600,5.934530517578125,-0.2273927628993988,-0.11858228594064713,-0.09155508875846863
1783696011091494700,5.94449462890625,-0.21392382681369781,-0.10354528576135635,-0.041541729122400284
1783696011101458400,5.95445849609375,-0.18075065314769745,-0.07081165909767151,0.014548434875905514
1783696011111421700,5.964421630859375,-0.12747570872306824,-0.018024345859885216,0.06662042438983917
1783696011121385500,5.974385498046875,-0.06965631991624832,0.03875086084008217,0.10379490256309509
1783696011131349500,5.984349609375,-0.017019476741552353,0.07145048677921295,0.12362053990364075
1783696011141313500,5.9943134765625,0.017466632649302483,0.07206806540489197,0.12480468302965164
1783696011151277600,6.004277587890625,0.030654605478048325,0.03622111678123474,0.1147906631231308
1783696011161240600,6.014240478515625,0.024897273629903793,-0.024841949343681335,0.09624410420656204
1783696011171204600,6.02420458984375,0.006475389003753662,-0.07948388904333115,0.06937387585639954
1783696011181168600,6.034168701171875,-0.012355675920844078,-0.10457228124141693,0.04334075003862381
1783696011191132700,6.044132568359375,-0.03263644501566887,-0.09713726490736008,0.020615462213754654
1783696011201096400,6.054096435546875,-0.040385901927948,-0.06887602806091309,0.007185687776654959
1783696011211059200,6.06405908203125,-0.03726600855588913,-0.042152807116508484,0.0022993197198957205
1783696011221023200,6.074023193359375,-0.01318372506648302,-0.004010985139757395,0.017593171447515488
1783696011230987300,6.0839873046875,0.016017302870750427,0.03936471790075302,0.049841124564409256
1783696011240951300,6.093951416015625,0.05041560158133507,0.06602898240089417,0.09276536107063293
1783696011250915300,6.103915283203125,0.07635638862848282,0.04434472322463989,0.13693228363990784
1783696011260878300,6.11387841796875,0.08881941437721252,-0.030501730740070343,0.17663230001926422
1783696011270842400,6.12384228515625,0.09125034511089325,-0.10583136975765228,0.21686388552188873
1783696011280806400,6.133806396484375,0.08372219651937485,-0.1597241461277008,0.2502042353153229
1783696011290770200,6.143770263671875,0.07578437775373459,-0.18227286636829376,0.2658205032348633
1783696011300734200,6.153734130859375,0.07261449843645096,-0.18175861239433289,0.2615775167942047
1783696011310697200,6.163697265625,0.0722150206565857,-0.15318235754966736,0.23776324093341827
1783696011320661200,6.1736611328125,0.07170194387435913,-0.11614608764648438,0.2008443921804428
1783696011330625300,6.183625244140625,0.0759025514125824,-0.08812111616134644,0.1460876762866974
1783696011340589300,6.19358935546875,0.07980940490961075,-0.08461932092905045,0.0886925533413887
1783696011350553300,6.20355322265625,0.08236044645309448,-0.09068014472723007,0.04037721827626228
1783696011360516400,6.213516357421875,0.07678481936454773,-0.09536726772785187,-0.008301704190671444
1783696011370480400,6.22348046875,0.06584668159484863,-0.1155705451965332,-0.04538595676422119
1783696011380444400,6.2334443359375,0.04656041041016579,-0.11714526265859604,-0.07658224552869797
1783696011390408200,6.243408203125,0.019303224980831146,-0.08135583996772766,-0.08235970884561539
1783696011400372200,6.253372314453125,0.0014671600656583905,-0.03543948754668236,-0.07329295575618744
1783696011410335200,6.263335205078125,-0.015033253468573093,0.016975516453385353,-0.05500875785946846
1783696011420299300,6.27329931640625,-0.030113212764263153,0.07093673944473267,-0.03727474436163902
1783696011430263300,6.28326318359375,-0.028797611594200134,0.11457502841949463,-0.02619119919836521
1783696011440227300,6.293227294921875,-0.013759460300207138,0.14466585218906403,-0.028943296521902084
1783696011450191400,6.30319140625,0.010606599040329456,0.16186295449733734,-0.03910006210207939
1783696011460154400,6.313154296875,0.029009724035859108,0.1654731035232544,-0.05801927298307419
1783696011470118400,6.323118408203125,0.04513915628194809,0.15749533474445343,-0.08317070454359055
1783696011480082200,6.333082275390625,0.05651222914457321,0.14205487072467804,-0.10504869371652603
1783696011490046200,6.343046142578125,0.053032275289297104,0.11186449229717255,-0.11852215975522995
1783696011500010200,6.35301025390625,0.03451455011963844,0.05844571068882942,-0.12405986338853836
1783696011509973200,6.36297314453125,0.008755393326282501,-0.007736507803201675,-0.12285745143890381
1783696011519937300,6.372937255859375,-0.025399265810847282,-0.08543873578310013,-0.11921919137239456
1783696011529901300,6.3829013671875,-0.05653135105967522,-0.15588386356830597,-0.11805246025323868
1783696011539865300,6.392865234375,-0.07995738834142685,-0.22522860765457153,-0.1169259175658226
1783696011549829000,6.4028291015625,-0.0938524380326271,-0.27814826369285583,-0.10496406257152557
1783696011559792400,6.41279248046875,-0.10630826652050018,-0.3064174950122833,-0.08011271059513092
1783696011569756200,6.422756103515625,-0.11215124279260635,-0.2983558475971222,-0.052520763128995895
1783696011579720200,6.43272021484375,-0.12194600701332092,-0.2758401036262512,-0.03891785442829132
1783696011589684200,6.442684326171875,-0.12419957667589188,-0.23122762143611908,-0.02725294418632984
1783696011599648300,6.452648193359375,-0.14391571283340454,-0.17930933833122253,-0.024638449773192406
1783696011609611300,6.462611328125,-0.1658409833908081,-0.13808254897594452,-0.03116266056895256
1783696011619575300,6.4725751953125,-0.18582557141780853,-0.1093062162399292,-0.03700675442814827
1783696011629539300,6.482539306640625,-0.21578213572502136,-0.1032765582203865,-0.039443813264369965
1783696011639503400,6.49250341796875,-0.2384732961654663,-0.11244606226682663,-0.031080815941095352
1783696011649467100,6.502467041015625,-0.25591379404067993,-0.12696854770183563,-0.009393364191055298
1783696011659430100,6.51243017578125,-0.2684749662876129,-0.1540585607290268,0.019250746816396713
1783696011669394200,6.522394287109375,-0.2731245756149292,-0.16742096841335297,0.051453426480293274
1783696011679358200,6.532358154296875,-0.2712246775627136,-0.15829241275787354,0.07723632454872131
1783696011689322200,6.542322265625,-0.2623195946216583,-0.14584533870220184,0.07672926038503647
1783696011699286300,6.552286376953125,-0.2397012561559677,-0.14561447501182556,0.04994562268257141
1783696011709249300,6.562249267578125,-0.21944497525691986,-0.1373799741268158,0.019706761464476585
1783696011719213300,6.57221337890625,-0.20830528438091278,-0.11697908490896225,-0.007569705136120319
1783696011729177300,6.58217724609375,-0.1982249617576599,-0.09669671207666397,-0.01326141320168972
1783696011739141000,6.59214111328125,-0.19390423595905304,-0.07688231766223907,0.007566298358142376
1783696011749105200,6.602105224609375,-0.19253909587860107,-0.06574071198701859,0.046103838831186295
1783696011759068200,6.612068115234375,-0.19482576847076416,-0.06558195501565933,0.09639719128608704
1783696011769032200,6.6220322265625,-0.20359022915363312,-0.08799378573894501,0.13519306480884552
1783696011778996200,6.631996337890625,-0.2187497764825821,-0.1499369591474533,0.14471226930618286
1783696011788960300,6.641960205078125,-0.23992536962032318,-0.24061812460422516,0.11372293531894684
1783696011798924300,6.65192431640625,-0.2660384476184845,-0.3117637634277344,0.05893733352422714
1783696011808887300,6.66188720703125,-0.29038748145103455,-0.3294884264469147,-0.007393751293420792
1783696011818851300,6.671851318359375,-0.30943018198013306,-0.30956581234931946,-0.07656383514404297
1783696011828815000,6.681815185546875,-0.3222123086452484,-0.26368993520736694,-0.1479027271270752
1783696011838779100,6.691779052734375,-0.34269922971725464,-0.19569218158721924,-0.21261383593082428
1783696011848743200,6.7017431640625,-0.35441073775291443,-0.11378320306539536,-0.26417022943496704
1783696011858706200,6.7117060546875,-0.3619408905506134,-0.02863907441496849,-0.29391276836395264
1783696011868670200,6.721670166015625,-0.3616625964641571,0.040472887456417084,-0.299866259098053
1783696011878634200,6.73163427734375,-0.3602321445941925,0.05979359894990921,-0.27982357144355774
1783696011888598300,6.741598388671875,-0.36535659432411194,0.02818453684449196,-0.23964154720306396
1783696011898562300,6.751562255859375,-0.37912553548812866,-0.04292188957333565,-0.18269981443881989
1783696011908525300,6.761525390625,-0.3971319794654846,-0.1499793827533722,-0.1241864338517189
1783696011918489300,6.7714892578125,-0.41485631465911865,-0.26028192043304443,-0.07342887669801712
1783696011928453000,6.781453125,-0.43184542655944824,-0.3395756781101227,-0.03361169248819351
1783696011938417200,6.791417236328125,-0.4441772699356079,-0.3860377073287964,-0.007947282865643501
1783696011948381200,6.801381103515625,-0.45146793127059937,-0.4210689067840576,0.009457806125283241
1783696011958344200,6.81134423828125,-0.45193347334861755,-0.4356331527233124,0.021201519295573235
1783696011968308200,6.82130810546875,-0.4503486454486847,-0.43099313974380493,0.03008236177265644
1783696011978272300,6.831272216796875,-0.4580531716346741,-0.4165726602077484,0.030139049515128136
1783696011988236300,6.841236328125,-0.46785786747932434,-0.4017234146595001,0.02528517320752144
1783696011998200000,6.851199951171875,-0.48295024037361145,-0.39110225439071655,0.025892669335007668
1783696012008163300,6.861163330078125,-0.511431097984314,-0.38381505012512207,0.03656076267361641
1783696012018127000,6.871127197265625,-0.5460293889045715,-0.36409568786621094,0.06422969698905945
1783696012028091100,6.881091064453125,-0.5840974450111389,-0.3453960120677948,0.09837568551301956
1783696012038055200,6.89105517578125,-0.6199823617935181,-0.33283761143684387,0.12697561085224152
1783696012048019200,6.901019287109375,-0.6539696455001831,-0.3451709747314453,0.12854181230068207
1783696012057983200,6.910983154296875,-0.6922786831855774,-0.36811110377311707,0.1046719178557396
1783696012067946200,6.9209462890625,-0.7291456460952759,-0.3862461745738983,0.05570223927497864
1783696012077910300,6.93091015625,-0.7611696720123291,-0.3920128047466278,-0.006324735935777426
1783696012087874000,6.9408740234375,-0.7917052507400513,-0.39012593030929565,-0.07354292273521423
1783696012097838000,6.950838134765625,-0.8196364641189575,-0.3845207393169403,-0.1430048793554306
1783696012107802000,6.960802001953125,-0.8418163061141968,-0.3885764479637146,-0.20679929852485657
1783696012117765000,6.97076513671875,-0.8664122223854065,-0.4004994034767151,-0.27087393403053284
1783696012127729200,6.980729248046875,-0.891707181930542,-0.40452688932418823,-0.3299497961997986
1783696012137693200,6.990693115234375,-0.9146194458007812,-0.4183178246021271,-0.3895345628261566
1783696012147657200,7.0006572265625,-0.9331315755844116,-0.4474320113658905,-0.4417865574359894
1783696012157621200,7.010621337890625,-0.9426358938217163,-0.4698627293109894,-0.4864090085029602
1783696012167584300,7.020584228515625,-0.9421269297599792,-0.47398877143859863,-0.5130528807640076
1783696012177548300,7.03054833984375,-0.9326776266098022,-0.461844801902771,-0.5098166465759277
1783696012187512000,7.040511962890625,-0.9223954677581787,-0.4339463412761688,-0.48559972643852234
1783696012197476000,7.05047607421875,-0.9122629761695862,-0.40173351764678955,-0.4479139447212219
1783696012207440100,7.060440185546875,-0.9031006097793579,-0.3798295557498932,-0.4086320400238037
1783696012217403100,7.070403076171875,-0.8934166431427002,-0.3737524747848511,-0.37157419323921204
1783696012227367200,7.0803671875,-0.8830484747886658,-0.3759663701057434,-0.33693259954452515
1783696012237331200,7.090331298828125,-0.8718640804290771,-0.3927248418331146,-0.30648544430732727
1783696012247295200,7.100295166015625,-0.8656607866287231,-0.4407227337360382,-0.28330209851264954
1783696012257259000,7.110259033203125,-0.8667736053466797,-0.511980414390564,-0.26458045840263367
1783696012267222300,7.12022216796875,-0.8717550039291382,-0.5762251615524292,-0.2475719153881073
1783696012277186000,7.13018603515625,-0.8848817348480225,-0.6141994595527649,-0.2405148595571518
1783696012287150000,7.140150146484375,-0.8938581943511963,-0.6262356042861938,-0.2445490062236786
1783696012297114000,7.150114013671875,-0.9021010994911194,-0.6283810138702393,-0.2695907652378082
1783696012307078100,7.160078125,-0.9073224663734436,-0.6101024150848389,-0.29796621203422546
1783696012317042200,7.170042236328125,-0.9052518606185913,-0.5596140027046204,-0.313063383102417
1783696012327005200,7.180005126953125,-0.8879517316818237,-0.4776751697063446,-0.30202963948249817
1783696012336969200,7.18996923828125,-0.8591210842132568,-0.3869716227054596,-0.27348002791404724
1783696012346933200,7.199933349609375,-0.8232342004776001,-0.31243428587913513,-0.24134767055511475
1783696012356897000,7.20989697265625,-0.7794026136398315,-0.27306076884269714,-0.21593402326107025
1783696012366861000,7.219861083984375,-0.727140486240387,-0.2745036780834198,-0.1932835727930069
1783696012376824000,7.229823974609375,-0.6826881766319275,-0.28485482931137085,-0.16409946978092194
1783696012386788000,7.2397880859375,-0.6504343748092651,-0.30282291769981384,-0.13729581236839294
1783696012396752100,7.249752197265625,-0.6305830478668213,-0.32939332723617554,-0.11350289732217789
1783696012406716200,7.259716064453125,-0.6181668639183044,-0.36353424191474915,-0.1011146754026413
1783696012416680200,7.26968017578125,-0.6081972718238831,-0.4126063287258148,-0.08253160119056702
1783696012426643200,7.279643310546875,-0.597295880317688,-0.4470449984073639,-0.0487440787255764
1783696012436607200,7.289607177734375,-0.5809480547904968,-0.44203731417655945,-0.004658729303628206
1783696012446571000,7.299571044921875,-0.5621581077575684,-0.43860742449760437,0.03487696126103401
1783696012456535000,7.30953515625,-0.545271098613739,-0.41357240080833435,0.05875152722001076
1783696012466499300,7.319499267578125,-0.5256432890892029,-0.39266180992126465,0.06656843423843384
1783696012476462000,7.329462158203125,-0.5149164795875549,-0.39693471789360046,0.06447898596525192
1783696012486426000,7.339426025390625,-0.5103185176849365,-0.40582728385925293,0.06210584565997124
1783696012496390100,7.34939013671875,-0.5038567185401917,-0.4117856025695801,0.06467877328395844
1783696012506354200,7.359354248046875,-0.49660149216651917,-0.4089275002479553,0.08886107802391052
1783696012516318200,7.369318115234375,-0.4954148828983307,-0.3936271071434021,0.12755176424980164
1783696012526281200,7.37928125,-0.5036930441856384,-0.37712937593460083,0.17283456027507782
1783696012536245000,7.389244873046875,-0.5282636880874634,-0.33210495114326477,0.23012392222881317
1783696012546209000,7.399208984375,-0.5490733981132507,-0.25619634985923767,0.2918426990509033
1783696012556173300,7.40917333984375,-0.5640105605125427,-0.19351214170455933,0.32747262716293335
1783696012566137300,7.419137451171875,-0.593439519405365,-0.20300817489624023,0.30998364090919495
1783696012576101400,7.429101318359375,-0.6325016617774963,-0.27178242802619934,0.24980716407299042
1783696012586064100,7.439064208984375,-0.6709468364715576,-0.3419487476348877,0.17727836966514587
1783696012596028400,7.4490283203125,-0.7138829231262207,-0.41048145294189453,0.11072003841400146
1783696012605992200,7.4589921875,-0.7749380469322205,-0.4946959316730499,0.05360987409949303
1783696012615956200,7.468956298828125,-0.8422399163246155,-0.5667281150817871,0.017298558726906776
1783696012625920300,7.478920166015625,-0.9044089913368225,-0.5979107618331909,-0.003975569270551205
1783696012635883300,7.48888330078125,-0.9590650200843811,-0.552243709564209,-0.012011924758553505
1783696012645847300,7.498847412109375,-0.9978411793708801,-0.4581550061702728,-0.001741177635267377
1783696012655811300,7.508811279296875,-1.023927092552185,-0.37539994716644287,0.013328727334737778
1783696012665775400,7.518775390625,-1.0284978151321411,-0.3245474100112915,0.03853847458958626
1783696012675739400,7.528739501953125,-1.0119823217391968,-0.30130332708358765,0.08017263561487198
1783696012685702400,7.538702392578125,-0.9875092506408691,-0.2763513922691345,0.13947750627994537
1783696012695666400,7.54866650390625,-0.9437822103500366,-0.22527863085269928,0.19451382756233215
1783696012705630200,7.558630126953125,-0.8921377062797546,-0.15443001687526703,0.23501119017601013
1783696012715594200,7.56859423828125,-0.8391400575637817,-0.07900931686162949,0.2515476644039154
1783696012725558300,7.578558349609375,-0.77950519323349,-0.003004029393196106,0.2505492568016052
1783696012735521300,7.588521240234375,-0.7179650664329529,0.062138501554727554,0.24097223579883575
1783696012745485300,7.5984853515625,-0.6502842903137207,0.11551516503095627,0.23349061608314514
1783696012755449300,7.608449462890625,-0.5695363879203796,0.1517118215560913,0.23061591386795044
1783696012765413400,7.618413330078125,-0.4961189031600952,0.1527501940727234,0.23879101872444153
1783696012775377200,7.628377197265625,-0.43419912457466125,0.0881759524345398,0.24917210638523102
1783696012785341200,7.638341064453125,-0.3921741545200348,-0.03698595240712166,0.26786428689956665
1783696012795304200,7.64830419921875,-0.37114059925079346,-0.18989934027194977,0.2847170829772949
1783696012805268200,7.658268310546875,-0.3653351962566376,-0.3365801274776459,0.2874465584754944
1783696012815232300,7.668232177734375,-0.35612115263938904,-0.4538334906101227,0.27259641885757446
1783696012825196300,7.6781962890625,-0.3491702973842621,-0.5577290058135986,0.23894017934799194
1783696012835160300,7.688160400390625,-0.34217676520347595,-0.6405632495880127,0.1883828192949295
1783696012845123300,7.698123291015625,-0.33611008524894714,-0.7034226059913635,0.12812533974647522
1783696012855087400,7.70808740234375,-0.3304968476295471,-0.7516922950744629,0.06764108687639236
1783696012865051400,7.718051513671875,-0.33405351638793945,-0.7792887687683105,0.0057641370221972466
1783696012875015200,7.72801513671875,-0.35205721855163574,-0.7825461030006409,-0.05869597569108009
1783696012884979200,7.737979248046875,-0.3761175572872162,-0.7351173758506775,-0.1216893196105957
1783696012894942200,7.747942138671875,-0.39384594559669495,-0.6468756794929504,-0.1763530969619751
1783696012904906200,7.75790625,-0.40302371978759766,-0.5418040752410889,-0.1989489495754242
1783696012914870300,7.767870361328125,-0.40108802914619446,-0.41415926814079285,-0.18266306817531586
1783696012924834300,7.777834228515625,-0.384015828371048,-0.2744447588920593,-0.12366633117198944
1783696012934798300,7.78779833984375,-0.35728782415390015,-0.1263565719127655,-0.03837365284562111
1783696012944761300,7.79776123046875,-0.3228299915790558,-0.0006346041336655617,0.04379738122224808
1783696012954725400,7.807725341796875,-0.27108296751976013,0.070627860724926,0.09877956658601761
1783696012964689200,7.817689208984375,-0.21146754920482635,0.09572602808475494,0.11980655789375305
1783696012974653200,7.827653076171875,-0.15817846357822418,0.09878996014595032,0.11726943403482437
1783696012984617200,7.8376171875,-0.12616780400276184,0.077425017952919,0.09368900209665298
1783696012994580200,7.847580322265625,-0.1166115403175354,0.0198467206209898,0.06331183761358261
1783696013004544300,7.857544189453125,-0.12229925394058228,-0.06161751225590706,0.029569318518042564
1783696013014508300,7.86750830078125,-0.14394059777259827,-0.16699931025505066,-0.008496698923408985
1783696013024472300,7.877472412109375,-0.17185957729816437,-0.26272183656692505,-0.05062790960073471
1783696013034436400,7.887436279296875,-0.1977749764919281,-0.34169474244117737,-0.09130192548036575
1783696013044400000,7.897400146484375,-0.22269603610038757,-0.38825345039367676,-0.12694542109966278
1783696013054363100,7.907363037109375,-0.24437889456748962,-0.4252527058124542,-0.1554708182811737
1783696013064327200,7.9173271484375,-0.26709941029548645,-0.45269498229026794,-0.16476204991340637
1783696013074291200,7.927291259765625,-0.29436153173446655,-0.45520609617233276,-0.16086949408054352
1783696013084255200,7.937255126953125,-0.3264304995536804,-0.4352715313434601,-0.144151508808136
1783696013094219300,7.94721923828125,-0.35977280139923096,-0.3814184367656708,-0.1232418343424797
1783696013104182300,7.957182373046875,-0.3965049684047699,-0.32566037774086,-0.10305000841617584
1783696013114146300,7.967146240234375,-0.43636080622673035,-0.2815714180469513,-0.08700662851333618
1783696013124110300,7.9771103515625,-0.4712151885032654,-0.2572524845600128,-0.07189558446407318
1783696013134074000,7.98707421875,-0.500410258769989,-0.24963189661502838,-0.05275570601224899
1783696013144038100,7.9970380859375,-0.5222987532615662,-0.251834899187088,-0.026947811245918274
1783696013154001200,8.007001220703126,-0.5376375913619995,-0.2543528378009796,-0.0023202362935990095
1783696013163965200,8.016965087890625,-0.5510644912719727,-0.26360252499580383,0.020745135843753815
1783696013173929200,8.02692919921875,-0.5582791566848755,-0.2633059024810791,0.04428869113326073
1783696013183893200,8.036893310546875,-0.5630150437355042,-0.2604334056377411,0.061190444976091385
1783696013193857300,8.046857177734376,-0.5667039752006531,-0.2647375762462616,0.07017985731363297
1783696013203820300,8.0568203125,-0.5670853853225708,-0.2658827304840088,0.07466408610343933
1783696013213784600,8.06678466796875,-0.5691658854484558,-0.28266090154647827,0.07472456246614456
1783696013223748400,8.076748291015624,-0.5686721205711365,-0.3064993917942047,0.07422388345003128
1783696013233712400,8.08671240234375,-0.5707547664642334,-0.3074677586555481,0.06432531028985977
1783696013243676400,8.096676513671875,-0.5729342699050903,-0.28712064027786255,0.05127635598182678
1783696013253639400,8.106639404296875,-0.5781958103179932,-0.26485028862953186,0.03268563002347946
1783696013263603500,8.116603515625,-0.5767166614532471,-0.2403057962656021,0.016049396246671677
1783696013273567500,8.1265673828125,-0.574801504611969,-0.19953401386737823,0.011222689412534237
1783696013283531500,8.136531494140625,-0.5605615377426147,-0.16241008043289185,0.016164183616638184
1783696013293495300,8.146495361328125,-0.5417972207069397,-0.1618487685918808,0.03768770024180412
1783696013303459300,8.156459228515626,-0.5307397842407227,-0.18538898229599,0.06845519691705704
1783696013313422300,8.16642236328125,-0.5446017980575562,-0.2250053733587265,0.1173749715089798
1783696013323386400,8.176386474609375,-0.5723519325256348,-0.25663307309150696,0.1734614074230194
1783696013333350400,8.186350341796874,-0.6095550060272217,-0.26659324765205383,0.23335881531238556
1783696013343314400,8.196314453125,-0.6477439403533936,-0.2905616760253906,0.2735235095024109
1783696013353278500,8.206278564453125,-0.6744928359985352,-0.2951301038265228,0.29571232199668884
1783696013363241500,8.216241455078125,-0.6892898678779602,-0.29210394620895386,0.2966545522212982
1783696013373205500,8.22620556640625,-0.6933875679969788,-0.25637784600257874,0.2804485857486725
1783696013383169500,8.23616943359375,-0.693969190120697,-0.20515143871307373,0.26059603691101074
1783696013393133300,8.24613330078125,-0.7017520070075989,-0.17361435294151306,0.2330406755208969
1783696013403097300,8.256097412109375,-0.7140531539916992,-0.16287755966186523,0.20621386170387268
1783696013413060400,8.266060302734376,-0.7315640449523926,-0.15453550219535828,0.18740293383598328
1783696013423024400,8.2760244140625,-0.7498821020126343,-0.14408445358276367,0.1750812828540802
1783696013432988400,8.285988525390625,-0.7764999866485596,-0.1572473645210266,0.1695336103439331
1783696013442952400,8.295952392578124,-0.8073008060455322,-0.18005041778087616,0.16050788760185242
1783696013452916500,8.30591650390625,-0.8454449772834778,-0.18774372339248657,0.14966289699077606
1783696013462880300,8.31588037109375,-0.8779613375663757,-0.19772844016551971,0.12407338619232178
1783696013472843500,8.325843505859375,-0.9032843112945557,-0.21907398104667664,0.09693200886249542
1783696013482807300,8.335807373046874,-0.9291039705276489,-0.2505645155906677,0.08100497722625732
1783696013492771300,8.345771240234376,-0.9551441073417664,-0.28194350004196167,0.08243392407894135
1783696013502735400,8.3557353515625,-0.9786810874938965,-0.33014005422592163,0.09363917261362076
1783696013512699400,8.365699462890625,-0.9947835803031921,-0.39461493492126465,0.11622987687587738
1783696013522662400,8.375662353515626,-1.0098190307617188,-0.45756301283836365,0.14813987910747528
1783696013532626400,8.38562646484375,-1.0275816917419434,-0.5067781209945679,0.18417052924633026
1783696013542590500,8.395590576171875,-1.0478230714797974,-0.5452349781990051,0.2250758856534958
1783696013552554500,8.405554443359375,-1.071333408355713,-0.564449667930603,0.26663997769355774
1783696013562518300,8.415518310546876,-1.09762704372406,-0.5500888824462891,0.3150610625743866
1783696013572481300,8.425481201171875,-1.122925877571106,-0.5203190445899963,0.3714425265789032
1783696013582445300,8.4354453125,-1.1456764936447144,-0.5097004771232605,0.4290861189365387
1783696013592409300,8.445409423828124,-1.1521836519241333,-0.5011098980903625,0.4879971742630005
1783696013602373400,8.455373291015626,-1.138440728187561,-0.4679650366306305,0.5438417792320251
1783696013612337400,8.46533740234375,-1.1169050931930542,-0.44405943155288696,0.5743092894554138
1783696013622300400,8.475300537109375,-1.0932316780090332,-0.44148069620132446,0.5690982341766357
1783696013632264400,8.485264404296874,-1.0750231742858887,-0.4574715793132782,0.5120884776115417
1783696013642228500,8.495228515625,-1.0603262186050415,-0.4964306950569153,0.408294677734375
1783696013652192300,8.505192138671875,-1.0555691719055176,-0.5453348755836487,0.26459741592407227
1783696013662156300,8.51515625,-1.0710605382919312,-0.604118287563324,0.09949661046266556
1783696013672119300,8.525119384765626,-1.0971975326538086,-0.6509391069412231,-0.04546188563108444
1783696013682083300,8.535083251953125,-1.1306196451187134,-0.6763381958007812,-0.1467730551958084
1783696013692047400,8.54504736328125,-1.1523387432098389,-0.6929190158843994,-0.18620429933071136
1783696013702011400,8.555011474609374,-1.1690516471862793,-0.7145913243293762,-0.17869365215301514
1783696013711975700,8.5649755859375,-1.180489420890808,-0.7487130761146545,-0.14630073308944702
1783696013721939500,8.574939453125,-1.185893177986145,-0.801367998123169,-0.10431493073701859
1783696013731902500,8.58490234375,-1.191044569015503,-0.8562024831771851,-0.058659933507442474
1783696013741866200,8.5948662109375,-1.1851571798324585,-0.9090257883071899,-0.01221094373613596
1783696013751830500,8.60483056640625,-1.1833245754241943,-0.93480384349823,0.036497779190540314
1783696013761794600,8.614794677734375,-1.1734777688980103,-0.9332075715065002,0.08287033438682556
1783696013771758600,8.624758544921875,-1.164609432220459,-0.9165904521942139,0.12344172596931458
1783696013781721300,8.634721435546876,-1.1634626388549805,-0.8962939381599426,0.15468859672546387
1783696013791685600,8.644685546875,-1.1721889972686768,-0.8704192042350769,0.18196949362754822
1783696013801649700,8.654649658203125,-1.1895337104797363,-0.8511893153190613,0.2022143006324768
1783696013811613400,8.664613525390624,-1.2102240324020386,-0.8414211273193359,0.21406377851963043
1783696013821577500,8.674577392578126,-1.2359563112258911,-0.8427579998970032,0.2134496569633484
1783696013831540200,8.684540283203125,-1.2559171915054321,-0.8566914796829224,0.19442756474018097
1783696013841504500,8.69450439453125,-1.2646523714065552,-0.8663046956062317,0.1714908331632614
1783696013851468500,8.704468505859374,-1.2753323316574097,-0.8509584069252014,0.14160849153995514
1783696013861432600,8.7144326171875,-1.2818865776062012,-0.8090663552284241,0.10603585839271545
1783696013871396600,8.724396728515625,-1.2830628156661987,-0.7365796566009521,0.05780097097158432
1783696013881360600,8.734360595703125,-1.2857913970947266,-0.6581674218177795,0.010053685866296291
1783696013891323600,8.74432373046875,-1.284725308418274,-0.572970986366272,-0.037319786846637726
1783696013901287700,8.75428759765625,-1.2851208448410034,-0.49222931265830994,-0.07546291500329971
1783696013911251500,8.76425146484375,-1.2867023944854736,-0.4457142651081085,-0.10133763402700424
1783696013921215500,8.774215576171875,-1.2835454940795898,-0.43452152609825134,-0.09998767822980881
1783696013931179500,8.784179443359376,-1.2823195457458496,-0.4499013125896454,-0.07255057990550995
1783696013941142500,8.794142578125,-1.275732159614563,-0.48703163862228394,-0.03214403986930847
1783696013951106600,8.8041064453125,-1.256149411201477,-0.5384182929992676,0.008689654059708118
1783696013961070600,8.814070556640624,-1.2311763763427734,-0.603015661239624,0.05332076922059059
1783696013971034600,8.82403466796875,-1.2038053274154663,-0.6522712111473083,0.0925159901380539
1783696013980998400,8.833998291015625,-1.1811673641204834,-0.6705791354179382,0.12569577991962433
1783696013990961700,8.843961669921875,-1.1478946208953857,-0.6583259105682373,0.15598711371421814
1783696014000925400,8.853925537109374,-1.110222339630127,-0.6164231896400452,0.188090980052948
1783696014010889500,8.863889404296875,-1.0759352445602417,-0.5565318465232849,0.22478650510311127
1783696014020853500,8.873853515625,-1.044320821762085,-0.48149436712265015,0.2632406949996948
1783696014030817500,8.883817626953125,-1.0123584270477295,-0.41168659925460815,0.31056517362594604
1783696014040780500,8.893780517578126,-0.9795288443565369,-0.34814995527267456,0.3596528172492981
1783696014050744600,8.90374462890625,-0.9430669546127319,-0.26809874176979065,0.4073317348957062
1783696014060708600,8.91370849609375,-0.9068796634674072,-0.1815236657857895,0.4430748224258423
1783696014070672600,8.923672607421874,-0.864758312702179,-0.15041285753250122,0.44835978746414185
1783696014080636400,8.933636474609376,-0.8247118592262268,-0.21599321067333221,0.40012434124946594
1783696014090600400,8.943600341796875,-0.8138279318809509,-0.35202905535697937,0.30596837401390076
1783696014100563500,8.9535634765625,-0.8398621678352356,-0.463601678609848,0.18913200497627258
1783696014110527500,8.963527587890624,-0.8942182064056396,-0.5474779605865479,0.07612662017345428
1783696014120491500,8.973491455078126,-0.977117657661438,-0.6464753746986389,-0.027509227395057678
1783696014130455600,8.98345556640625,-1.0885804891586304,-0.7416383028030396,-0.10105591267347336
1783696014140419600,8.993419677734375,-1.1954350471496582,-0.770440936088562,-0.12799778580665588
1783696014150382600,9.003382568359376,-1.2576297521591187,-0.7360196709632874,-0.11204228550195694
1783696014160346600,9.0133466796875,-1.2801896333694458,-0.6808567643165588,-0.0572272427380085
1783696014170310400,9.023310302734375,-1.2813867330551147,-0.6382815837860107,0.029984233900904655
1783696014180274400,9.0332744140625,-1.2691140174865723,-0.6151877045631409,0.12903304398059845
1783696014190238500,9.043238525390626,-1.2415146827697754,-0.6139624714851379,0.2249554693698883
1783696014200201500,9.053201416015625,-1.2056899070739746,-0.6102835536003113,0.3092770278453827
1783696014210166800,9.063166748046875,-1.1682405471801758,-0.5832327604293823,0.36666378378868103
1783696014220130600,9.073130615234374,-1.1290854215621948,-0.5453253388404846,0.39400753378868103
1783696014230094600,9.083094482421876,-1.098769187927246,-0.4891397953033447,0.3951028287410736
1783696014240058600,9.09305859375,-1.0761654376983643,-0.42556560039520264,0.37612515687942505
1783696014250021600,9.103021728515625,-1.0658555030822754,-0.39296188950538635,0.34609901905059814
1783696014259985700,9.112985595703124,-1.0688589811325073,-0.4110889434814453,0.311285138130188
1783696014269949700,9.12294970703125,-1.0759785175323486,-0.4647167921066284,0.2814747393131256
1783696014279913700,9.132913818359375,-1.0864732265472412,-0.526768147945404,0.2613809108734131
1783696014289877800,9.142877685546875,-1.0976958274841309,-0.5861111283302307,0.2549959421157837
1783696014299840800,9.1528408203125,-1.109337568283081,-0.64034104347229,0.2453387975692749
1783696014309804800,9.1628046875,-1.1219266653060913,-0.7136264443397522,0.21914875507354736
1783696014319768600,9.1727685546875,-1.1461832523345947,-0.8175986409187317,0.1723671406507492
1783696014329732600,9.182732666015625,-1.1817327737808228,-0.9205940365791321,0.11770933866500854
1783696014339696600,9.192696533203126,-1.221936821937561,-0.9890255331993103,0.06401122361421585
1783696014349660700,9.20266064453125,-1.2621984481811523,-1.0081675052642822,0.013611015863716602
1783696014359623700,9.212623779296875,-1.2950607538223267,-0.9759190082550049,-0.022395454347133636
1783696014369587700,9.222587646484374,-1.3232078552246094,-0.9113467335700989,-0.0441267155110836
1783696014379551700,9.2325517578125,-1.3550454378128052,-0.8249079585075378,-0.04939791187644005
1783696014389515500,9.242515625,-1.3740489482879639,-0.736650288105011,-0.04678703844547272
1783696014399479800,9.252479736328125,-1.3734468221664429,-0.6694933176040649,-0.04109453037381172
1783696014409442600,9.262442626953124,-1.3610066175460815,-0.6196392178535461,-0.03921877592802048
1783696014419406600,9.272406494140625,-1.334233045578003,-0.584084153175354,-0.03771622106432915
1783696014429370600,9.28237060546875,-1.301156997680664,-0.5602856874465942,-0.033772096037864685
1783696014439335000,9.2923349609375,-1.2751797437667847,-0.5467818379402161,-0.025669962167739868
1783696014449299000,9.302298828125,-1.2589190006256104,-0.5445250868797302,-0.024351533502340317
1783696014459261700,9.31226171875,-1.2485671043395996,-0.5600696802139282,-0.026151031255722046
1783696014469225700,9.322225830078125,-1.2526048421859741,-0.5985464453697205,-0.032551392912864685
1783696014479189800,9.332189697265624,-1.2671425342559814,-0.6650384068489075,-0.03801513463258743
1783696014489153800,9.34215380859375,-1.2807557582855225,-0.7446602582931519,-0.03993814066052437
1783696014499117800,9.352117919921875,-1.2956538200378418,-0.827954113483429,-0.036915186792612076
1783696014509080600,9.36208056640625,-1.317421317100525,-0.9029929041862488,-0.03209679201245308
1783696014519044600,9.372044677734374,-1.3343337774276733,-0.9726125001907349,-0.02607271820306778
1783696014529009000,9.3820087890625,-1.34798002243042,-1.0022221803665161,-0.017669962719082832
1783696014538973000,9.391972900390625,-1.3642141819000244,-0.9984570741653442,-0.00932361651211977
1783696014548937000,9.40193701171875,-1.3746566772460938,-0.9891895651817322,-0.016006769612431526
1783696014558899700,9.411899658203126,-1.372771978378296,-0.9835407733917236,-0.03229839354753494
1783696014568863700,9.42186376953125,-1.36707603931427,-0.9717174172401428,-0.05040060728788376
1783696014578827800,9.431827880859375,-1.357709527015686,-0.9491040110588074,-0.060132332146167755
1783696014588791800,9.441791748046874,-1.3474674224853516,-0.9203256368637085,-0.07177286595106125
1783696014598755800,9.451755859375,-1.336225986480713,-0.8777571320533752,-0.08383618295192719
1783696014608718800,9.46171875,-1.3216928243637085,-0.8094488382339478,-0.08838774263858795
1783696014618683000,9.471682861328125,-1.3052424192428589,-0.7298235297203064,-0.07935856282711029
1783696014628647000,9.48164697265625,-1.288734793663025,-0.6566113829612732,-0.06238790974020958
1783696014638611000,9.49161083984375,-1.2741178274154663,-0.610977828502655,-0.03940829262137413
1783696014648574700,9.50157470703125,-1.2479618787765503,-0.6010847091674805,-0.001720404950901866
1783696014658538800,9.511538818359375,-1.2234394550323486,-0.6068113446235657,0.04682156443595886
1783696014668501800,9.521501708984376,-1.2073063850402832,-0.6226750016212463,0.10052457451820374
1783696014678465800,9.5314658203125,-1.1936668157577515,-0.6623227596282959,0.14146775007247925
1783696014688429800,9.541429931640625,-1.1739168167114258,-0.7136048674583435,0.16256116330623627
1783696014698393900,9.551393798828125,-1.1507576704025269,-0.7529629468917847,0.17690786719322205
1783696014708356900,9.56135693359375,-1.1349903345108032,-0.7649413347244263,0.18352466821670532
1783696014718321000,9.57132080078125,-1.1304570436477661,-0.7575129866600037,0.18739478290081024
1783696014728285000,9.581284912109375,-1.1276949644088745,-0.7300704121589661,0.1820799708366394
1783696014738248700,9.591248779296874,-1.1290427446365356,-0.6903496384620667,0.16797959804534912
1783696014748212700,9.601212646484376,-1.1358861923217773,-0.6466500759124756,0.14681917428970337
1783696014758176800,9.6111767578125,-1.1478773355484009,-0.6154133081436157,0.11896436661481857
1783696014768139800,9.621139892578125,-1.1636556386947632,-0.5849779844284058,0.08707749098539352
1783696014778103800,9.631103759765624,-1.168535590171814,-0.551861047744751,0.05041667819023132
1783696014788067800,9.64106787109375,-1.171768307685852,-0.5332862734794617,0.010878174565732479
1783696014798032000,9.651031982421875,-1.1813652515411377,-0.5185470581054688,-0.030577125027775764
1783696014807996000,9.660995849609375,-1.1920878887176514,-0.4987562298774719,-0.062275856733322144
1783696014817959000,9.670958984375,-1.195319652557373,-0.44100770354270935,-0.07213328033685684
1783696014827923000,9.6809228515625,-1.1958767175674438,-0.36984091997146606,-0.0609937384724617
1783696014837886700,9.69088671875,-1.1961814165115356,-0.30460917949676514,-0.03620956093072891
1783696014847850800,9.700850830078124,-1.191955327987671,-0.2538466453552246,-0.004097786732017994
1783696014857814800,9.710814697265626,-1.179438829421997,-0.2232208102941513,0.02062700130045414
1783696014867777800,9.72077783203125,-1.1516485214233398,-0.21413761377334595,0.025841929018497467
1783696014877741800,9.730741943359375,-1.1132031679153442,-0.19595488905906677,0.014543202705681324
1783696014887705900,9.740705810546874,-1.0841656923294067,-0.16070231795310974,0.012039557099342346
1783696014897670000,9.750669921875,-1.0769761800765991,-0.14559926092624664,0.01103874109685421
1783696014907633700,9.760633544921875,-1.0750535726547241,-0.153339222073555,0.005485991016030312
1783696014917597000,9.770596923828125,-1.0665796995162964,-0.19005036354064941,-0.0062521579675376415
1783696014927560700,9.780560791015626,-1.055381178855896,-0.2505991458892822,-0.01963905431330204
1783696014937524700,9.790524658203125,-1.043698787689209,-0.3453139364719391,-0.02849060297012329
1783696014947488800,9.80048876953125,-1.0386625528335571,-0.46257320046424866,-0.029729261994361877
1783696014957452800,9.810452880859375,-1.0396426916122437,-0.5665959715843201,-0.02594038099050522
1783696014967415800,9.820415771484376,-1.0422414541244507,-0.635703444480896,-0.02278648130595684
1783696014977379800,9.8303798828125,-1.0415000915527344,-0.6427024602890015,0.0023492309264838696
1783696014987344000,9.84034375,-1.0560784339904785,-0.6090672612190247,0.06320223957300186
1783696014997308000,9.850307861328124,-1.0719857215881348,-0.5389124155044556,0.15347515046596527
1783696015007271700,9.860271728515626,-1.0989336967468262,-0.4401235282421112,0.36192065477371216
1783696015017234700,9.870234619140625,-1.091168999671936,-0.6284518837928772,0.43759864568710327
1783696015027198700,9.88019873046875,-1.043765664100647,-0.8561884760856628,0.4337679445743561
1783696015037162800,9.890162841796876,-1.0350086688995361,-1.0148590803146362,0.4271872639656067
1783696015047126800,9.900126708984375,-1.0530261993408203,-1.0555124282836914,0.3971062898635864
1783696015057090800,9.9100908203125,-1.069195032119751,-0.9796954989433289,0.3400059640407562
1783696015067053800,9.9200537109375,-1.0885735750198364,-0.8485382199287415,0.2483815997838974
1783696015077017900,9.930017822265626,-1.1233121156692505,-0.7197445034980774,0.11902734637260437
1783696015086982000,9.93998193359375,-1.1625123023986816,-0.6172999739646912,-0.030451945960521698
1783696015096945700,9.949945556640625,-1.195819616317749,-0.5708190202713013,-0.14999990165233612
1783696015106909700,9.95990966796875,-1.1981792449951172,-0.5545728802680969,-0.1899566948413849
1783696015116872700,9.969872802734375,-1.1994894742965698,-0.544108510017395,-0.16182784736156464
