time,seconds_elapsed,z,y,x
1783695989559904500,0.061904541015625,-0.7882961573034525,0.15689561206400393,-0.3377888433743268
1783695989569868500,0.07186865234375,-0.7792506810605525,0.409324020473659,-0.5668378375012427
1783695989579831600,0.08183154296875,-0.5715063407689333,0.6458981494084001,-0.5710100816845893
1783695989589795600,0.091795654296875,-0.3745248020321131,0.8331883152142167,-0.39953623796347526
1783695989599759600,0.101759521484375,-0.29589082577824594,0.9673992172613739,-0.25738738252390175
1783695989609723600,0.1117236328125,-0.4531020796626806,0.9549313653543591,-0.20071276115439832
1783695989619687700,0.121687744140625,-0.2890899135917425,1.0013283748701214,-0.15025675857141613
1783695989629651500,0.1316513671875,0.09864742123484611,1.030544532482326,-0.05625340028274804
1783695989639615500,0.141615478515625,0.5496171650439501,1.054038220794499,0.09570296528078615
1783695989649579500,0.15157958984375,0.8761141414880752,1.8798297037556766,0.7754859216995537
1783695989659542500,0.16154248046875,0.4282581457853317,1.2719763305813074,0.9164552850309758
1783695989669506600,0.171506591796875,-0.20931436608731746,0.4104825428590178,0.296378134371154
1783695989679470600,0.181470703125,-0.4728770397126674,0.15618775605559349,-0.12354103947281837
1783695989689434600,0.1914345703125,-0.7639315313756465,-0.23754677335917948,0.17026391994208095
1783695989699398400,0.2013984375,-0.7859849577516317,-0.3960255629613995,0.4413900145590305
1783695989709362400,0.211362548828125,-0.6048287646561861,-0.3048848640948534,0.5297012621533125
1783695989719326500,0.221326416015625,-0.3287228358000517,-0.17202099274247884,0.5906236406277865
1783695989729290500,0.23129052734375,-0.14467209030687808,-0.22277736651152372,0.6789769007328897
1783695989739253500,0.24125341796875,-0.1235568215638399,-0.3744061440885067,0.817653696147725
1783695989749217500,0.251217529296875,-0.14209727138280867,-0.41168110499382016,1.0271648269161582
1783695989759181600,0.261181640625,-0.16167057138085364,-0.24309622417986393,1.222008622971922
1783695989769145600,0.2711455078125,-0.16095687015354632,-0.019852116939425467,1.2789531838566064
1783695989779109400,0.281109375,-0.25630934149622914,0.032085867829620834,1.1467317020609975
1783695989789073400,0.291073486328125,-0.24398352840840815,-0.1333104460760951,0.8129165115579963
1783695989799037400,0.301037353515625,-1.0339560944914816,-0.10021657024770975,0.5811973118411377
1783695989809000400,0.31100048828125,-1.129897179377079,-0.2549140877455473,-0.15147692974982782
1783695989818964500,0.320964599609375,-0.8783528603255748,-0.6986886593535542,-0.9587726970829069
1783695989828928500,0.330928466796875,-1.1684779621839523,-1.0120108046650886,-0.8493919926486909
1783695989838892500,0.340892578125,-0.8986842852145432,-1.0768220072716475,-0.9418722695559263
1783695989848856600,0.350856689453125,-0.8088485314667224,-1.0733449788108467,-0.6993886243164539
1783695989858820600,0.360820556640625,-0.6120002637207508,-0.9133630911692976,-0.47879970775991676
1783695989868784600,0.37078466796875,-0.36847032429873944,-0.7873442634060979,-0.33669618929941203
1783695989878748700,0.380748779296875,-0.22683014903366563,-0.7692121021270751,-0.17937774871345608
1783695989888711700,0.390711669921875,-0.20243395892381666,-0.7480608852878212,-0.037599772412888706
1783695989898675700,0.40067578125,-0.25190438453555103,-0.6855661429300904,0.018847177680581806
1783695989908639700,0.4106396484375,-0.2895651298880577,-0.6394879901051521,0.00508362340722233
1783695989918603800,0.420603759765625,-0.37059564588963984,-0.5936439382970333,-0.07523644277006387
1783695989928567600,0.430567626953125,-0.36877018402814865,-0.511390310241282,-0.20484112966340035
1783695989938531600,0.440531494140625,-0.2607780113428831,-0.55354310631603,-0.38145613566525277
1783695989948495600,0.45049560546875,-0.07354922033548354,-0.6059466627702117,-0.6629977527692914
1783695989958458600,0.460458740234375,0.1747270368307829,-0.6277510828211903,-0.867911107418686
1783695989968422700,0.470422607421875,0.37470074312090873,-0.5857526005253195,-0.8516006086088717
1783695989978386700,0.48038671875,0.5709773484587669,-0.4822530630841851,-0.7104058390237391
1783695989988350700,0.490350830078125,0.6443038659542799,-0.3028618338346481,-0.5211343266749754
1783695989998314500,0.500314453125,0.5958779809594154,0.06361176368892192,-0.30108645819257945
1783695990008278500,0.510278564453125,0.3854576994568109,-0.28760639703571794,-0.21786546467570586
1783695990018242600,0.52024267578125,0.3731687112480402,-0.5821513611629605,-0.432171739032492
1783695990028206600,0.53020654296875,0.46419747417271134,-0.2768921107977629,-0.5540153634702787
1783695990038169600,0.540169677734375,0.5287561633229255,-0.2480325115382671,-0.3692109865982085
1783695990048133600,0.550133544921875,0.5562900669366121,-0.46993660234659906,-0.36414873477257786
1783695990058097700,0.56009765625,0.6632534810960292,-0.42838206442594523,-0.5558006029192358
1783695990068061700,0.570061767578125,0.789328422960639,-0.45757279533594847,-0.5351503213394433
1783695990078025500,0.580025390625,0.780758747535944,-0.5132137262761592,-0.40455333547312766
1783695990087989500,0.589989501953125,0.7165554476946592,-0.5574146870523691,-0.38520182499960065
1783695990097953500,0.59995361328125,0.7042986081898212,-0.614696663197875,-0.5123105668913572
1783695990107917600,0.60991748046875,0.7075304297178984,-0.7207365327715873,-0.6174357327729463
1783695990117880600,0.619880615234375,0.4829389995217323,-0.7213160862252116,-0.6676902944996953
1783695990127844600,0.6298447265625,0.3359545406192541,-0.47006081324815746,-0.49541222172360866
1783695990137808600,0.63980859375,0.2175911960452795,-0.32985622374415396,-0.27091796829160303
1783695990147772700,0.649772705078125,-0.1475906081020832,-0.15986206065416336,-0.11215875431280582
1783695990157736400,0.659736328125,-0.3299164294987917,-0.1643847987756133,-0.12148049021381883
1783695990167700500,0.669700439453125,-0.2179571067482233,-0.18545213672369718,-0.2577517588568851
1783695990177664500,0.67966455078125,-0.05794540849030017,-0.2811927306011319,-0.4667621004963293
1783695990187627000,0.689626953125,0.15409925934374333,-0.4446265122622251,-0.5013671115400269
1783695990197591000,0.699591064453125,0.15508827038109302,-0.5689326908886432,-0.5308954403739422
1783695990207555000,0.70955517578125,0.1561485930889845,-0.6757037973463534,-0.6493249089866876
1783695990217519000,0.71951904296875,0.1777186198621988,-0.756217011475563,-0.6719893068678676
1783695990227483100,0.729483154296875,0.1460129835218191,-0.8243640805065632,-0.6484172926224768
1783695990237447000,0.739447021484375,0.026478841602802276,-0.8381804244130849,-0.5984233180606737
1783695990247411000,0.749410888671875,-0.19202830024361608,-0.7794993951246142,-0.5418698388528078
1783695990257375000,0.759375,-0.36844694342315193,-0.7320192665472626,-0.5318239533957093
1783695990267338000,0.769337890625,-0.40080665975809093,-0.7094234038576483,-0.4904202951878309
1783695990277302000,0.779302001953125,-0.2957569702655077,-0.7633186601743102,-0.46428328929264095
1783695990287266000,0.78926611328125,-0.14406827919483184,-0.8200725207924843,-0.46085466655082996
1783695990297230000,0.79922998046875,-0.038781273815035815,-0.8282213404566049,-0.4548624769313261
1783695990307194000,0.809194091796875,-0.003689502167701721,-0.7938327486425638,-0.43862230341136454
1783695990317158000,0.819157958984375,0.015943419063091276,-0.779941878195107,-0.4474516526855528
1783695990327122000,0.829121826171875,0.036630817782878876,-0.7977849933996796,-0.45114736539833244
1783695990337085000,0.8390849609375,0.10403729757964611,-0.7829559653192758,-0.47945232644975183
1783695990347049000,0.849049072265625,0.22827391810119152,-0.7901873778775333,-0.44506797241941093
1783695990357013000,0.859012939453125,0.3553776184916496,-0.8194733858555555,-0.4008772773088887
1783695990366977000,0.86897705078125,0.4131272121489048,-0.8459343995407224,-0.4124974994106218
1783695990376941000,0.878941162109375,0.3697469201058149,-0.8470832773149013,-0.4315199971254915
1783695990386905000,0.888905029296875,0.20944412994682787,-0.7959992790266871,-0.39167620864547786
1783695990396869000,0.898869140625,0.12074293318688868,-0.7138435583874583,-0.34898104932233687
1783695990406833200,0.908833251953125,0.10596914242506027,-0.7755038957476615,-0.18804737738128752
1783695990416796000,0.9187958984375,0.19178104748427866,-0.9857441445082425,0.12991108596138656
1783695990426760000,0.928760009765625,0.3836380828142166,-1.1258759610369802,0.43672549334671346
1783695990436724200,0.93872412109375,0.5416062925457954,-1.1787681777909398,0.5961911385618149
1783695990446688300,0.948688232421875,0.6618219869881868,-1.1562994486123324,0.6231513339407742
1783695990456652300,0.95865234375,0.8074240516215563,-1.0649503676921128,0.5270763204772025
1783695990466616000,0.968615966796875,0.9049211337774992,-0.8881240204945207,0.23109244612064211
1783695990476580000,0.978580078125,0.6787111624687909,-0.6470195546537637,-0.12922679349165409
1783695990486543000,0.988543212890625,0.27901860143244267,-0.28553455919772386,-0.38259788957890123
1783695990496507100,0.998507080078125,-0.12821312293708323,0.012895429669320583,-0.29288831949401645
1783695990506471200,1.00847119140625,-0.3719675187647343,0.2898404396981001,-0.032953480977006254
1783695990516435200,1.018435302734375,-0.37911446790993214,0.5271572036936879,0.19885767133962362
1783695990526399200,1.028399169921875,-0.2058312001466751,0.6662623075231909,0.4127379205703735
1783695990536363000,1.038363037109375,0.08183890977501869,0.7180693593889474,0.6124232749057933
1783695990546327000,1.0483271484375,0.2932774284094572,0.6709957657858729,0.7753729628443717
1783695990556291000,1.058291015625,0.39084640675783155,0.5220724477753043,0.8293499791603535
1783695990566254000,1.068254150390625,0.252753110319376,0.30317396852374073,0.7046314934059977
1783695990576218000,1.078218017578125,0.0636655397027731,0.1520578166440129,0.595859130128473
1783695990586182100,1.08818212890625,-0.06199789875149726,0.06101619423776865,0.5636059063753113
1783695990596146200,1.098146240234375,-0.1393301447570324,-0.023308394873142242,0.5856408837791532
1783695990606110200,1.108110107421875,-0.22577157989144325,-0.019605156441032886,0.5921582663165404
1783695990616074000,1.118073974609375,-0.24855273602008818,0.03274140912890434,0.579227180811949
1783695990626038000,1.1280380859375,-0.22903145847022532,0.1030921256840229,0.6316613881327211
1783695990636001000,1.1380009765625,-0.1656073263078928,0.16954320445209742,0.7358011231735349
1783695990645965000,1.147965087890625,-0.04593231461346149,0.23327976356446742,0.7738985063776374
1783695990655929000,1.15792919921875,0.03521159863471985,0.3226014303103089,0.6862554403685033
1783695990665893000,1.16789306640625,0.07744038255512714,0.37878392078131434,0.6070481212060899
1783695990675857200,1.177857177734375,0.08930559239387512,0.41524668852090835,0.5325694380007684
1783695990685821200,1.1878212890625,0.06132452953457832,0.4877732878103852,0.5042960776640102
1783695990695785000,1.197784912109375,-0.10988193195462226,0.5612684398710728,0.5447740723943337
1783695990705748000,1.207748046875,-0.22498130629658697,0.6972238474979996,0.5842213358374312
1783695990715712000,1.2177119140625,-0.20560323660969734,0.8138844798073173,0.5745801587237045
1783695990725676000,1.227676025390625,-0.10628419972360134,0.8306284015983343,0.5854249760061502
1783695990735640000,1.23764013671875,-0.010948094993829727,0.8008227536603808,0.6205385210938751
1783695990745604000,1.24760400390625,0.07989303640425205,0.7558008318901062,0.6790100723501294
1783695990755568000,1.257568115234375,0.15220950007438658,0.7373360776558519,0.7356829766865819
1783695990765532000,1.267531982421875,0.26157003850340843,0.7256067691564559,0.7641619791306555
1783695990775496000,1.277495849609375,0.32012101167142387,0.6655836776092648,0.8395679332487285
1783695990785459000,1.287458984375,0.2866238157391548,0.5900695869415998,0.8836116576366126
1783695990795423000,1.297423095703125,0.24657003777027128,0.4966609431430697,0.9292793299645185
1783695990805387000,1.307386962890625,0.22565292194783687,0.3420464277535677,0.9809580792754888
1783695990815351000,1.31735107421875,0.16209610331654548,0.18727905988991259,0.9762113962050527
1783695990825315000,1.327315185546875,0.18053776893615722,0.08192483449280262,0.9199224496848881
1783695990835279000,1.337279052734375,0.19126082300245761,0.01588759722262621,0.8828837817534804
1783695990845243000,1.347242919921875,0.24815701470077037,-0.07453501650243997,0.8200817270122468
1783695990855206000,1.357205810546875,0.36493747399747367,-0.10033931984454393,0.6923454278066754
1783695990865170000,1.367169921875,0.4621370345115661,-0.11180471671074628,0.5433493368208409
1783695990875134000,1.377134033203125,0.4308575146287679,-0.11211217522472143,0.4488337546937167
1783695990885098000,1.387097900390625,0.2536462597668171,-0.0776473033040762,0.40934773014280945
1783695990895062000,1.39706201171875,0.008323591709136963,0.008047112855315208,0.38950153148751704
1783695990905026000,1.407026123046875,-0.2283002215862274,0.09859978270083665,0.3413965124774724
1783695990914990000,1.416989990234375,-0.40785307113826275,0.16995324655771255,0.32338991380687804
1783695990924953000,1.426953125,-0.4634340885847807,0.17412527154535054,0.29518203818807376
1783695990934916900,1.436916748046875,-0.46148879973590373,0.10461977364271878,0.2612945094976574
1783695990944881000,1.446880859375,-0.4384060303121805,0.032546763339638705,0.19969145528264343
1783695990954845200,1.45684521484375,-0.35079321331083774,0.028625498242676257,0.1797272014719434
1783695990964809200,1.466809326171875,-0.22136486936509608,0.006688976244628429,0.254933742294088
1783695990974773200,1.476773193359375,-0.08532090667188168,-0.02346095508635044,0.3472701902838424
1783695990984737300,1.4867373046875,-0.010409165811538695,-0.05281389082074165,0.4192462795510888
1783695990994700300,1.4967001953125,0.03925356750190258,-0.13151187222152946,0.4488914031650871
1783695991004664000,1.5066640625,0.09186930540204048,-0.21967034040689468,0.4572090035248548
1783695991014628000,1.516628173828125,0.24193653275072574,-0.3659960431396961,0.3805674066646024
1783695991024592100,1.526592041015625,0.35580958016812797,-0.48340398668497797,0.3348137365536764
1783695991034556200,1.53655615234375,0.3697013273984194,-0.5900096734479069,0.2777542440524325
1783695991044520200,1.546520263671875,0.3301923238307237,-0.6480591268345713,0.25375344646833836
1783695991054484200,1.556484130859375,0.2963789015561342,-0.6505629263490438,0.33087687202878296
1783695991064447200,1.566447265625,0.23818974743783472,-0.6381894747272133,0.41169593723677095
1783695991074411300,1.576411376953125,0.15499357783496379,-0.6360474942624569,0.4186920066691935
1783695991084375000,1.586375,0.077328738874197,-0.5928311606094241,0.3456728015571832
1783695991094339000,1.596339111328125,0.04531213688850402,-0.5992042027726769,0.28539292223732915
1783695991104303000,1.60630322265625,0.07590016737580299,-0.6285448635473847,0.25188989935247225
1783695991114267100,1.61626708984375,0.14903145456016062,-0.6016127252191305,0.19569750854196025
1783695991124231200,1.626231201171875,0.16300912650823593,-0.5723579891622066,0.16372396024670452
1783695991134195200,1.6361953125,0.12177753693163394,-0.5333396917209029,0.17219476014049723
1783695991144158200,1.646158203125,-0.006314005452394485,-0.45916386391967534,0.1862884231510572
1783695991154122200,1.656122314453125,-0.13469605521559713,-0.35332565439790486,0.17898631997676565
1783695991164086000,1.6660859375,-0.3261655525326729,-0.25792086834609507,0.21997887663310392
1783695991174050000,1.676050048828125,-0.4740343930542469,-0.2072846138253808,0.2531989726570435
1783695991184014300,1.686014404296875,-0.5190636213481425,-0.13472440452724693,0.2863187318453565
1783695991193978400,1.695978271484375,-0.4786906944274902,-0.08316635898649692,0.2996040010824799
1783695991203942400,1.7059423828125,-0.4684861112773418,-0.03017331220656633,0.28921533006969835
1783695991213905400,1.715905517578125,-0.5222568644315004,-0.007707505637407302,0.27989182233670723
1783695991223869400,1.725869384765625,-0.5394406389445067,0.0010138532176613808,0.25246928840931504
1783695991233833200,1.735833251953125,-0.5133306306540966,-0.053846740999817844,0.27034522817125545
1783695991243797200,1.74579736328125,-0.4737321952372789,-0.16008359445035455,0.37912528156489134
1783695991253761300,1.75576123046875,-0.40245384244322774,-0.35358079820275307,0.5795165922125801
1783695991263725300,1.765725341796875,-0.2149327904909849,-0.49142187344580884,0.6604213264100253
1783695991273689300,1.775689453125,-0.07193652444183826,-0.5152344184488058,0.5682900090709329
1783695991283652400,1.78565234375,-0.1177273847579956,-0.5617395645141601,0.5114383141014724
1783695991293616400,1.795616455078125,-0.1932306617707014,-0.6312181744098663,0.48452926438786087
1783695991303580200,1.805580078125,-0.25220482878684997,-0.6922668096125125,0.3829139332581311
1783695991313544200,1.815544189453125,-0.28084523233771325,-0.6225444540888071,0.21173790343981236
1783695991323508200,1.82550830078125,-0.3022539310693741,-0.5061316590607166,0.1148529253002256
1783695991333472300,1.83547216796875,-0.3556464985609054,-0.37504531877487896,0.1467950190112926
1783695991343436300,1.845436279296875,-0.4346405402988195,-0.22705022152513266,0.2183922284961678
1783695991353399300,1.8553994140625,-0.4678782085120678,-0.013129238425195216,0.21107143888771532
1783695991363363300,1.86536328125,-0.5102811799556016,0.2143137818098068,0.20479244994977489
1783695991373327400,1.875327392578125,-0.5704658918052912,0.41766865497082467,0.15668693774938583
1783695991383291100,1.885291015625,-0.5974672959774733,0.5624541425243019,0.08315107921897433
1783695991393255200,1.895255126953125,-0.5752905354827642,0.6410667837291956,0.013692142138117924
1783695991403219200,1.90521923828125,-0.4962760354787111,0.7254144614547491,-0.10307654452240093
1783695991413183200,1.915183349609375,-0.4038683854162693,0.7994701700076461,-0.20321780277788637
1783695991423146200,1.925146240234375,-0.3435100705653429,0.8814847286105155,-0.2882274515435099
1783695991433110300,1.9351103515625,-0.25594810696840287,0.9412611519202589,-0.34430180546492334
1783695991443074300,1.94507421875,-0.22412498172819614,0.9882704481154679,-0.3312014643406495
1783695991453038300,1.955038330078125,-0.17214578816592693,0.990499230080843,-0.3045831412019208
1783695991463002400,1.96500244140625,-0.08482114045619964,0.9354089187607169,-0.3117398445561528
1783695991472966400,1.97496630859375,0.04958090024888515,0.7696604304164648,-0.311161825472489
1783695991482930400,1.984930419921875,0.20415479136705397,0.5934583525970578,-0.34889033883158116
1783695991492893200,1.99489306640625,0.367833195438981,0.39610476567745206,-0.36048823950365183
1783695991502857200,2.004857177734375,0.4882973116844892,0.23517858292311428,-0.36890845998767763
1783695991512821500,2.014821533203125,0.6150386085033417,0.14160072003751992,-0.38711383263338356
1783695991522785500,2.02478564453125,0.719299193444848,0.03236468477100134,-0.3856040856575593
1783695991532749300,2.034749267578125,0.7666887211292982,-0.058094461572170256,-0.35386093031838534
1783695991542713300,2.04471337890625,0.7842991966217756,-0.054990065816044806,-0.39023258570842445
1783695991552677400,2.054677490234375,0.7674544448047876,0.010243453855812549,-0.4206359438112005
1783695991562640400,2.064640380859375,0.6762339587002992,0.03774930041879415,-0.46983840266913174
1783695991572604400,2.0746044921875,0.6039736091315746,0.05359101267307997,-0.4847764440819621
1783695991582568400,2.084568359375,0.4991214880377054,0.10767799216955899,-0.4798640490557998
1783695991592532500,2.094532470703125,0.3427332409739494,0.2203773196324706,-0.5130203591285273
1783695991602496500,2.10449658203125,0.25916122379601,0.3380515128985047,-0.4208854615928605
1783695991612460300,2.114460205078125,0.2141261502832174,0.47016339683979746,-0.2935386366289109
1783695991622424300,2.12442431640625,0.13911737878918648,0.6322764512911438,-0.23892967908494173
1783695991632387300,2.13438720703125,0.1278004504829645,0.7145750875324011,-0.0820704900411889
1783695991642351400,2.144351318359375,0.23592004894018173,0.7247261869296431,0.041245800765044985
1783695991652315400,2.1543154296875,0.4047346468567848,0.6183873344093561,0.1394132564632222
1783695991662279400,2.164279541015625,0.5474141020417214,0.4263175331115722,0.21608703856002537
1783695991672243500,2.174243408203125,0.5633715496301651,0.23112726170569656,0.21100542444679884
1783695991682207200,2.184207275390625,0.5192641123563051,0.0330111659809947,0.11315112635102122
1783695991692171300,2.194171142578125,0.528018496698141,-0.13836977529227734,-0.028804909930191934
1783695991702134300,2.20413427734375,0.561122309398651,-0.39756957753300665,-0.12104988024421036
1783695991712098300,2.214098388671875,0.5510521662831306,-0.6254784617140888,-0.19631439833128825
1783695991722062300,2.224062255859375,0.5381172813862561,-0.7777256634503602,-0.31861396810933945
1783695991732026400,2.2340263671875,0.5319821396321058,-0.8439139996290207,-0.4459234932702034
1783695991741990400,2.243990478515625,0.44246845744550223,-0.9383134080305695,-0.4969753428544849
1783695991751954400,2.253954345703125,0.3169230924129486,-0.9944438760533928,-0.5327181988216936
1783695991761918200,2.263918212890625,0.213390237224102,-1.0033581271320582,-0.5422083866247907
1783695991771881200,2.273881103515625,0.10841127488017081,-1.0323784699112177,-0.5299714939294382
1783695991781845200,2.28384521484375,0.04881809918284416,-0.9852671746462583,-0.5374949847694486
1783695991791809300,2.293809326171875,0.0382025971442461,-0.8975368687450885,-0.580136879535392
1783695991801773300,2.303773193359375,0.040914194190502164,-0.7777247866675258,-0.6479502596326172
1783695991811737300,2.3137373046875,0.03828793734014034,-0.7288067342415452,-0.6162195619162172
1783695991821701400,2.323701416015625,0.09476678040921688,-0.6648433806359767,-0.5612612064126878
1783695991831665200,2.3336650390625,0.08612520879209042,-0.5329197127431631,-0.5077390942573548
1783695991841628400,2.34362841796875,0.02426701077222824,-0.4235346243947744,-0.4286160193122923
1783695991851592200,2.35359228515625,-0.05813304001688957,-0.41649581179916856,-0.3851123200852424
1783695991861556200,2.36355615234375,-0.15314824222922324,-0.4046320632651448,-0.36309498793594536
1783695991871520300,2.373520263671875,-0.1303103874772787,-0.40888884392678737,-0.2684506465963088
1783695991881484300,2.383484375,-0.07266016254127025,-0.46955374050885434,-0.15667216030536218
1783695991891448300,2.3934482421875,0.03553717732727527,-0.44614568465352056,-0.07130721356235444
1783695991901412400,2.403412353515625,0.15496493626236915,-0.42779286636114117,0.027025680096913127
1783695991911375400,2.413375244140625,0.20576748726069927,-0.47015316770672794,0.06969095573844387
1783695991921339400,2.42333935546875,0.21203239287436007,-0.5720213045537471,0.01780439062938094
1783695991931303200,2.43330322265625,0.11795593281686305,-0.7083952298536896,-0.026006365252844988
1783695991941267200,2.44326708984375,-0.022958850783109663,-0.7590206707194447,-0.06368387907706201
1783695991951231200,2.453231201171875,-0.17759587026536464,-0.7922814275473355,-0.14214083652989937
1783695991961195300,2.4631953125,-0.2386614566028118,-0.777218882972002,-0.20884112255237997
1783695991971159300,2.4731591796875,-0.24706220520138739,-0.8032783301189541,-0.18988672163765877
1783695991981122300,2.483122314453125,-0.20377660570442677,-0.8841337818145751,-0.02361399022359401
1783695991991086300,2.49308642578125,-0.09730360541045666,-1.0146443680390715,0.3293764043379575
1783695992001050000,2.503050048828125,0.0891015942543745,-1.063273374390602,0.6279615837667137
1783695992011014100,2.51301416015625,0.24923954924046993,-1.03395901710093,0.7552161638699472
1783695992020978200,2.522978271484375,0.22037819641530512,-0.9484814585626125,0.7328233494717628
1783695992030942500,2.5329423828125,0.026961656683683395,-0.8954311286374926,0.6559830517016351
1783695992040906500,2.542906494140625,-0.16425941883027553,-0.8494771867141128,0.4959316790204495
1783695992050869200,2.552869140625,-0.3456184410214424,-0.6987316217124462,0.1653501001438126
1783695992060833300,2.562833251953125,-0.5718026933670044,-0.45730537657141684,-0.09699764473382383
1783695992070797600,2.572797607421875,-0.8134066331624984,-0.19953414582908152,-0.19238736108066512
1783695992080761300,2.58276123046875,-0.9214280319422483,0.1280804364681244,-0.1633364952990785
1783695992090725400,2.592725341796875,-0.9677917237102985,0.4198027443900704,-0.05164358666604384
1783695992100689400,2.602689453125,-0.9583727379798889,0.6101327162832021,0.13472396613582968
1783695992110653400,2.6126533203125,-0.9052379446417093,0.668192398802936,0.31761728522218763
1783695992120616400,2.622616455078125,-0.7244336337238549,0.6457429588466882,0.44356487438008185
1783695992130580500,2.63258056640625,-0.4732318444997072,0.5747402081236243,0.4971440504848957
1783695992140544500,2.64254443359375,-0.2632230664074421,0.47483489578217264,0.4770297024127096
1783695992150508300,2.65250830078125,-0.09338555518388747,0.37333617676943537,0.4027918787585571
1783695992160472300,2.662472412109375,-0.05200900417864322,0.3122732207804918,0.3092372871506959
1783695992170436400,2.672436279296875,-0.1294523093432188,0.25559096409380433,0.2803792222611606
1783695992180400400,2.682400390625,-0.26835341503322124,0.24552754298001525,0.2701006605593487
1783695992190363400,2.69236328125,-0.2504074239760637,0.247172972099483,0.29298418108392504
1783695992200327400,2.702327392578125,-0.0705880324423313,0.25717940232902764,0.3816575034562498
1783695992210291500,2.71229150390625,0.14659925897717474,0.23733050025999544,0.48739283712543546
1783695992220255500,2.72225537109375,0.40592181081473827,0.23788842640370128,0.4944118125094101
1783695992230219300,2.73221923828125,0.5965069265127182,0.21041706663221119,0.551331640811637
1783695992240183300,2.742183349609375,0.6404349155664444,0.1764303336173296,0.662745312378183
1783695992250147300,2.752147216796875,0.5827648168861865,0.14578852711617946,0.6956824632748961
1783695992260110300,2.7621103515625,0.4143634759455919,0.1247550914376974,0.6688173988334835
1783695992270074400,2.772074462890625,0.20435119072198868,0.1187663724169135,0.6713035165607929
1783695992280038400,2.782038330078125,0.06145020174086094,0.1192591243699193,0.6697018535178154
1783695992290002400,2.79200244140625,0.021955811220407486,0.11014058289080858,0.644348289617896
1783695992299966200,2.80196630859375,0.06386427714526653,0.1272933777436614,0.6432691891442984
1783695992309930500,2.811930419921875,0.12390402756631373,0.20019027165025471,0.5873201421029866
1783695992319894500,2.82189453125,0.09375731110572814,0.34136779783964155,0.4902794984776526
1783695992329857300,2.831857177734375,0.015187632259726523,0.5442199821755289,0.30958478541411455
1783695992339821300,2.8418212890625,-0.08025543997585773,0.706369276984036,0.13978172444943338
1783695992349785600,2.85178564453125,-0.2009603792399168,0.7849649670541285,0.0038490766435861586
1783695992359749600,2.86174951171875,-0.3997019133865833,0.8517714351311325,-0.13057817156799137
1783695992369713700,2.871713623046875,-0.5497738169103861,0.9479738013014197,-0.23599461201373487
1783695992379677400,2.881677490234375,-0.594718874052167,0.9406301605403423,-0.2411562508269213
1783695992389641500,2.891641357421875,-0.5354565377444028,0.9027306379958987,-0.13844201854458077
1783695992399604500,2.9016044921875,-0.34636078382134433,0.8222235613465309,-0.0075334825110621745
1783695992409568500,2.911568603515625,-0.1049175875455141,0.7275088033854961,0.09531327184345573
1783695992419532500,2.921532470703125,0.10416706143915652,0.6203855224892497,0.1566017071513459
1783695992429496600,2.93149658203125,0.26394436641931535,0.46252398800253863,0.1364202669260092
1783695992439460600,2.941460693359375,0.3165127580463886,0.29488369456231595,0.05235496807210147
1783695992449424400,2.95142431640625,0.29100305373668667,0.14706658422797916,0.0021552966040559113
1783695992459388400,2.961388427734375,0.2819605001032352,0.026848843958973884,-0.03248299565473571
1783695992469351400,2.971351318359375,0.25357377905249595,-0.08257394605129957,-0.05462479443391785
1783695992479315500,2.9813154296875,0.24545126287341115,-0.15389643024802208,-0.030370387414935973
1783695992489279500,2.991279541015625,0.23959552258253097,-0.16561317152678964,-0.0544121563302353
1783695992499243500,3.001243408203125,0.22231354839205741,-0.16501462111175058,-0.06749006642699241
1783695992509207600,3.01120751953125,0.19586685549318789,-0.13787176264226436,-0.054713294701278205
1783695992519171600,3.021171630859375,0.13404665139615535,-0.08047814281582832,-0.06338960883822292
1783695992529135400,3.03113525390625,0.12842939603626727,-0.024321079047024248,-0.06432380268210545
1783695992539098600,3.0410986328125,0.04995382521450519,0.02690729614794254,-0.031601701041869816
1783695992549062400,3.0510625,-0.08802198232412338,0.0757078596740961,0.021065109458379448
1783695992559026400,3.0610263671875,-0.1567921516895294,0.09640753335356712,-0.012582399931084363
1783695992568990500,3.070990478515625,-0.14536124161481856,0.07050795294344425,-0.0714926165992394
1783695992578954500,3.08095458984375,-0.07277239074409007,0.0015390461355447769,-0.12563450462073086
1783695992588918500,3.09091845703125,-0.01767009672522545,-0.06275397781580686,-0.1235470490884967
1783695992598882600,3.100882568359375,0.04082242425382137,-0.08457067282646893,-0.04974880416169762
1783695992608845600,3.110845458984375,0.06159340960383415,-0.06921440600156784,0.025620197213161736
1783695992618809300,3.120809326171875,0.07346680274903773,-0.06438245580047369,0.12149848252823575
1783695992628773400,3.1307734375,0.011072598156332969,-0.05119125805497169,0.21581963806180282
1783695992638737400,3.1407373046875,-0.010111644169688225,-0.01266162091344595,0.24416509552039203
1783695992648701400,3.150701416015625,0.06651099226176738,-0.04061024280786514,0.27137058916362
1783695992658665500,3.16066552734375,0.24354396794736383,-0.052447103334963316,0.2698276888368651
1783695992668629500,3.17062939453125,0.4059142120301723,-0.12792583042830227,0.19537653295928611
1783695992678592500,3.180592529296875,0.5125479558438062,-0.17346651537567376,0.09308746728645637
1783695992688556500,3.190556640625,0.5060667771309614,-0.19434154562205075,0.039825503904651845
1783695992698520300,3.200520263671875,0.24971418101489543,-0.25352584825754165,0.01725594470007345
1783695992708484400,3.210484375,-0.08172258991897105,-0.36092911513894793,0.0939331791292876
1783695992718448400,3.220448486328125,-0.39614451316595073,-0.5739572410523891,0.4551420610576868
1783695992728412400,3.230412353515625,-0.4607873734682798,-0.6538494006738066,0.7164922462653368
1783695992738375400,3.24037548828125,-0.3584720773756504,-0.6634943041145801,0.6145062551923096
1783695992748339500,3.25033935546875,-0.2512485509753227,-0.7126885431334375,0.42569041418917475
1783695992758303500,3.260303466796875,-0.20591303321123122,-0.8093503435090184,0.3501169945497066
1783695992768267500,3.270267578125,-0.3473842816501856,-0.8311667462587357,0.3113064946401864
1783695992778231300,3.280231201171875,-0.5739899742782115,-0.7083958143755793,0.185399748949334
1783695992788195300,3.2901953125,-0.7774632131218909,-0.5232528897315264,0.04706073412150144
1783695992798159400,3.300159423828125,-0.9581465280085801,-0.3832484989747405,0.02065932340277359
1783695992808123400,3.310123291015625,-1.0763543897598982,-0.275785903121531,0.13805185018321497
1783695992818086400,3.32008642578125,-1.067713987186551,-0.09212649503350258,0.2650363263744861
1783695992828050400,3.330050537109375,-0.898185103520751,0.10211772769391536,0.3535707517327741
1783695992838014500,3.340014404296875,-0.579112139597535,0.26136983975619077,0.398489834183082
1783695992847978200,3.349978271484375,-0.18659984545409677,0.3404574049964547,0.4064951537232846
1783695992857942300,3.3599423828125,0.10474866071939468,0.38333383917063474,0.4540463382428512
1783695992867906300,3.36990625,0.2379290506750345,0.45541532504111526,0.4362608715096488
1783695992877869300,3.379869384765625,0.14271978719532488,0.4794920739382505,0.40462420875225213
1783695992887833300,3.389833251953125,-0.07842705550491809,0.5674725552082062,0.3871603751888498
1783695992897797400,3.39979736328125,-0.28990532162785526,0.6767582748353481,0.3716641153713688
1783695992907761400,3.409761474609375,-0.4472743964225053,0.7840601271688937,0.33620051473695783
1783695992917725400,3.419725341796875,-0.6100847854882478,0.9157114078611135,0.2802668844604865
1783695992927689500,3.429689453125,-0.7346382168740033,1.035977078925073,0.2284568003874272
1783695992937653500,3.439653564453125,-0.7447054373800754,1.1160688527718186,0.19110179651584475
1783695992947616300,3.4496162109375,-0.6975391970574856,1.1200064844816922,0.19848032592721282
1783695992957580500,3.45958056640625,-0.5693319193392992,1.0614856141909956,0.1558900517506525
1783695992967544600,3.469544677734375,-0.3918237273573875,0.9600055998787284,0.08296732928305864
1783695992977508600,3.479508544921875,-0.22762626784741877,0.805846719302237,0.010285831692814827
1783695992987472600,3.48947265625,-0.14560557176470756,0.647405046840012,-0.012032346566580235
1783695992997436400,3.4994365234375,-0.10453180309832096,0.5233122187033296,-0.03641282765064388
1783695993007400400,3.509400390625,-0.04188274696171283,0.45573476625382897,-0.07835241936612874
1783695993017363500,3.519363525390625,-0.011012392401695251,0.4340680011078715,-0.05266359562985599
1783695993027327500,3.529327392578125,-0.04949439100921154,0.4027998794019222,-0.015801307178661225
1783695993037291500,3.53929150390625,-0.06700082160532474,0.4045248034983873,0.01630563997160643
1783695993047255600,3.549255615234375,-0.007325228321552277,0.4258043228924274,0.0422545028835535
1783695993057219600,3.559219482421875,0.1832481969386339,0.4585474855870008,0.09126341193076222
1783695993067183600,3.56918359375,0.429078229996562,0.5144792161673307,0.13180069910027087
1783695993077147400,3.5791474609375,0.6315361543178558,0.5667948020771145,0.19112331422790885
1783695993087110400,3.5891103515625,0.7760504237145185,0.5900844922497869,0.21151633311100304
1783695993097074400,3.599074462890625,0.8176070074617863,0.6116138947516679,0.18377846789043395
1783695993107038500,3.60903857421875,0.749954443949461,0.6200663735374808,0.17479882342536002
1783695993117002500,3.61900244140625,0.6996651031702756,0.6426859093636274,0.17676468013823032
1783695993126966500,3.628966552734375,0.7001619467765092,0.6021937399774789,0.16771310294810682
1783695993136930600,3.6389306640625,0.7739297782987355,0.5263374117434024,0.19449279066100716
1783695993146894300,3.648894287109375,0.8049000861018896,0.47334904113858933,0.25090375612564386
1783695993156857600,3.658857666015625,0.8358727319926023,0.4191998100608587,0.321015549358353
1783695993166821400,3.6688212890625,0.8650964883893728,0.3724965110749006,0.4234819443594664
1783695993176785400,3.678785400390625,0.8935217878848314,0.26644991949945684,0.5229245345599949
1783695993186749200,3.688749267578125,0.8911375230967998,0.1373340025037527,0.5977816956888884
1783695993196713200,3.698713134765625,0.8580319568306207,-0.03336918563842773,0.6747940620902926
1783695993206677200,3.70867724609375,0.7987029850274324,-0.23865210425257682,0.6915379108160734
1783695993216641300,3.718641357421875,0.7399024210125208,-0.3799398128181696,0.7030392557784915
1783695993226604300,3.728604248046875,0.7033353161156177,-0.47529257642179723,0.7268656831763685
1783695993236568300,3.738568359375,0.6124778181046248,-0.5946794188246131,0.6829787567853928
1783695993246532000,3.748531982421875,0.47193537494838234,-0.6642109279513358,0.5545826054316014
1783695993256496000,3.75849609375,0.28827801268696784,-0.7346215580001473,0.42910069755669683
1783695993266460200,3.768460205078125,0.14195347899794578,-0.7530123702153563,0.3727745242986828
1783695993276424200,3.778424072265625,0.005237316131591796,-0.7520952553704381,0.33524569823015476
1783695993286387200,3.78838720703125,-0.18813304637074468,-0.7058540209382772,0.30266744377370924
1783695993296351200,3.798351318359375,-0.46095162411928176,-0.6631362844571471,0.2876357327280566
1783695993306315300,3.808315185546875,-0.66757894307971,-0.5711898221656679,0.22228746410273015
1783695993316279300,3.818279296875,-0.7312778005301952,-0.4972042562395334,0.20640531024020164
1783695993326243000,3.8282431640625,-0.6684709234833717,-0.4611076914638281,0.3064844447785988
1783695993336207000,3.83820703125,-0.5426105011522769,-0.4231900487408042,0.4653798888903111
1783695993346171100,3.848171142578125,-0.38389176531434055,-0.32561727100014687,0.5602362838117405
1783695993356134100,3.858134033203125,-0.2838233713656664,-0.23788842640370128,0.6369024305913596
1783695993366098200,3.86809814453125,-0.3447422427088022,-0.17532237237542866,0.7360166656203567
1783695993376062200,3.878062255859375,-0.4591799382716417,-0.11901830135136841,0.8016913531884551
1783695993386026200,3.888026123046875,-0.5468985537350177,-0.08815613009780644,0.7978316090203821
1783695993395990000,3.897989990234375,-0.5877981348782777,-0.06804740804880857,0.8248569785900414
1783695993405954000,3.9079541015625,-0.5674065042346715,-0.03198649910837412,0.8903403813697397
1783695993415918000,3.91791796875,-0.5419289486289024,-0.019101883094012735,0.9781417066805064
1783695993425881000,3.927881103515625,-0.5801122565507888,0.023969196869432923,1.078306619806215
1783695993435845000,3.93784521484375,-0.740122201243043,0.05252279891967773,1.152439266052842
1783695993445809200,3.94780908203125,-0.983840941235423,-0.06374065076559782,1.345055595317483
1783695993455773200,3.957773193359375,-1.117961242389679,-0.2861214191749692,1.7041032806240022
1783695993465737200,3.9677373046875,-1.0549708254694938,-0.40418694984614845,1.88185624114722
1783695993475701000,3.977700927734375,-0.9569342296093701,-0.30899814463257785,1.7130536259293556
1783695993485665000,3.9876650390625,-0.9775789582312107,-0.10055822329223156,1.2699248048789797
1783695993495628000,3.9976279296875,-1.1224433562397955,0.19024492395818232,0.7143298805996775
1783695993505592000,4.007592041015625,-1.334288702109456,0.4688403315424919,0.2526384709637612
1783695993515556000,4.01755615234375,-1.710007097840309,0.6826788970559835,0.014419444915803614
1783695993525520100,4.02752001953125,-2.1173533885002134,0.9139385529696941,0.030714823788299688
1783695993535484400,4.037484375,-2.282118418765068,1.1387027093842625,0.24483238205639643
1783695993545448200,4.0474482421875,-2.065842981493473,1.3486498204171657,0.5811442664796486
1783695993555412200,4.057412109375,-1.603377445679903,1.4453335403636096,1.0194191081602126
1783695993565375000,4.067375,-1.083070546272397,1.4425477090373635,1.5081429016284644
1783695993575339300,4.07733935546875,-0.6193436122208833,1.4242828612893819,1.6688620175033806
1783695993585303300,4.08730322265625,-0.2849310403466225,1.3322574885427951,1.691822183460742
1783695993595267300,4.097267333984375,-0.1305938805937767,1.2134294490665196,1.6954454885244368
1783695993605231400,4.1072314453125,-0.18133388774991036,1.1085375804841517,1.610958402328193
1783695993615195400,4.1171953125,-0.4007826943606138,1.0731839430302381,1.5090002491101622
1783695993625159200,4.1271591796875,-0.6923100642323493,1.1460635935410857,1.420583276119083
1783695993635122200,4.1371220703125,-0.9154711693644523,1.3795906098648905,1.3381002232216297
1783695993645086200,4.147086181640625,-1.034395654952526,1.6509031669646501,1.373694245302677
1783695993655050200,4.15705029296875,-1.0334656806260347,1.8791940362006425,1.345006787739694
1783695993665014300,4.16701416015625,-0.9122878631532192,2.085030497044325,1.2985117246769369
1783695993674978300,4.176978271484375,-0.7754664863467216,2.252390219977498,1.2916235725983976
1783695993684942300,4.1869423828125,-0.7173948211282491,2.36643160969913,1.3240849957421421
1783695993694905300,4.1969052734375,-0.665047963297367,2.4834371099233628,1.329143155914545
1783695993704869400,4.206869384765625,-0.6007639994353056,2.5120482873797414,1.3580956941545008
1783695993714833200,4.216833251953125,-0.597139379197359,2.5090695638298985,1.3813880146756767
1783695993724797200,4.226797119140625,-0.6578910772800445,2.5238351712852714,1.4226944230541585
1783695993734761200,4.23676123046875,-0.7793313450813293,2.5148621757566927,1.4826047018766402
1783695993744725200,4.246725341796875,-0.8109592400103807,2.475271631385386,1.570346113693714
1783695993754689300,4.256689208984375,-0.7119897472143173,2.429769232621789,1.6471379692122339
1783695993764652300,4.26665234375,-0.5777157168030739,2.3611802650421856,1.723465860480815
1783695993774616300,4.2766162109375,-0.40510289564728735,2.2741712591528893,1.819953034941852
1783695993784580400,4.286580322265625,-0.24437515807449817,2.1646277653723955,1.8637226185634732
1783695993794544000,4.296544189453125,-0.17664485315084458,2.041867647144198,1.8795105548039077
1783695993804508200,4.306508056640625,-0.17927753974199295,1.9513719681829214,1.8660269499830902
1783695993814472200,4.31647216796875,-0.2722504224717617,1.9320839148670435,1.87454080356732
1783695993824436200,4.326436279296875,-0.5099930106639862,1.9670754410102962,1.79764212667346
1783695993834399200,4.336399169921875,-0.8042822464644909,2.0456518418580294,1.6279975076735018
1783695993844363300,4.34636328125,-1.0131471152186393,2.085418035057187,1.4629396319419146
1783695993854327300,4.356327392578125,-1.1474082861483097,2.1249641557648777,1.280769439498335
1783695993864291000,4.366291015625,-1.2140250768721104,2.150288274374604,1.0716775570552795
1783695993874255000,4.376255126953125,-1.2139432438075541,2.1684920395851135,0.9051406948123126
1783695993884219100,4.38621923828125,-1.1644792479366064,2.1882576472848654,0.7933908500939607
1783695993894182100,4.39618212890625,-1.1230348923921585,2.1194278566867113,0.7159082358323037
1783695993904146200,4.406146240234375,-1.0960182906508444,2.1058575964957473,0.6397677568946033
1783695993914110200,4.416110107421875,-1.1281535505801439,2.0437898473784326,0.5777714290456846
1783695993924074200,4.42607421875,-1.1650643543481827,1.9679884642019867,0.5124350700538605
1783695993934038300,4.436038330078125,-1.2300824777036905,1.8817951586097479,0.4790966448798775
1783695993944002000,4.446001953125,-1.338356389939785,1.8220535143524408,0.47237931932359933
1783695993953966000,4.455966064453125,-1.4075398162811994,1.7826199141085146,0.430476990878582
1783695993963929000,4.46592919921875,-1.4000538444399833,1.7248413866177201,0.4367230821939185
1783695993973893000,4.47589306640625,-1.345939392414689,1.7157395040124654,0.41911658875681457
1783695993983857200,4.485857177734375,-1.2946458430290222,1.6857833416879175,0.4014532505659386
1783695993993821200,4.4958212890625,-1.23053080599308,1.6172490269050002,0.3706635965593159
1783695994003785200,4.50578515625,-1.173776653113961,1.51947634267807,0.36033560622520744
1783695994013749200,4.515749267578125,-1.1299240673840045,1.4691446240618824,0.37817214555852113
1783695994023713000,4.525713134765625,-1.1596838303536177,1.4493603116616607,0.3706398138249293
1783695994033676000,4.535676025390625,-1.2316197702735663,1.410576699759066,0.34826179513707756
1783695994043640000,4.54564013671875,-1.2476175498723983,1.3840019965663553,0.31029874236974864
1783695994053604000,4.55560400390625,-1.1946581131011247,1.365934424956143,0.2566675620830618
1783695994063568100,4.565568115234375,-1.123462762415409,1.3313023797750472,0.1936816204085946
1783695994073532200,4.5755322265625,-1.0518003787398338,1.2860755830824375,0.16382621504478156
1783695994083496200,4.58549609375,-1.0239286214739083,1.2602914457455276,0.1204430460580159
1783695994093459200,4.595459228515625,-0.9649404259324074,1.2518456889614462,0.07166199094993062
1783695994103423200,4.60542333984375,-0.8580103295207023,1.2522960630774498,0.07591057003880851
1783695994113387000,4.615386962890625,-0.7890706488072872,1.266965516681969,0.10081493799965828
1783695994123351000,4.62535107421875,-0.730491034066677,1.302204880106449,0.13556402455600908
1783695994133315000,4.635315185546875,-0.6427110438048839,1.3476459040716289,0.17602997265551237
1783695994143279400,4.645279296875,-0.5414712679892778,1.3774164806962013,0.23749003820326178
1783695994153243400,4.655243408203125,-0.4955354462444782,1.3225868661388753,0.35047220119554545
1783695994163206100,4.6652060546875,-0.48315001192390916,1.2154232532322407,0.49200997553206977
1783695994173170200,4.675170166015625,-0.4462824627757072,1.0938830321878195,0.6127885645542294
1783695994183134200,4.68513427734375,-0.3130050421863794,0.9269847892865538,0.6408310022119432
1783695994193098000,4.695097900390625,-0.11208324139118193,0.7864905691862106,0.5013501969378441
1783695994203062000,4.70506201171875,0.035355391019582745,0.695858112102747,0.3462630956005305
1783695994213026000,4.715026123046875,-0.013092705807089804,0.6730749101474881,0.20892430732380599
1783695994222990000,4.724989990234375,-0.17341829231977463,0.7057409159526229,0.029293707227287812
1783695994232953000,4.734953125,-0.3362900561839342,0.7933075557246804,-0.07686760590216145
1783695994242917000,4.744917236328125,-0.42994624500274653,0.8886588580235838,-0.042527273676637556
1783695994252881200,4.754881103515625,-0.436375985789299,0.9860115632727742,0.0257683095801156
1783695994262845000,4.764844970703125,-0.345488677161932,1.058827208636701,0.10005487687997519
1783695994272809000,4.77480908203125,-0.24172727391421794,1.0386194101274013,0.1410846694073174
1783695994282773000,4.78477294921875,-0.16125263822972774,0.9169728060990572,0.1564241220947355
1783695994292736000,4.794736083984375,-0.10972644913196564,0.7556710680305957,0.10704170356001705
1783695994302700000,4.804699951171875,-0.09591887305378913,0.5731564460635185,0.062093358482606706
1783695994312664000,4.8146640625,-0.11419745706617832,0.4389446672335267,0.04110920530594885
1783695994322628000,4.824628173828125,-0.13973288033902645,0.3182207310080528,0.014511559629067777
1783695994332592000,4.834592041015625,-0.1606488271176815,0.30706045456826686,0.028393643981870262
1783695994342556000,4.844555908203125,-0.24791268455088136,0.34094723434001206,0.06534359245020896
1783695994352520000,4.85452001953125,-0.3434317446321249,0.4429579945281148,0.050277686874009665
1783695994362483000,4.86448291015625,-0.46145197485685346,0.5620478998109698,0.013089691866096109
1783695994372447000,4.874447021484375,-0.5548328538656234,0.6473053858578205,-0.04184173909788951
1783695994382411000,4.884410888671875,-0.6684159784257412,0.6974465503379702,-0.1439408716891892
1783695994392375000,4.894375,-0.7794207769304513,0.7059966442793607,-0.3346786754645407
1783695994402339000,4.904339111328125,-0.8109417043536901,0.6716358172550797,-0.5214709747508168
1783695994412302800,4.914302734375,-0.8746604355484247,0.6160416480660438,-0.6198161981686949
1783695994422267000,4.924266845703125,-0.9487801492482423,0.6446937420547008,-0.6724003718867898
1783695994432230000,4.93422998046875,-0.9754244105458258,0.7278869890481233,-0.6685330289341509
1783695994442194000,4.94419384765625,-0.9279419438809156,0.8260375666767358,-0.5664017111063003
1783695994452158000,4.954157958984375,-0.6990338195294141,0.8307561196312307,-0.4237263110419735
1783695994462122000,4.9641220703125,-0.4073316776126623,0.7848463091105222,-0.28501910222256555
1783695994472086300,4.974086181640625,-0.14806640892028808,0.729467243976891,-0.14979100422319025
1783695994482050300,4.98405029296875,0.023498949009180068,0.6414563675686716,-0.02813143111541867
1783695994492013000,4.994012939453125,0.08747545435726642,0.5374819060921668,0.017507124715857206
1783695994501977000,5.00397705078125,0.07747428482472896,0.4622705977633595,0.03452222813107073
1783695994511940900,5.01394091796875,0.0020867431461811066,0.4340773534581065,0.04855378569085151
1783695994521905200,5.0239052734375,-0.11507950059771536,0.4715475446745753,0.06141746851503849
1783695994531869200,5.033869140625,-0.2058446441501379,0.5139323959395289,0.03159855923671275
1783695994541833200,5.043833251953125,-0.1559212140738964,0.5526248224273324,-0.13463460735194385
1783695994551797200,5.05379736328125,-0.12556348521113395,0.5829278984934091,-0.28410014248043297
1783695994561760300,5.06376025390625,-0.10026771591305732,0.6320294907927513,-0.4278269878264516
1783695994571724300,5.073724365234375,-0.12831716783344746,0.6853831875786185,-0.5548848397811874
1783695994581688000,5.08368798828125,-0.21802841841876505,0.7401523041203618,-0.6586607464782893
1783695994591652000,5.093652099609375,-0.34288872379660607,0.8073837196111678,-0.6983603041820228
1783695994601616100,5.1036162109375,-0.44946927611827847,0.8795230731487274,-0.6395644163422286
1783695994611580200,5.113580078125,-0.4658382271170616,0.9104489572882651,-0.5796364922652021
1783695994621543200,5.123543212890625,-0.4133522530764341,0.8453761811360716,-0.5124215164525434
1783695994631507200,5.133507080078125,-0.3554612051218748,0.7972700296148657,-0.47035362218227234
1783695994641471200,5.14347119140625,-0.3417389692395925,0.7366013336405157,-0.4665856114182621
1783695994651435300,5.153435302734375,-0.3138514298826456,0.69121788508147,-0.47703028693459926
1783695994661399000,5.16339892578125,-0.2885807950258255,0.6703972153708339,-0.5194580640258267
1783695994671363000,5.173363037109375,-0.3017255232810974,0.6158206987917423,-0.5060913635829464
1783695994681327000,5.1833271484375,-0.25312778885066506,0.5704664763271808,-0.5228485101817175
1783695994691290000,5.1932900390625,-0.19547814843654632,0.5394549597308039,-0.5423463337907567
1783695994701254100,5.203254150390625,-0.17419862904250621,0.46873219499289986,-0.538088128357008
1783695994711218200,5.21321826171875,-0.12730536044239998,0.3960056892171502,-0.5980297886984423
1783695994721182200,5.22318212890625,-0.048612931999564166,0.3074716657176614,-0.6676621643837541
1783695994731146000,5.23314599609375,0.030024551385641095,0.20023118818253277,-0.7084298627756536
1783695994741110000,5.243110107421875,0.049531215888261794,0.10259557433873415,-0.7173863455608487
1783695994751074000,5.253073974609375,0.044968438017368315,0.04530307679921388,-0.6692403734859079
1783695994761037000,5.263037109375,0.08238017704486847,0.03595218786895275,-0.5739552682910114
1783695994771001000,5.2730009765625,0.12752397162914275,0.022448270912468433,-0.45186972485613075
1783695994780965000,5.282965087890625,0.15846388429403305,0.005512333680689334,-0.3889310015905648
1783695994790929200,5.29292919921875,0.1492640942722559,-0.03679126904159784,-0.366500266334787
1783695994800893200,5.30289306640625,0.0918465090483427,-0.12884089944660662,-0.4117570197742432
1783695994810857000,5.31285693359375,0.019583821392059324,-0.21038900958150625,-0.48628487588353453
1783695994820820000,5.322820068359375,-0.015782675543427466,-0.2865814379021525,-0.5080725639954209
1783695994830784000,5.332783935546875,-0.025573417195677756,-0.2899836475610733,-0.5288818720618262
1783695994840748000,5.342748046875,0.04848258361816406,-0.32251053715646266,-0.5143380906635895
1783695994850712000,5.352712158203125,0.15129706140458582,-0.3657578504696488,-0.4766115135332569
1783695994860676000,5.362676025390625,0.21902736632823944,-0.4057397322461009,-0.4922375737428665
1783695994870640000,5.37264013671875,0.26045184812843797,-0.4502425985783338,-0.5069992356754839
1783695994880604000,5.38260400390625,0.27472119649946686,-0.45825259429365395,-0.5231850486597046
1783695994890567200,5.392567138671875,0.17756489060521125,-0.5017503752365708,-0.5617950940936803
1783695994900531000,5.402531005859375,-0.00036766426861286163,-0.5431821635603904,-0.5748310282122343
1783695994910495000,5.412494873046875,-0.21652502811849117,-0.47425651137232777,-0.6248320535693317
1783695994920459000,5.422458984375,-0.38580139832794663,-0.39955110673904415,-0.6945973714519291
1783695994930423000,5.432423095703125,-0.43311435364484785,-0.43198155022263524,-0.7002134577680379
1783695994940387000,5.442386962890625,-0.40013212149739263,-0.4609384723767638,-0.8138333341419697
1783695994950350000,5.45235009765625,-0.29346096828281876,-0.5090986921727657,-0.8776614439953118
1783695994960314000,5.462314208984375,-0.17144436189830303,-0.544443854059279,-0.9479431139022111
1783695994970278100,5.472278076171875,-0.02864975590109825,-0.5431944385200739,-0.9593466975785792
1783695994980242000,5.482241943359375,0.11199556310772896,-0.5515674223288893,-0.9009844519156962
1783695994990206000,5.4922060546875,0.2018447608590126,-0.5548278854295611,-0.8584951173629611
1783695995000170000,5.502169921875,0.27582009765207766,-0.5412137860968709,-0.8001569101627916
1783695995010134000,5.512134033203125,0.3243734084188938,-0.5175938410565257,-0.7439292653758078
1783695995020097000,5.522096923828125,0.30699089646339417,-0.48765930604189633,-0.7209739217240363
1783695995030061000,5.53206103515625,0.16515490636527538,-0.4618459426105022,-0.6782119807749987
1783695995040025000,5.542025146484375,-0.05146306073367595,-0.4183060760915279,-0.6667259064469486
1783695995049988900,5.55198876953125,-0.2655471254408359,-0.3829769885569811,-0.7144638822428881
1783695995059953000,5.561952880859375,-0.32002281199395655,-0.3518883150711655,-0.7247657882876694
1783695995069917000,5.5719169921875,-0.30790391965508457,-0.3396472576573491,-0.6911424086924642
1783695995079880000,5.5818798828125,-0.19266542910337447,-0.34313919142633675,-0.6437546345736831
1783695995089844000,5.591843994140625,-0.04577683179080486,-0.30328678124845027,-0.6012670901192352
1783695995099808000,5.60180810546875,0.1079459954559803,-0.24367227050215004,-0.5836121909631415
1783695995109772000,5.61177197265625,0.18670213678479194,-0.1841913230076432,-0.5726120004558936
1783695995119736000,5.621736083984375,0.12155951026678084,-0.15996113711446522,-0.5453768971256912
1783695995129700000,5.6317001953125,-0.09665946228802204,-0.168973295609653,-0.5383149228502064
1783695995139664100,5.6416640625,-0.35759704810678955,-0.21399492511898277,-0.5154125514946878
1783695995149627000,5.651626953125,-0.5060042332887649,-0.31667437834888695,-0.4433180965447798
1783695995159591000,5.6615908203125,-0.5440267976909876,-0.4686635136708617,-0.3999496776025742
1783695995169555200,5.67155517578125,-0.4549819020599127,-0.5659451995104551,-0.48904897030200806
1783695995179519200,5.681519287109375,-0.3987649247974157,-0.6517445373490452,-0.6209995627343654
1783695995189483000,5.69148291015625,-0.44624154624342915,-0.7104749587371945,-0.7238483811818063
1783695995199447000,5.701447021484375,-0.5378256049633026,-0.7048056809291243,-0.8277496312916278
1783695995209410800,5.711410888671875,-0.61185237968266,-0.6024582361325621,-0.8926113219764084
1783695995219373800,5.721373779296875,-0.6856593741714954,-0.46125352967530486,-0.8613772486705332
1783695995229337900,5.731337890625,-0.7305243518143892,-0.3079839991539717,-0.7686947271894663
1783695995239302000,5.741302001953125,-0.7015268053889274,-0.13626140483617782,-0.6538525424789637
1783695995249266000,5.751265869140625,-0.5774217022925615,0.02118570363074541,-0.5504372127225622
1783695995259230000,5.76122998046875,-0.4540127647668123,0.11449088705480098,-0.4733442918982356
1783695995269194000,5.771194091796875,-0.2992243541151285,0.1753036676749587,-0.4331322911603376
1783695995279157000,5.781156982421875,-0.23129648079276083,0.15625293024629353,-0.3448413557017222
1783695995289121000,5.79112109375,-0.21025544632971285,0.08242167809903621,-0.26547968622781337
1783695995299084800,5.801084716796875,-0.2110726079314947,0.11174304965138435,-0.2734002135613933
1783695995309048800,5.811048828125,-0.19088263733983038,0.17060732655227184,-0.2955615938238799
1783695995319012900,5.821012939453125,-0.1139887827515602,0.24555910716205834,-0.3118896648230031
1783695995328977000,5.830976806640625,-0.06370820980072021,0.36227877618223425,-0.3471312202045694
1783695995338941000,5.84094091796875,-0.08998656039535999,0.49998073521554465,-0.3378044428022578
1783695995348904000,5.850904052734375,-0.14975041648447512,0.673394059099257,-0.3376866251088679
1783695995358868000,5.860867919921875,-0.21662848849296568,0.8092831234917044,-0.3088787925692275
1783695995368832000,5.87083203125,-0.2597065827190876,0.9046154288291931,-0.25320680890362707
1783695995378795800,5.880795654296875,-0.3030558951020241,0.9723746675863861,-0.14596874252129347
1783695995388759800,5.890759765625,-0.20693068582117558,0.999507004661858,-0.052276669538347045
1783695995398723800,5.900723876953125,-0.022948329389095305,0.9275596665650606,0.07042001893166452
1783695995408687900,5.91068798828125,0.2240957556337118,0.8142708487764,0.20046285978024825
1783695995418651000,5.92065087890625,0.5026029004126787,0.7214025954648852,0.3132116706743836
1783695995428615000,5.930614990234375,0.6720446903169155,0.5498945206806063,0.407705187100172
1783695995438579000,5.940578857421875,0.7465332373291254,0.37822599463760853,0.46525399748831986
1783695995448542700,5.950542724609375,0.7581886038094758,0.22978490718603134,0.4742436518907547
1783695995458506800,5.9605068359375,0.7414332838416099,0.1400795018196106,0.44939277681596573
1783695995468470800,5.970470703125,0.6956944459736347,0.11184154158979653,0.38813791498411443
1783695995478434800,5.980434814453125,0.6067898355960846,0.12739450003057717,0.28363992282385003
1783695995488397800,5.990397705078125,0.488260486805439,0.18288170171380042,0.10645613135755992
1783695995498361900,6.00036181640625,0.3791635677486658,0.26427462128698825,-0.13784738625283352
1783695995508326000,6.010325927734375,0.2922095069169998,0.35081922453492875,-0.38808823062349107
1783695995518290000,6.0202900390625,0.14357494271993637,0.4181871258869767,-0.5787819943277165
1783695995528253700,6.030253662109375,-0.03350421019494533,0.4892091658324003,-0.7287029816061258
1783695995538217700,6.0402177734375,-0.254427765533328,0.5247714776009321,-0.7822593613572418
1783695995548180700,6.0501806640625,-0.47083238214254375,0.5733987303867936,-0.7379887694109231
1783695995558144800,6.060144775390625,-0.5801783075243234,0.6228899065256118,-0.6558323911845684
1783695995568108800,6.07010888671875,-0.49873161193728444,0.6227379308342933,-0.5649472014490514
1783695995578072800,6.08007275390625,-0.3328729412168264,0.542164510950446,-0.48842448172811415
1783695995588036900,6.090036865234375,-0.11372808598875998,0.44016777928769585,-0.42056927178315817
1783695995598000600,6.100000732421875,0.07598083139657974,0.3773600254580378,-0.4168461961394176
1783695995607964700,6.109964599609375,0.16464403423368928,0.3005827829867601,-0.45757221081405874
1783695995617927700,6.119927734375,0.1281143387377262,0.23798399573266504,-0.4886305622268468
1783695995627891700,6.1298916015625,0.020848726761341092,0.20238632038980722,-0.4896014530856162
1783695995637855700,6.139855712890625,-0.06865501855313777,0.14969459464401005,-0.45906526238340883
1783695995647819800,6.14981982421875,-0.14608020353913306,0.1411570679232478,-0.4456076687866822
1783695995657783800,6.15978369140625,-0.2346627423554659,0.16675006660223007,-0.43496966265533116
1783695995667747800,6.169747802734375,-0.26744974419176576,0.1823968408063054,-0.4290246366458013
1783695995677711600,6.179711669921875,-0.1963110921293497,0.2160743617415428,-0.42815322410613293
1783695995687675000,6.1896748046875,-0.10510229646265506,0.2264849888578057,-0.4107935085043311
1783695995697638700,6.199638671875,-0.021671149060130117,0.2177384955614805,-0.422086507945694
1783695995707602700,6.209602783203125,0.04924304659664631,0.1944032126814127,-0.46452250487599517
1783695995717566700,6.219566650390625,0.053474400556087494,0.14495470664054155,-0.4874155969465151
1783695995727530800,6.22953076171875,0.009250058904290199,0.06388210506290197,-0.5238602079749107
1783695995737494800,6.239494873046875,-0.04274082509577274,-0.0010638298392295837,-0.546265808789432
1783695995747458800,6.249458740234375,-0.08155249404907226,-0.08116349473148583,-0.5362393952177837
1783695995757421800,6.259421875,-0.09286007000505923,-0.1494607858881354,-0.48602253515291954
1783695995767385600,6.269385498046875,-0.06898176628947257,-0.1923234837979078,-0.42799554932639
1783695995777349600,6.279349609375,-0.00007715688943862914,-0.22122195376306772,-0.3588210369437933
1783695995787314000,6.28931396484375,0.027803952726721762,-0.2583160051435232,-0.2432550862696953
1783695995797278000,6.29927783203125,0.014481529816985129,-0.24596447309255598,-0.16360000507347286
1783695995807242000,6.309241943359375,0.0013023147702217101,-0.27003099285662174,-0.15083892410723493
1783695995817206000,6.3192060546875,-0.030818916633725164,-0.2956754294618964,-0.13385289152287877
1783695995827169000,6.3291689453125,-0.12168459795117377,-0.33960166494995353,-0.17091684915916994
1783695995837133000,6.339133056640625,-0.16954057410359383,-0.3794803786128759,-0.21186485428772867
1783695995847096800,6.349096923828125,-0.17178864529132842,-0.4513163652896881,-0.2870308256374672
1783695995857060900,6.359060791015625,-0.13415887959897518,-0.5153951619684696,-0.34904012256581335
1783695995867025000,6.36902490234375,-0.06442483363747596,-0.5895093227103352,-0.3577147196697071
1783695995876989000,6.378989013671875,0.0031336218506097793,-0.6346697761684655,-0.33525201837308705
1783695995886953000,6.388952880859375,0.104181089964509,-0.720683049018681,-0.30295910193035375
1783695995896916000,6.398916015625,0.2696650821536779,-0.8334054650962353,-0.23765202383194117
1783695995906880000,6.4088798828125,0.40843525494039057,-0.967158394242823,-0.13742069440651683
1783695995916843800,6.41884375,0.5147095177918672,-1.0181491612896323,-0.087981476783799
1783695995926807800,6.428807861328125,0.5432020373046398,-0.9186129745215177,-0.2005439439261332
1783695995936771800,6.438771728515625,0.3838619546979666,-0.786750973688066,-0.38073534711003304
1783695995946735900,6.44873583984375,0.10533318260908127,-0.6271589621469378,-0.5186428021201863
1783695995956699000,6.458698974609375,-0.16462123787999153,-0.4645663074851036,-0.576966140544787
1783695995966663000,6.468662841796875,-0.2675485283911228,-0.27800533273667094,-0.5727132323406636
1783695995976627000,6.478626953125,-0.23801848252415655,-0.09009937312006949,-0.5722048444271087
1783695995986591000,6.488591064453125,-0.12953648049533367,0.004378068953752518,-0.5077108910761773
1783695995996554800,6.4985546875,-0.08231529511511325,-0.012860358355939388,-0.4376286161988973
1783695996006518800,6.508518798828125,-0.002761281406879425,-0.016909049224853513,-0.4184754778416827
1783695996016482800,6.51848291015625,0.09974515334367752,-0.04291209000945091,-0.44758364503476766
1783695996026445800,6.52844580078125,0.2361567803055048,0.022301848179101944,-0.4613979796472937
1783695996036409900,6.538409912109375,0.3741828567266464,0.03180734314918518,-0.4884179789220914
1783695996046374000,6.548373779296875,0.4275023589819669,-0.009282792130112648,-0.4891018330004066
1783695996056338000,6.558337890625,0.3777197986811399,0.0036509237229824065,-0.5530967142554
1783695996066301700,6.5683017578125,0.20397008244991302,0.08512392279505729,-0.646431525632739
1783695996076265700,6.578265625,-0.16324235074222088,0.21632015319615602,-0.7987704973056912
1783695996086229800,6.588229736328125,-0.599045505079627,0.41634968132674693,-0.9524102493789046
1783695996096192800,6.59819287109375,-0.9833844296395778,0.603545739108324,-1.0811483460381626
1783695996106156800,6.60815673828125,-1.241816170117259,0.8031094032928348,-1.1992608576562256
1783695996116120800,6.618120849609375,-1.3895833038300276,0.9543395369410514,-1.3282679805152118
1783695996126084900,6.6280849609375,-1.4199755194842814,1.1081266615957022,-1.418005096194148
1783695996136049000,6.638048828125,-1.3294272335529327,1.1507076199546455,-1.461109201644361
1783695996146012700,6.6480126953125,-1.1642442701369524,1.137996899202466,-1.555882265663892
1783695996155976000,6.657975830078125,-0.9865274038404226,1.0056114590168,-1.6247311993539333
1783695996165939700,6.667939697265625,-0.7831798372030258,0.8721306248098611,-1.6741367430359124
1783695996175903700,6.67790380859375,-0.6074070907115936,0.7772115764483809,-1.5992464833550155
1783695996185867800,6.68786767578125,-0.47173839107155796,0.7129097846686839,-1.4476592068322003
1783695996195832300,6.697832275390625,-0.36910453054904935,0.6459855354309082,-1.2846464270621538
1783695996205796400,6.70779638671875,-0.24072364982962607,0.5830787051409483,-1.1160424031563103
1783695996215760100,6.717760009765625,-0.0753986475944519,0.4735220596179366,-0.9767858350921421
1783695996225723400,6.727723388671875,0.10541969184875488,0.2922007390886545,-0.8925698939874768
1783695996235687200,6.737687255859375,0.2826063967913389,0.18833353737890718,-0.9360546693183481
1783695996245651200,6.747651123046875,0.2977998742699623,0.14674422040581703,-1.0393866681728512
1783695996255615200,6.757615234375,0.1825900252908468,0.16694588143527506,-1.1472159053813666
1783695996265579300,6.767579345703125,0.03406301312148571,0.27056846073418855,-1.1999083617795259
1783695996275543300,6.777543212890625,-0.02553834588229656,0.3926256913900375,-1.176132568590343
1783695996285507300,6.78750732421875,-0.026986791124939916,0.5165566069632769,-1.161415038060397
1783695996295470300,6.79747021484375,0.015461188504099844,0.6004328677847981,-1.0941009857874362
1783695996305434000,6.80743408203125,0.10436521435976027,0.6977738825961947,-0.9794215173579752
1783695996315398100,6.817398193359375,0.19748948825895785,0.7430003870278596,-0.9352272785834967
1783695996325362200,6.827362060546875,0.27961656732559204,0.6937579249531031,-0.9034189125210046
1783695996335326500,6.837326416015625,0.35887072130441666,0.6270993409141897,-0.8900156063947826
1783695996345290500,6.84729052734375,0.28038170647919175,0.4559653601393103,-0.8458870532676577
1783695996355253200,6.857253173828125,0.15438801315724848,0.23481501030772922,-0.7672895365666598
1783695996365217300,6.86721728515625,0.13443418940901755,0.22290976071953772,-0.717440194639936
1783695996375181300,6.877181396484375,0.14611995102763176,0.18631752138137816,-0.6671250618323683
1783695996385145300,6.887145263671875,0.23600948078930375,0.09088818541020155,-0.5466987933792173
1783695996395109400,6.897109375,0.37632162232100963,0.014740473014116287,-0.5000180715512484
1783695996405073400,6.907073486328125,0.5245154570132494,-0.0770586897611618,-0.45949733365774154
1783695996415037400,6.917037353515625,0.6312012232750653,-0.1845934740677476,-0.3981389749187976
1783695996425000400,6.92700048828125,0.6562561695545911,-0.2713298004955053,-0.3207407510049641
1783695996434964500,6.936964599609375,0.6218512111276387,-0.30648879216015334,-0.29976152973175046
1783695996444928500,6.946928466796875,0.4545885188281536,-0.38370208796113725,-0.2856489062923938
1783695996454892300,6.956892333984375,0.2430091304183006,-0.40287703629136085,-0.3282959156248718
1783695996464856300,6.966856201171875,0.11183481958806514,-0.35883331190347667,-0.36673275991640986
1783695996474820400,6.9768203125,0.05679097775816917,-0.32785920470803975,-0.429280620700866
1783695996484784400,6.986784423828125,0.030852818903326987,-0.3220052179828286,-0.47991621763445436
1783695996494747400,6.996747314453125,0.09809972422420978,-0.2620700969800353,-0.5439779901131987
1783695996504711400,7.00671142578125,0.1220581074386835,-0.3239209884762764,-0.5280589748390019
1783695996514675500,7.016675537109375,0.09242226310968399,-0.36638854958862066,-0.4573031846143305
1783695996524639500,7.026639404296875,0.018352818292379378,-0.3464589834988117,-0.30236798590309916
1783695996534603300,7.036603271484375,-0.15543430733978747,-0.27338293363302946,-0.16726999882310628
1783695996544567300,7.0465673828125,-0.3199994311183691,-0.16845540921539068,-0.09364332933723926
1783695996554531300,7.05653125,-0.41178281180262566,-0.12275310396552085,-0.037518122011423106
1783695996564494300,7.066494384765625,-0.42137364696860313,-0.18924100761264562,-0.010554638696834444
1783695996574458400,7.076458251953125,-0.36207156317234035,-0.2502303138434887,0.04953391930200159
1783695996584422400,7.08642236328125,-0.2874117512464523,-0.3199284117087722,0.049536841911450025
1783695996594386400,7.096386474609375,-0.2345177809268236,-0.380631009952724,-0.02746025385558605
1783695996604350200,7.10635009765625,-0.2087947261273861,-0.41199148611724373,-0.12293109088093042
1783695996614314200,7.116314208984375,-0.21772271347045896,-0.4339890906527638,-0.15474486377090216
1783695996624278300,7.1262783203125,-0.22812837215065954,-0.45388153960257765,-0.16345080586113034
1783695996634241300,7.1362412109375,-0.25899405053555963,-0.4956956052422523,-0.1544172392517328
1783695996644205300,7.146205322265625,-0.30997604975402354,-0.550038605326414,-0.14340068213157356
1783695996654169300,7.15616943359375,-0.36456571807563304,-0.7000754375368357,-0.057486120415478945
1783695996664133400,7.16613330078125,-0.35039632294774054,-0.8759916841521859,0.12144165604077278
1783695996674097400,7.176097412109375,-0.24520693272352218,-0.9117369512721896,0.15637969843111932
1783695996684061200,7.186061279296875,-0.17486966017186642,-0.9589107903793453,0.20391104573905466
1783695996694025200,7.196025146484375,-0.16603578085303305,-1.0007038132309913,0.2775822850190103
1783695996703988200,7.20598828125,-0.19766718291342258,-0.9792983293697237,0.23065748876947909
1783695996713952300,7.2159521484375,-0.2772510072380304,-0.9715227269321679,0.032829416205920274
1783695996723916300,7.225916259765625,-0.2669675136327743,-0.8987839461967349,-0.19250074006095527
1783695996733880300,7.23588037109375,-0.25715046849548817,-0.7789055208846927,-0.37768958620596677
1783695996743844400,7.24584423828125,-0.3952484411090612,-0.6269418122649193,-0.5084563391486182
1783695996753808400,7.255808349609375,-0.5150093775212764,-0.41710868300050497,-0.5815706386655569
1783695996763772200,7.265772216796875,-0.5611947901129722,-0.26913375175595283,-0.6508554064895957
1783695996773735200,7.275735107421875,-0.45505555181801316,-0.09802519768327474,-0.6908692177742719
1783695996783699200,7.28569921875,-0.29310674801766873,-0.00999590883553028,-0.7055391097702085
1783695996793663200,7.295663330078125,-0.15873393340706823,-0.04854191258996725,-0.7086657173581421
1783695996803627300,7.305627197265625,-0.19059096091687677,-0.13733955546170473,-0.6635347822554409
1783695996813591300,7.31559130859375,-0.36024259417951104,-0.18527824146151542,-0.6218081026382744
1783695996823555300,7.325555419921875,-0.4795891045719385,-0.11218056428581476,-0.6255149943321943
1783695996833519000,7.33551904296875,-0.5147878437250852,0.07372749951183795,-0.5681305441929028
1783695996843483100,7.345483154296875,-0.43619595304727554,0.2982563858658075,-0.42272210243549196
1783695996853446100,7.355446044921875,-0.27252280967235565,0.49450142702162264,-0.264090862217918
1783695996863410200,7.36541015625,-0.09527239184379577,0.6389625049263239,-0.17625596343111247
1783695996873374200,7.375374267578125,0.050744098809361454,0.6992275885358452,-0.1097930115621537
1783695996883338200,7.385338134765625,0.13564999493956564,0.7371686121344566,0.015563114508613944
1783695996893302500,7.395302490234375,0.16132687250971794,0.7366217919066548,0.18028335578367113
1783695996903266300,7.405266357421875,0.16782091070413588,0.6998904363587498,0.3118007809631526
1783695996913230300,7.415230224609375,0.19229250413775442,0.6228855226114391,0.3475240554470569
1783695996923193300,7.425193359375,0.22718203121125696,0.5457265873461962,0.380330200375244
1783695996933157000,7.4351572265625,0.2631108382046223,0.42817660498172044,0.44959951490182426
1783695996943121400,7.445121337890625,0.23519115014374256,0.3377475615158677,0.5350734567109495
1783695996953085400,7.45508544921875,0.14115677566230297,0.26770488799661396,0.6195861888051033
1783695996963049500,7.465049560546875,-0.06105155781209468,0.21623276717364787,0.6742464381448924
1783695996973013500,7.475013427734375,-0.21516016950607297,0.23796646007597444,0.6633560646876693
1783695996982977300,7.484977294921875,-0.22313421712517736,0.3050505760505795,0.5926548541944474
1783695996992940500,7.4949404296875,-0.14703940396010876,0.3687348204538226,0.43553390894196925
1783695997002904300,7.504904296875,-0.030823592808842656,0.46761546592265363,0.23875775658413767
1783695997012868400,7.514868408203125,0.030340777727961538,0.5526902888789773,0.012627572513371705
1783695997022832400,7.524832275390625,0.002229366487264633,0.6169783443942666,-0.16855861386153845
1783695997032796400,7.53479638671875,-0.10800327860116958,0.735588064944744,-0.32388156978134064
1783695997042760400,7.544760498046875,-0.18523381779789924,0.7928931297048926,-0.4866000062473118
1783695997052724500,7.554724365234375,-0.2810322793424129,0.820774239321053,-0.5492393081748858
1783695997062687500,7.5646875,-0.295855169942975,0.8517495155602693,-0.5143341451408341
1783695997072651300,7.5746513671875,-0.2567874804019928,0.8138751274570822,-0.3839154384508729
1783695997082615300,7.584615234375,-0.15461656121611594,0.7824901013731956,-0.21299952087346463
1783695997092579300,7.594579345703125,0.006851765590906143,0.7638216412603854,-0.10406542769558727
1783695997102543400,7.60454345703125,0.17888591007590293,0.626675562544167,-0.012040091481618583
1783695997112507400,7.61450732421875,0.29603695625066756,0.4521791195988655,0.04730692743491381
1783695997122471400,7.624471435546875,0.40613633034825325,0.30530542759448287,0.060254343019798394
1783695997132434400,7.634434326171875,0.471094832471013,0.1427192026734352,0.08856836416050791
1783695997142398500,7.6443984375,0.5678986716657877,0.006368073727190495,0.05838336151614785
1783695997152362200,7.6543623046875,0.6258756443381309,-0.12599047845155,0.021191950708441435
1783695997162326300,7.664326171875,0.5808721350073814,-0.20563860018402336,0.013893281600251793
1783695997172290300,7.674290283203125,0.4512152430027723,-0.24654753367751836,-0.015990801868773996
1783695997182254300,7.68425439453125,0.31795418902635575,-0.2650906138449907,-0.06072904785946011
1783695997192218400,7.69421826171875,0.1971475429534912,-0.29995909813046456,-0.08875146564245223
1783695997202181000,7.70418115234375,0.175718970477581,-0.28760172086060043,-0.15276190979275853
1783695997212145200,7.714145263671875,0.11977671850323676,-0.2727250542461872,-0.23773568352740257
1783695997222109400,7.724109375,0.025721885755658147,-0.2742594242066145,-0.2763811108020134
1783695997232073200,7.7340732421875,-0.06578969224989414,-0.2552928579300642,-0.3796483190583065
1783695997242037200,7.744037353515625,-0.15922434727251528,-0.23159283339083192,-0.4812697511352598
1783695997252001300,7.754001220703125,-0.2810334483861923,-0.21469489008188247,-0.5327247016277163
1783695997261965300,7.76396533203125,-0.32977439067959785,-0.1719011657550931,-0.5741431920785457
1783695997271928300,7.77392822265625,-0.26638591435253617,-0.13174918810874223,-0.5821832176059484
1783695997281892400,7.783892333984375,-0.19335165780186653,-0.1343757372200489,-0.48136159413717683
1783695997291856400,7.7938564453125,-0.11747194869220257,-0.10847118837386369,-0.37440873790439216
1783695997301820200,7.803820068359375,-0.08777005338966846,-0.0719178197413683,-0.31803649701494724
1783695997311784200,7.8137841796875,-0.12338029595315456,-0.024138708217442035,-0.24613226740751415
1783695997321748200,7.823748291015625,-0.17326514758467673,0.030073943485319613,-0.1993693106561899
1783695997331712300,7.833712158203125,-0.2670633752226829,0.0907724500760436,-0.19351795427948235
1783695997341675300,7.84367529296875,-0.3751543321073055,0.18040449794530866,-0.19976174403987823
1783695997351639300,7.853639404296875,-0.4252069415211677,0.23054390885978937,-0.2240655066259205
1783695997361603300,7.863603271484375,-0.38377076928317544,0.22575930493175983,-0.2617831149985082
1783695997371567400,7.8735673828125,-0.33664018479585645,0.1652335245594382,-0.25868514898316936
1783695997381531100,7.88353125,-0.31126082886755463,-0.04875789342820644,-0.08871069524064659
1783695997391495200,7.8934951171875,-0.2609112823337316,-0.35374475659281013,0.20218425847906618
1783695997401459200,7.903459228515625,-0.13501929582059383,-0.504653695462644,0.2344610092382878
1783695997411422200,7.913422119140625,-0.10626900215446948,-0.41982144909054037,0.037066944177821276
1783695997421386200,7.92338623046875,-0.18305004401803016,-0.32828532116562126,-0.11976329276608302
1783695997431350300,7.933350341796875,-0.3094032183021307,-0.29757921725660563,-0.0911578691970557
1783695997441314300,7.943314208984375,-0.369524801787734,-0.26570436182916163,-0.05028656430020928
1783695997451278300,7.9532783203125,-0.37432372650206086,-0.20685645154118537,-0.15674297878555954
1783695997461242000,7.9632421875,-0.3824731306880712,-0.10886837099790572,-0.21904926763279362
1783695997471206100,7.9732060546875,-0.4278881434291601,-0.02474105802476406,-0.12610643298141658
1783695997481169200,7.983169189453125,-0.45243397114276884,0.023209318412840366,-0.07002031555697322
1783695997491133200,7.99313330078125,-0.3899824834048748,0.06816811181902885,-0.04302355102729052
1783695997501097200,8.00309716796875,-0.29240765983760353,0.11269494354873895,-0.06151395115945488
1783695997511061200,8.013061279296876,-0.2186322295308113,0.17584873433709144,-0.1397595126176253
1783695997521025300,8.023025390625,-0.21551088263988494,0.21538082651942966,-0.21416838198974728
1783695997530989000,8.032989013671875,-0.2623924608021974,0.22441724267303942,-0.27747893424239006
1783695997540953000,8.042953125,-0.30420097348392006,0.31038258472830055,-0.3843370613964274
1783695997550916000,8.052916015625,-0.34532559555470943,0.3906090908706188,-0.4725623477403074
1783695997560880000,8.062880126953125,-0.39517479135096073,0.5063108150199055,-0.5234805244749412
1783695997570844200,8.07284423828125,-0.40770343353450295,0.6525602376461028,-0.6312218276716768
1783695997580808200,8.08280810546875,-0.42748014715015886,0.7692775685787201,-0.7354523828011006
1783695997590772200,8.092772216796876,-0.47401218122243877,0.8622703250527382,-0.8372484042599797
1783695997600736300,8.102736328125,-0.5664139860659837,0.921160028655827,-0.9451251338720321
1783695997610700000,8.112699951171875,-0.5730839653491974,0.9332371276795863,-1.093979186038673
1783695997620663000,8.1226630859375,-0.4758668691784143,0.9038032356634735,-1.260501873625815
1783695997630627000,8.132626953125,-0.3658352996200323,0.8391913550212979,-1.3556836645767092
1783695997640591000,8.142591064453125,-0.26127719303667546,0.8086030322730541,-1.3650488742932676
1783695997650555100,8.15255517578125,-0.2068774943292141,0.7867655867353082,-1.3713102727755904
1783695997660519200,8.162519287109374,-0.12868015592694282,0.76964143345505,-1.3727905744612217
1783695997670483200,8.172483154296875,-0.0040057285100221635,0.6556658024460077,-1.2613564446285366
1783695997680447000,8.182447021484375,0.10408581289649009,0.5054059751346707,-1.1486925538051873
1783695997690410200,8.19241015625,0.19952362443506716,0.39771541574448344,-1.0925213153805584
1783695997700374000,8.2023740234375,0.3783037360489368,0.2519742349013686,-1.0603133555412292
1783695997710338000,8.212338134765625,0.5487924046576023,0.05510375532358885,-0.9683226887818426
1783695997720302000,8.222302001953125,0.6934212403446436,-0.1161307632163167,-0.9292175167746841
1783695997730266000,8.23226611328125,0.7318833652079105,-0.22391806097924707,-0.9768637956991791
1783695997740230100,8.242230224609376,0.6987889048576355,-0.30100626909583805,-1.0370349904801697
1783695997750194400,8.2521943359375,0.6136737498909235,-0.301347629879415,-1.1025251152615994
1783695997760157200,8.2621572265625,0.4731786530077457,-0.16756898176968096,-1.176209579349309
1783695997770121200,8.272121337890624,0.28322657451629635,-0.019564532169699667,-1.26589628001526
1783695997780085000,8.2820849609375,0.12595102322399615,0.16047522411644458,-1.305664665171504
1783695997790049300,8.29204931640625,0.013140052080154419,0.2887389081969857,-1.2582646160930395
1783695997800013300,8.302013427734375,-0.07849427552223205,0.37201954121291636,-1.1464943861737846
1783695997809977300,8.311977294921874,-0.1094014549612999,0.43792643010169263,-1.040904306194186
1783695997819941400,8.32194140625,-0.13442483705878258,0.4579012966379523,-0.9707040309604257
1783695997829904400,8.331904296875,-0.12165011115968227,0.4252472735315561,-0.915728578191623
1783695997839868400,8.341868408203124,-0.032271453529596324,0.3501780040219426,-0.8868282815955578
1783695997849832200,8.351832275390626,0.06880874781012535,0.2171031202673912,-0.8400475334592163
1783695997859796200,8.361796142578125,0.15783844587206838,0.11117255628705024,-0.819750156970322
1783695997869760300,8.37176025390625,0.1820680472433567,-0.044943011315166946,-0.8320872221045196
1783695997879724300,8.381724365234374,0.1651484766244888,-0.1769914746314287,-0.8902261073403059
1783695997889688300,8.391688232421876,0.1576858856588602,-0.25233839203864333,-0.9067109398037194
1783695997899651300,8.4016513671875,0.1610439639151096,-0.3304822466880083,-0.8485205435764044
1783695997909615400,8.411615478515625,0.17307693153619766,-0.3729474697127938,-0.7678416905567049
1783695997919579400,8.421579345703124,0.13802490737736225,-0.3975023575156927,-0.76597195116207
1783695997929543200,8.431543212890626,0.042534488868713374,-0.40002077007740733,-0.7971529060412198
1783695997939507200,8.441507080078125,-0.04094926550388336,-0.36359015104174613,-0.8028737679060548
1783695997949471200,8.45147119140625,-0.06626140141487122,-0.39995588814765215,-0.7605767410550266
1783695997959434200,8.461434326171876,-0.07508651290535927,-0.40298721866756676,-0.7350334998019039
1783695997969398300,8.471398193359375,-0.06161620595753192,-0.3938245457857847,-0.7473983297258615
1783695997979362300,8.4813623046875,-0.02004325559735298,-0.4196560293957591,-0.7196112550687045
1783695997989326300,8.491326416015625,0.009853285494446754,-0.433701505883038,-0.6730867467157542
1783695997999290000,8.5012900390625,0.05845160444676876,-0.4528367067247629,-0.6492547663599252
1783695998009254100,8.511254150390625,0.09890577991008757,-0.4234805561199784,-0.5801432362109422
1783695998019218200,8.52121826171875,0.1292512338131666,-0.3579422082826495,-0.4722570811834186
1783695998029181200,8.53118115234375,0.1986602856040001,-0.310958046528697,-0.3679525109697133
1783695998039145200,8.541145263671876,0.20528817931115625,-0.2882657377272844,-0.22854170219190417
1783695998049109200,8.551109130859375,0.17044015329182147,-0.2544578684106469,-0.2291499702833593
1783695998059073300,8.5610732421875,0.09463000228703021,-0.2074900732696056,-0.23833763147592543
1783695998069037300,8.571037353515624,0.036981530916690826,-0.1695242074906826,-0.230387476189062
1783695998079001000,8.5810009765625,0.025697920358180998,-0.18309008376747368,-0.33105580879226326
1783695998088965000,8.590965087890625,0.07891688484847545,-0.2465060326233506,-0.4807112404696643
1783695998098928000,8.60092822265625,0.11430208648443221,-0.3337415407449007,-0.5985986746275798
1783695998108892200,8.61089208984375,0.12953764953911304,-0.4064046258956194,-0.720319476403296
1783695998118856200,8.620856201171875,0.13598083432912825,-0.4348892543628812,-0.7706047255292534
1783695998128820200,8.6308203125,0.08187573465406894,-0.4374313400611281,-0.7679480735406279
1783695998138784300,8.6407841796875,-0.000021627309918403625,-0.41702451184839007,-0.7225199090570211
1783695998148748000,8.650748046875,-0.12846329830586908,-0.4389399910584092,-0.6342101958326996
1783695998158712000,8.660712158203125,-0.20121523078382014,-0.512222084890306,-0.509199631796591
1783695998168675000,8.670675048828125,-0.14515198277831076,-0.671887161667645,-0.4042754318471998
1783695998178639000,8.68063916015625,-0.07008592813909054,-0.8518298873201012,-0.4091663091612979
1783695998188603100,8.69060302734375,0.007848959934711457,-0.8452668755427002,-0.5874684279998764
1783695998198567400,8.7005673828125,0.021710896548628806,-0.8584326465860008,-0.837187540918216
1783695998208531500,8.710531494140625,0.002900397616624832,-0.8623162100210785,-1.0577687856249511
1783695998218495500,8.72049560546875,-0.11124269891381264,-0.714823217074573,-1.3496036140106618
1783695998228459300,8.730459228515626,-0.3478051374107599,-0.5546805859133601,-1.650661613293737
1783695998238422300,8.74042236328125,-0.6283797361135482,-0.38715778137296436,-1.7282184618353842
1783695998248386300,8.75038623046875,-0.8526718911021948,-0.17901888880580663,-1.5844111716642975
1783695998258350300,8.760350341796874,-0.9357985026001929,-0.009881050284206867,-1.339557290162146
1783695998268314400,8.770314453125,-0.8117267172515392,0.14867898786067962,-1.1318423220954834
1783695998278278400,8.7802783203125,-0.5445037675529718,0.21035949122607706,-0.9273794876925646
1783695998288242400,8.790242431640625,-0.23958207857906816,0.2283095739364624,-0.8004742324836551
1783695998298206200,8.800206298828124,-0.15476970595121384,0.11495324386954307,-0.8561399325389415
1783695998308169500,8.81016943359375,-0.28677462238669393,0.037113048341870306,-1.0680639696680008
1783695998318133200,8.82013330078125,-0.5638274767041206,0.04691898756325245,-1.239549978750944
1783695998328097300,8.83009716796875,-0.7868810298085213,0.13315817812383174,-1.3602278838776052
1783695998338061300,8.840061279296876,-0.7775596592336893,0.27473873215615746,-1.4437655603945254
1783695998348025300,8.850025390625,-0.6138099434912204,0.4170873479515314,-1.4230615028008817
1783695998357989400,8.8599892578125,-0.3876367970615625,0.6158838271558285,-1.3469777955517173
1783695998367952400,8.869952392578124,-0.21736615511775015,0.8037029852718114,-1.2738555684566497
1783695998377916400,8.87991650390625,-0.1561573609173298,0.9134674283266067,-1.1485007575601338
1783695998387880400,8.88988037109375,-0.17766075219511984,1.0335457601249218,-1.040547601711005
1783695998397844200,8.89984423828125,-0.2342611758172512,1.1039742180913685,-1.0118998916365205
1783695998407808300,8.909808349609374,-0.240936415797472,1.2061200028359889,-0.9837439836669712
1783695998417772300,8.919772216796876,-0.2749965063095093,1.2298814021736382,-0.9103004156630485
1783695998427736300,8.929736328125,-0.27277532312870023,1.2313204950660466,-0.7690965859886258
1783695998437699300,8.93969921875,-0.24241934783160685,1.1622598183214663,-0.6803292651899159
1783695998447663400,8.949663330078126,-0.1526741949766874,1.105685698184371,-0.5938713173121214
1783695998457627400,8.95962744140625,-0.03258125013113022,1.0358961226433514,-0.46982758901417254
1783695998467591200,8.969591064453125,0.07353636085391044,0.9342068494945764,-0.33097273361869156
1783695998477555200,8.97955517578125,0.038624621948599815,0.7798211744248866,-0.1998804019834846
1783695998487519200,8.989519287109376,-0.03999415673613548,0.7154273204475641,-0.12022424307502806
1783695998497483300,8.999483154296875,-0.13503624695539473,0.6222533621877432,-0.10226670771054923
1783695998507446300,9.0094462890625,-0.2679115164846182,0.5306657963365317,-0.18066358727291226
1783695998517410300,9.019410400390624,-0.3375760043412447,0.5462368749558926,-0.3545498624306172
1783695998527374300,9.029374267578126,-0.39104572872221466,0.562556726115942,-0.5907068619318306
1783695998537338400,9.03933837890625,-0.5081161108762026,0.5926455749094486,-0.7872558544702828
1783695998547302100,9.04930224609375,-0.670268328294158,0.6889975786834954,-1.0192479163117707
1783695998557266200,9.05926611328125,-0.7953875768691301,0.7801397388547658,-1.230878742647916
1783695998567229200,9.069229248046875,-0.8860305553466081,0.8969277969360351,-1.2853688961178065
1783695998577193200,9.079193115234375,-0.9698223527550697,1.0241372957885264,-1.2731255006164313
1783695998587157200,9.0891572265625,-1.0173778846561907,1.1572674168616532,-1.2103443425327538
1783695998597121300,9.099121337890624,-0.9647557170152664,1.2720786219120024,-1.0810931817848235
1783695998607085300,9.109085205078125,-0.8569389008969068,1.315717272630334,-0.9498745934214442
1783695998617049300,9.11904931640625,-0.7525216640889644,1.2914467547267674,-0.8349418808832764
1783695998627012400,9.129012451171874,-0.6372562855303288,1.1933926232099532,-0.7400908562567085
1783695998636976000,9.13897607421875,-0.4788046761959791,1.074372276031971,-0.6686639618374407
1783695998646940200,9.148940185546875,-0.287188463884592,0.9172925395727157,-0.5790783834584057
1783695998656904200,9.158904296875,-0.08849895218610764,0.7270505382239818,-0.435631195303984
1783695998666868200,9.1688681640625,0.07359189043343067,0.5678682765275239,-0.27592472707033155
1783695998676832500,9.17883251953125,0.19570260484218596,0.4465536809325218,-0.18201160434838384
1783695998686796500,9.188796630859375,0.2686678878098726,0.35912323476076125,-0.1479748216466978
1783695998696759300,9.19875927734375,0.30407354771196843,0.2710913155645132,-0.1075916290603578
1783695998706723300,9.208723388671874,0.23877310028374193,0.19666472787261008,-0.10763426262568682
1783695998716687400,9.218687255859376,0.13241641984581948,0.171658881431818,-0.1481116728341207
1783695998726651400,9.2286513671875,-0.03265957606434822,0.2319599131375551,-0.22543047483619302
1783695998736615400,9.238615478515625,-0.2555108845949173,0.3444344919338822,-0.290129449239932
1783695998746579500,9.248579345703124,-0.49819034466743467,0.4474947611749172,-0.3675984733676538
1783695998756543500,9.25854345703125,-0.7224538580834865,0.5819347958028316,-0.4580870284684002
1783695998766506500,9.268506591796875,-0.8632575825244188,0.6675137688890099,-0.5691157923705875
1783695998776470500,9.278470458984375,-0.8897083670765161,0.7284469610184431,-0.6719771780386566
1783695998786434300,9.288434326171876,-0.8138286579668521,0.7882274759814143,-0.6287117445468903
1783695998796398300,9.2983984375,-0.7318968092113732,0.8512760528296232,-0.5255475765399634
1783695998806362400,9.3083623046875,-0.6403244409292936,0.9292068492501974,-0.3810079169737175
1783695998816326400,9.318326416015625,-0.5752455272972583,1.022409156821668,-0.24983777086194603
1783695998826289400,9.328289306640626,-0.4847562780767679,1.052955978515744,-0.159051657586731
1783695998836253400,9.33825341796875,-0.4349813165605068,1.0115969631671904,-0.11331260052304715
1783695998846217500,9.348217529296875,-0.46023207767307756,0.9901914793059229,-0.09334146031383425
1783695998856181500,9.358181396484374,-0.5561357531577349,1.003268987543881,-0.1000340532876551
1783695998866145300,9.368145263671876,-0.6839356191188096,0.9465954986855387,-0.008019128869846463
1783695998876109300,9.378109375,-0.708539899021387,0.7832008799910545,0.2540348206929862
1783695998886072300,9.388072265625,-0.5090671279907226,0.6427791406050324,0.4228079540880397
1783695998896036400,9.398036376953126,-0.30854280208051205,0.5702236074820161,0.44620775357168163
1783695998906000400,9.40800048828125,-0.2829249612212181,0.44128976905494927,0.4561695774745196
1783695998915964400,9.41796435546875,-0.30507834084033963,0.3500090771958232,0.29475248766439033
1783695998925928400,9.427928466796875,-0.37906887520253657,0.37043665593564506,-0.05867406982472166
1783695998935892200,9.437892333984376,-0.5302297430068255,0.5009948806941509,-0.415177605340071
1783695998945856300,9.447856201171875,-0.7456465176224708,0.6525804036512971,-0.6406096145462244
1783695998955819300,9.4578193359375,-0.9504062891453504,0.8790671460747719,-0.7242848729029298
1783695998965783300,9.467783203125,-1.0962111828744412,1.1001374164074658,-0.7190629004709422
1783695998975747300,9.477747314453126,-1.1599550485104322,1.2324018605619669,-0.6593251286711543
1783695998985711400,9.48771142578125,-1.1365081219494342,1.2982573115244507,-0.492491804232262
1783695998995675400,9.49767529296875,-1.0623656118959188,1.2652511139795184,-0.34257344730235634
1783695999005639400,9.507639404296874,-0.8922101207643747,1.1126543681532144,-0.24094797837110235
1783695999015603200,9.517603271484376,-0.7251695467829704,0.9013122956305741,-0.2289334049232304
1783695999025566500,9.52756640625,-0.6516372775822877,0.6509010722622275,-0.2902652409814298
1783695999035530200,9.5375302734375,-0.6267284617751836,0.4479807911261916,-0.37662637742124494
1783695999045494300,9.547494384765624,-0.5896615906625986,0.3392363387688994,-0.46807935710735615
1783695999055458300,9.557458251953125,-0.5274392355054617,0.2945359040379524,-0.503226512203738
1783695999065422300,9.56742236328125,-0.44871290479302406,0.3431123034194112,-0.5115631095249206
1783695999075386400,9.577386474609375,-0.3684446053355932,0.4288663408115506,-0.5379693242829293
1783695999085349400,9.587349365234376,-0.2931026563644409,0.541883063660562,-0.6650013476766645
1783695999095313400,9.5973134765625,-0.18723405170440674,0.5820093223437667,-0.8328124676391482
1783695999105277200,9.607277099609375,-0.1465489900946617,0.5803989645376801,-0.9988369233805686
1783695999115241200,9.6172412109375,-0.17909750699996949,0.5995891104370356,-1.1660141293536872
1783695999125205200,9.627205322265626,-0.2714262466073036,0.646562166275084,-1.2973904655620454
1783695999135169300,9.637169189453125,-0.35385552349090577,0.7051005722224712,-1.415743727133423
1783695999145133300,9.64713330078125,-0.4806377368420362,0.7972785051822662,-1.4710696007750927
1783695999155096300,9.657096435546874,-0.6250140590727329,0.8748346230715512,-1.4717410702958702
1783695999165060400,9.667060302734376,-0.7901660428285598,0.9125523593083024,-1.4789317124523222
1783695999175024400,9.6770244140625,-0.899979001200199,0.9273641439929604,-1.4795030825994908
1783695999184988200,9.68698828125,-0.9043933105111122,0.9020718818262219,-1.452505916211009
1783695999194951400,9.696951416015626,-0.798584327083826,0.9158063926681875,-1.3360180101200938
1783695999204915500,9.70691552734375,-0.6676490857064724,0.9294380276575684,-1.1618093711402266
1783695999214878500,9.71687841796875,-0.4973749366313219,0.9455094570145011,-1.0143793604273348
1783695999224842500,9.726842529296874,-0.31467268313765523,0.9138634419068694,-0.856684926135838
1783695999234806500,9.736806640625,-0.18290040641427038,0.7746697830110788,-0.7501745895061641
1783695999244770600,9.7467705078125,-0.14293839838206768,0.6052946286022662,-0.7607849039129913
1783695999254734600,9.756734619140625,-0.08711538887321948,0.4356941410049796,-0.8486918815553188
1783695999264698600,9.76669873046875,-0.03361936100721359,0.2877846762120724,-0.9315073082122951
1783695999274661600,9.77666162109375,0.03685585871040821,0.16676146477907894,-0.9642054627213626
1783695999284625400,9.78662548828125,0.16119009438753126,0.06176905843168497,-0.9877886559478938
1783695999294589400,9.79658935546875,0.29535306563973424,-0.009523322887718677,-0.9253146641172468
1783695999304553500,9.806553466796874,0.3507978894859552,-0.06782470520883799,-0.8416819297280163
1783695999314517500,9.816517578125,0.31187925302684305,-0.06331745691746472,-0.7976334560997783
1783695999324481500,9.8264814453125,0.24672259798347948,-0.019707155510783194,-0.7270577716823667
1783695999334444500,9.836444580078124,0.1748135460704565,-0.009437398169934748,-0.6163502756237983
1783695999344408600,9.84640869140625,0.1540770475119352,-0.04004004170447588,-0.5068074759630486
1783695999354372600,9.85637255859375,0.2164011094778776,-0.051369829492270945,-0.3944034781849012
1783695999364336400,9.86633642578125,0.33549043023884295,-0.08069996887296438,-0.23812972434628754
1783695999374300400,9.876300537109374,0.43988545521497724,-0.09398147525042296,-0.08266432774849236
1783695999384264400,9.886264404296876,0.4640472520470619,-0.1012403603374958,0.061263985853223124
1783695999394228500,9.896228515625,0.39048867936134335,-0.1327352765366435,0.19613299561608583
1783695999404191500,9.90619140625,0.3039864539504051,-0.1100543659120798,0.33043943045958873
1783695999414155500,9.916155517578124,0.20206687917709348,-0.11293459752351045,0.39006248983852565
1783695999424119600,9.92611962890625,0.07271510759890079,-0.14980799189060925,0.4320008394449949
1783695999434083600,9.93608349609375,-0.07886895405352115,-0.2011962338224053,0.4036335537470877
1783695999444047600,9.946047607421875,-0.18573767566680907,-0.19421675019860266,0.34141777446120974
1783695999454011600,9.95601171875,-0.3064572279781103,-0.19097499179840086,0.28640005345325914
1783695999463974400,9.965974365234375,-0.48825230349898335,-0.18179039934575555,0.25785258888285606
1783695999473938400,9.9759384765625,-0.616341507795453,-0.11127660118341445,0.1282769180214498
1783695999483902700,9.98590283203125,-0.6957230875462294,-0.051175768224894995,0.03334743046434596
1783695999493866800,9.99586669921875,-0.6712053168833255,-0.036325405095517634,0.056533276670053596
1783695999503830800,10.005830810546875,-0.5855377887308597,-0.007605798828601837,0.07654843868408352
1783695999513794600,10.015794677734375,-0.39255437971949575,-0.03248334271460771,0.09693626993540674
1783695999523758600,10.025758544921874,-0.15072890612781048,-0.11614596078544855,0.1297947295727208
1783695999533721600,10.0357216796875,0.03554126898050308,-0.23168255750089883,0.1731139208120294
1783695999543685600,10.045685546875,0.13682722202539443,-0.26828473371118305,0.1554611405477859
1783695999553649700,10.055649658203125,0.18011048343479633,-0.30237668066620826,0.14847040487760677
1783695999563613700,10.06561376953125,0.15179916570782662,-0.35528204916268585,0.21671371909100562
1783695999573577700,10.07557763671875,0.11001871007680893,-0.34931437292993067,0.2710201682907529
1783695999583541500,10.08554150390625,0.11639292128384113,-0.3344336146622896,0.2653740704288706
1783695999593504800,10.0955048828125,0.17859364913105963,-0.3282660319432616,0.25102047784049064
1783695999603468500,10.105468505859376,0.23839842175245285,-0.3330833690971136,0.2525035194724798
1783695999613432600,10.1154326171875,0.2778887206196785,-0.3794999600961804,0.25519622915517537
1783695999623396600,10.125396728515625,0.2758534153997898,-0.4320335726708173,0.22187555883359164
1783695999633360600,10.135360595703125,0.2607698280364275,-0.46373014892190695,0.13000749554056673
1783695999643324700,10.14532470703125,0.23355624241828918,-0.4948179456248879,0.006791779031977057
1783695999653288700,10.155288818359375,0.20952654753327368,-0.5084469502657651,-0.06124697078634053
1783695999663251700,10.165251708984375,0.1348936236143112,-0.49572337003201244,-0.10828607759792357
1783695999673215700,10.1752158203125,-0.02126023017168045,-0.5138005862534046,-0.14594780933111906
1783695999683179500,10.185179443359376,-0.18477730620205401,-0.6404366691321134,-0.024842947496660054
1783695999693143600,10.1951435546875,-0.14495733698904514,-0.7910787737593055,0.1788768865192309
1783695999703107600,10.205107666015625,0.10645663368105887,-0.7900833329811692,0.24508597322497516
1783695999713071600,10.215071533203124,0.3404723103046417,-0.6889186682283878,0.16094148992132395
1783695999723034600,10.22503466796875,0.21691899587213992,-0.6682984895259142,0.008005830996856093
1783695999732998700,10.23499853515625,0.2711041750460863,-0.705964495575428,0.10851148385163396
1783695999742962700,10.244962646484375,0.14160685751736163,-0.5863748240768909,0.00777655228562653
1783695999752926500,10.254926513671874,-0.07906009271144866,-0.4835983402132988,-0.42274299909304824
1783695999762890500,10.264890380859375,-0.09525602523088454,-0.4323766870200634,-0.58836037187092
1783695999772854500,10.2748544921875,0.054769701063632964,-0.46390988940298555,-0.38323805064596234
1783695999782818600,10.284818603515625,0.21365794824957846,-0.2958434795051813,-0.2588925263898447
1783695999792781600,10.294781494140626,0.4560474854648113,-0.09086743488311767,-0.18896544207427649
1783695999802745600,10.30474560546875,0.6185562612354755,0.11651391731500625,-0.11232380868140607
