time,seconds_elapsed,z,y,x
1783696060011656000,0.062656005859375,0.27016401290893555,0.22014369070529938,0.01882878504693508
1783696060021620000,0.072619873046875,0.2238178253173828,0.21566398441791534,0.047421813011169434
1783696060031584000,0.082583984375,0.2183919996023178,0.15113063156604767,0.07581054419279099
1783696060041548000,0.092548095703125,0.24706466495990753,0.06640908867120743,0.09581940621137619
1783696060051511000,0.102510986328125,0.2976939380168915,0.02292395755648613,0.11903077363967896
1783696060061475000,0.11247509765625,0.3527334928512573,-0.0035310855600982904,0.11581394076347351
1783696060071439000,0.122439208984375,0.3935600519180298,-0.04437955468893051,0.07849980890750885
1783696060081402000,0.132402099609375,0.4029194712638855,-0.06458655744791031,0.02194545418024063
1783696060091366100,0.1423662109375,0.3828233480453491,-0.03750574216246605,-0.036558520048856735
1783696060101330000,0.152329833984375,0.35216155648231506,0.023841237649321556,-0.09564180672168732
1783696060111293200,0.162293212890625,0.31995919346809387,0.07575342059135437,-0.1431884467601776
1783696060121257000,0.172257080078125,0.285844624042511,0.07469801604747772,-0.17611178755760193
1783696060131221000,0.182220947265625,0.25675487518310547,0.061009686440229416,-0.17653733491897583
1783696060141184000,0.19218408203125,0.23619315028190613,0.06117400527000427,-0.14168214797973633
1783696060151148000,0.20214794921875,0.2227204144001007,0.08367551863193512,-0.0941365584731102
1783696060161112000,0.212112060546875,0.21280598640441895,0.10342685133218765,-0.060738127678632736
1783696060171075000,0.222074951171875,0.21370869874954224,0.1385655254125595,-0.04688043147325516
1783696060181039000,0.2320390625,0.2227245718240738,0.208222895860672,-0.047751285135746
1783696060191003100,0.242003173828125,0.2382839024066925,0.3280738592147827,-0.05554281175136566
1783696060200966100,0.251966064453125,0.26065683364868164,0.4683486819267273,-0.06846047192811966
1783696060210930200,0.26193017578125,0.2764440178871155,0.5889108777046204,-0.0816153809428215
1783696060220894200,0.271894287109375,0.28245237469673157,0.6925880312919617,-0.09235990047454834
1783696060230857200,0.281857177734375,0.27844664454460144,0.7725313305854797,-0.100677989423275
1783696060240821200,0.2918212890625,0.27145636081695557,0.806060254573822,-0.10519764572381973
1783696060250785000,0.301784912109375,0.26000237464904785,0.7703635692596436,-0.10524715483188629
1783696060260748000,0.311748046875,0.24992603063583374,0.6784157752990723,-0.09571836143732071
1783696060270711300,0.321711181640625,0.24103164672851562,0.5823793411254883,-0.06268921494483948
1783696060280675300,0.33167529296875,0.23151910305023193,0.48405706882476807,-0.018452780321240425
1783696060290638300,0.341638427734375,0.22344622015953064,0.3784298300743103,0.02215501107275486
1783696060300602400,0.351602294921875,0.222936749458313,0.27524858713150024,0.05142448469996452
1783696060310566400,0.36156640625,0.21763403713703156,0.19078834354877472,0.0712517723441124
1783696060320529400,0.371529296875,0.21235990524291992,0.13609154522418976,0.0789933130145073
1783696060330493400,0.381493408203125,0.20800738036632538,0.10540322959423065,0.06779821962118149
1783696060340457500,0.39145751953125,0.19555604457855225,0.09462249279022217,0.03369910642504692
1783696060350420500,0.40142041015625,0.1730986088514328,0.10527471452951431,-0.017563769593834877
1783696060360384500,0.411384521484375,0.15263859927654266,0.13854451477527618,-0.060160234570503235
1783696060370348500,0.4213486328125,0.1303837150335312,0.1801110953092575,-0.09096933156251907
1783696060380311600,0.4313115234375,0.11258155852556229,0.2166573852300644,-0.11268793791532516
1783696060390275600,0.441275634765625,0.09862426668405533,0.25851956009864807,-0.11033495515584946
1783696060400239400,0.4512392578125,0.094406358897686,0.29809147119522095,-0.08674707263708115
1783696060410202600,0.46120263671875,0.1033744290471077,0.3174554109573364,-0.05171657353639603
1783696060420166400,0.47116650390625,0.11473201215267181,0.32406431436538696,-0.016798002645373344
1783696060430130400,0.48113037109375,0.12423070520162582,0.33532387018203735,0.022572573274374008
1783696060440093400,0.491093505859375,0.13558615744113922,0.3375313878059387,0.057631488889455795
1783696060450057500,0.501057373046875,0.14485813677310944,0.3333621323108673,0.08492239564657211
1783696060460021500,0.511021484375,0.15820537507534027,0.32189854979515076,0.09616865962743759
1783696060469984500,0.520984619140625,0.16827677190303802,0.30785202980041504,0.09162232279777527
1783696060479948500,0.530948486328125,0.1738765984773636,0.2891121506690979,0.08293349295854568
1783696060489912600,0.54091259765625,0.1784142553806305,0.25714197754859924,0.07038965076208115
1783696060499875600,0.55087548828125,0.17512471973896027,0.2069203406572342,0.060837697237730026
1783696060509839600,0.560839599609375,0.17066091299057007,0.13709895312786102,0.05227169021964073
1783696060519803600,0.5708037109375,0.17024758458137512,0.0627107322216034,0.05701850727200508
1783696060529766700,0.5807666015625,0.17206789553165436,0.00550122233107686,0.09042264521121979
1783696060539730400,0.59073046875,0.18588970601558685,-0.022648388519883156,0.14942283928394318
1783696060549694500,0.600694580078125,0.21297438442707062,-0.018493130803108215,0.21371962130069733
1783696060559657500,0.610657470703125,0.2494780719280243,-0.006140589714050293,0.2601880431175232
1783696060569621500,0.62062158203125,0.28636711835861206,-0.020536402240395546,0.27376362681388855
1783696060579585500,0.63058544921875,0.3049810230731964,-0.060549333691596985,0.2534138858318329
1783696060589548500,0.640548583984375,0.30224093794822693,-0.08938383311033249,0.21109093725681305
1783696060599512600,0.6505126953125,0.29042235016822815,-0.06338711827993393,0.16120779514312744
1783696060609476600,0.6604765625,0.2725246548652649,0.007454894483089447,0.1111186295747757
1783696060619439600,0.670439697265625,0.2578977644443512,0.10661982744932175,0.08161640167236328
1783696060629403600,0.680403564453125,0.2629651427268982,0.2243770807981491,0.07762636989355087
1783696060639367700,0.69036767578125,0.28693118691444397,0.3327581286430359,0.08898954838514328
1783696060649330700,0.70033056640625,0.312558650970459,0.37768492102622986,0.10248452425003052
1783696060659294700,0.710294677734375,0.33099493384361267,0.3522208333015442,0.0984056293964386
1783696060669258500,0.720258544921875,0.3301869034767151,0.28539931774139404,0.08865418285131454
1783696060679222500,0.730222412109375,0.3081692159175873,0.18718062341213226,0.06794091314077377
1783696060689185500,0.740185546875,0.26696106791496277,0.07101904600858688,0.045603957027196884
1783696060699149600,0.750149658203125,0.21893146634101868,-0.03958788886666298,0.025888843461871147
1783696060709112300,0.7601123046875,0.1639648824930191,-0.11618159711360931,0.006604342721402645
1783696060719076400,0.770076416015625,0.11144334822893143,-0.1740238517522812,-0.021242201328277588
1783696060729040600,0.78004052734375,0.07205124944448471,-0.21469846367835999,-0.05323759466409683
1783696060739003400,0.79000341796875,0.039154548197984695,-0.22250472009181976,-0.07854561507701874
1783696060748967400,0.799967529296875,0.02000403217971325,-0.19221048057079315,-0.08367136865854263
1783696060758931500,0.809931396484375,0.00843073334544897,-0.13383372128009796,-0.0724267065525055
1783696060768894500,0.81989453125,0.006147229112684727,-0.06545279920101166,-0.04485534131526947
1783696060778858500,0.8298583984375,0.014273865148425102,0.024708785116672516,-0.0025691352784633636
1783696060788822500,0.839822509765625,0.025860773399472237,0.10952083021402359,0.051972646266222
1783696060798785500,0.84978564453125,0.04069804400205612,0.18467895686626434,0.10795202106237411
1783696060808749300,0.859749267578125,0.055552154779434204,0.23560687899589539,0.153178870677948
1783696060818713300,0.86971337890625,0.0645911917090416,0.2424147129058838,0.17959848046302795
1783696060828676400,0.87967626953125,0.05925855040550232,0.2213631570339203,0.18622851371765137
1783696060838640400,0.889640380859375,0.04877448454499245,0.1939733475446701,0.18059831857681274
1783696060848604400,0.8996044921875,0.031066155061125755,0.18018585443496704,0.17570151388645172
1783696060858567400,0.9095673828125,0.006282245274633169,0.1648910641670227,0.1609923541545868
1783696060868531500,0.919531494140625,-0.02017182670533657,0.1472805291414261,0.1390087902545929
1783696060878495500,0.92949560546875,-0.04329419136047363,0.11424056440591812,0.10178151726722717
1783696060888458500,0.93945849609375,-0.06390193849802017,0.07738124579191208,0.05295351520180702
1783696060898422500,0.949422607421875,-0.08504743129014969,0.05879317596554756,-0.0056815673597157
1783696060908386600,0.959386474609375,-0.096359021961689,0.0533771738409996,-0.06634100526571274
1783696060918349600,0.969349609375,-0.10108400136232376,0.05775967240333557,-0.11973471939563751
1783696060928313600,0.979313720703125,-0.0902174562215805,0.07562494277954102,-0.1580290049314499
1783696060938277400,0.98927734375,-0.07112951576709747,0.08889786899089813,-0.18203234672546387
1783696060948240600,0.99924072265625,-0.05275751277804375,0.10055339336395264,-0.19382038712501526
1783696060958204400,1.009204345703125,-0.031086571514606476,0.10634417086839676,-0.19768543541431427
1783696060968168400,1.01916845703125,-0.015816351398825645,0.11185925453901291,-0.19774919748306274
1783696060978131500,1.02913134765625,-0.0058183129876852036,0.11000941693782806,-0.1923632174730301
1783696060988095500,1.039095458984375,-0.00594443129375577,0.09447827190160751,-0.1815626621246338
1783696060998059500,1.0490595703125,-0.002023991895839572,0.057371385395526886,-0.16085605323314667
1783696061008023600,1.0590234375,0.00581132248044014,-0.0015961171593517065,-0.13177275657653809
1783696061017986600,1.068986572265625,0.015217075124382973,-0.044643186032772064,-0.09705793112516403
1783696061027950600,1.07895068359375,0.021184010431170464,-0.07216810435056686,-0.06176232919096947
1783696061037913600,1.08891357421875,0.032312825322151184,-0.08759340643882751,-0.03277701511979103
1783696061047877600,1.098877685546875,0.045202478766441345,-0.0867084190249443,-0.008845958858728409
1783696061057841700,1.108841552734375,0.06424114853143692,-0.07013263553380966,0.004350005183368921
1783696061067804700,1.1188046875,0.08582095801830292,-0.03934824839234352,0.005050462670624256
1783696061077768400,1.1287685546875,0.09999696165323257,-0.0032999692484736443,-0.006888221949338913
1783696061087732500,1.138732421875,0.11048106849193573,0.008946961723268032,-0.031404659152030945
1783696061097695500,1.148695556640625,0.11398578435182571,0.001990518532693386,-0.06586889922618866
1783696061107659500,1.158659423828125,0.11062014102935791,-0.006433209404349327,-0.09037091583013535
1783696061117623600,1.16862353515625,0.10538649559020996,-0.001713022356852889,-0.09381838142871857
1783696061127586600,1.178586669921875,0.10073810815811157,0.0158676914870739,-0.0854121670126915
1783696061137550600,1.188550537109375,0.09875218570232391,0.04066384956240654,-0.06637749075889587
1783696061147514600,1.1985146484375,0.10192777961492538,0.08915814012289047,-0.03905951604247093
1783696061157477600,1.2084775390625,0.11581749469041824,0.14936235547065735,-0.013512343168258667
1783696061167441700,1.218441650390625,0.1431635320186615,0.20625518262386322,0.014452136121690273
1783696061177405700,1.22840576171875,0.17757156491279602,0.24447421729564667,0.03606848046183586
1783696061187368400,1.238368408203125,0.21777381002902985,0.26414981484413147,0.059980083256959915
1783696061197332700,1.248332763671875,0.25685036182403564,0.26615676283836365,0.08163531124591827
1783696061207296500,1.258296630859375,0.28864601254463196,0.2409164011478424,0.09952674061059952
1783696061217259500,1.268259521484375,0.3101390600204468,0.20829933881759644,0.11378982663154602
1783696061227223300,1.278223388671875,0.3160553574562073,0.18525342643260956,0.12650087475776672
1783696061237187600,1.2881875,0.3156460225582123,0.17305853962898254,0.13782358169555664
1783696061247150300,1.298150390625,0.3121015131473541,0.17602002620697021,0.14915713667869568
1783696061257114400,1.3081142578125,0.30839893221855164,0.20750950276851654,0.16034720838069916
1783696061267080200,1.318080078125,0.31729596853256226,0.27045485377311707,0.18190446496009827
1783696061277043200,1.328043212890625,0.34256112575531006,0.36133280396461487,0.2088777720928192
1783696061287007000,1.338007080078125,0.3839959502220154,0.452441930770874,0.2288838028907776
1783696061296971000,1.347970947265625,0.41990870237350464,0.45484569668769836,0.2271338403224945
1783696061306934000,1.35793408203125,0.4291134774684906,0.3707878291606903,0.20555831491947174
1783696061316898000,1.36789794921875,0.40765637159347534,0.27586930990219116,0.17578630149364471
1783696061326862000,1.377862060546875,0.36736011505126953,0.20312896370887756,0.13991603255271912
1783696061336825000,1.3878251953125,0.31382471323013306,0.14230689406394958,0.10504380613565445
1783696061346789000,1.3977890625,0.2455577552318573,0.11228317767381668,0.07230331003665924
1783696061356753200,1.407753173828125,0.18041417002677917,0.13371282815933228,0.04557982087135315
1783696061366716200,1.417716064453125,0.13723863661289215,0.20528382062911987,0.017661038786172867
1783696061376680200,1.42768017578125,0.12850798666477203,0.287319540977478,-0.015461494214832783
1783696061386644200,1.437644287109375,0.1526576578617096,0.36891964077949524,-0.052858587354421616
1783696061396607200,1.447607177734375,0.1945720762014389,0.4464322626590729,-0.08696196228265762
1783696061406571300,1.4575712890625,0.2511745095252991,0.5020756721496582,-0.11863263696432114
1783696061416535000,1.46753515625,0.3101086914539337,0.5141565799713135,-0.15257301926612854
1783696061426498000,1.477498046875,0.3533467948436737,0.49068182706832886,-0.18490678071975708
1783696061436462000,1.487462158203125,0.3732163608074188,0.4533560276031494,-0.1980028748512268
1783696061446426000,1.497426025390625,0.36914879083633423,0.42792755365371704,-0.18688182532787323
1783696061456389000,1.50738916015625,0.3597899079322815,0.42485639452934265,-0.13710014522075653
1783696061466353200,1.517353271484375,0.3515707552433014,0.42274704575538635,-0.06249059736728668
1783696061476317200,1.527317138671875,0.3488532602787018,0.42235928773880005,0.024195564910769463
1783696061486280200,1.5372802734375,0.3564210534095764,0.4204007387161255,0.09780500084161758
1783696061496244200,1.547244140625,0.37472203373908997,0.4175213575363159,0.1480969339609146
1783696061506208300,1.557208251953125,0.39760369062423706,0.4063597619533539,0.16865889728069305
1783696061516171300,1.567171142578125,0.41398292779922485,0.3719820976257324,0.16338691115379333
1783696061526135300,1.57713525390625,0.42355620861053467,0.3141809403896332,0.1418674886226654
1783696061536099000,1.58709912109375,0.42136043310165405,0.24919873476028442,0.11509553343057632
1783696061546062300,1.597062255859375,0.40883538126945496,0.18129786849021912,0.09409916400909424
1783696061556026000,1.607026123046875,0.39216214418411255,0.10371306538581848,0.07902193814516068
1783696061565990100,1.616990234375,0.3656812906265259,0.009224854409694672,0.06681585311889648
1783696061575953200,1.626953125,0.3367750644683838,-0.08251598477363586,0.049731411039829254
1783696061585917200,1.636917236328125,0.3117457926273346,-0.15479294955730438,0.01783795841038227
1783696061595881200,1.646881103515625,0.274882048368454,-0.21534363925457,-0.040254104882478714
1783696061605844000,1.656843994140625,0.22703129053115845,-0.26659059524536133,-0.12941133975982666
1783696061615808300,1.666808349609375,0.18012024462223053,-0.2901315987110138,-0.2298407405614853
1783696061625772300,1.676772216796875,0.14364014565944672,-0.25137782096862793,-0.31159985065460205
1783696061635735000,1.686735107421875,0.12877465784549713,-0.13319577276706696,-0.3605210483074188
1783696061645699000,1.696698974609375,0.13404488563537598,0.0381472222507,-0.3792664408683777
1783696061655663000,1.7066630859375,0.15115277469158173,0.21473771333694458,-0.38674938678741455
1783696061665626000,1.716626220703125,0.18246828019618988,0.377340704202652,-0.39311325550079346
1783696061675590100,1.726590087890625,0.2135697454214096,0.4939570426940918,-0.3959420621395111
1783696061685554000,1.736553955078125,0.23894688487052917,0.5156925320625305,-0.39604875445365906
1783696061695517200,1.74651708984375,0.2562563717365265,0.4929070472717285,-0.3629518151283264
1783696061705481000,1.75648095703125,0.26517534255981445,0.45045891404151917,-0.2986511290073395
1783696061715444000,1.76644384765625,0.2656826674938202,0.3922608494758606,-0.2215491682291031
1783696061725408000,1.776407958984375,0.2584584355354309,0.32064998149871826,-0.15102221071720123
1783696061735372000,1.7863720703125,0.24718767404556274,0.23341389000415802,-0.09981095790863037
1783696061745335000,1.7963349609375,0.23185592889785767,0.140956312417984,-0.06585636734962463
1783696061755299000,1.806299072265625,0.21391421556472778,0.05146877467632294,-0.045898642390966415
1783696061765263000,1.81626318359375,0.192765012383461,-0.03898704797029495,-0.04302442818880081
1783696061775226000,1.82622607421875,0.17487335205078125,-0.11944673210382462,-0.05203816294670105
1783696061785190100,1.836190185546875,0.15410998463630676,-0.1771061271429062,-0.06219545379281044
1783696061795154200,1.846154296875,0.12736253440380096,-0.20848242938518524,-0.07299084216356277
1783696061805117200,1.8561171875,0.09799367189407349,-0.20782090723514557,-0.0811067596077919
1783696061815081200,1.866081298828125,0.06604719161987305,-0.1908605694770813,-0.09371816366910934
1783696061825045000,1.876044921875,0.030268914997577667,-0.16217626631259918,-0.09911665320396423
1783696061835008300,1.88600830078125,-0.013335021212697029,-0.13546715676784515,-0.09656188637018204
1783696061844972000,1.895971923828125,-0.060891855508089066,-0.11514383554458618,-0.09015300869941711
1783696061854936000,1.90593603515625,-0.1150810569524765,-0.1024932861328125,-0.07590163499116898
1783696061864899000,1.915899169921875,-0.1634320467710495,-0.09301302582025528,-0.05070336163043976
1783696061874863000,1.925863037109375,-0.20563383400440216,-0.07145846635103226,-0.0223004799336195
1783696061884827100,1.9358271484375,-0.2318999469280243,-0.04869002476334572,0.000035531120374798775
1783696061894790100,1.9457900390625,-0.2532225251197815,-0.02895173989236355,0.02024759165942669
1783696061904754200,1.955754150390625,-0.260185569524765,-0.008583594113588333,0.032620079815387726
1783696061914718200,1.96571826171875,-0.26227322220802307,0.02267259545624256,0.03816451132297516
1783696061924681200,1.97568115234375,-0.2621240019798279,0.05283582955598831,0.03224225342273712
1783696061934645200,1.985645263671875,-0.26279377937316895,0.07376029342412949,0.03192001208662987
1783696061944609300,1.995609375,-0.2647944986820221,0.08452235162258148,0.041170720010995865
1783696061954572300,2.005572265625,-0.2670944035053253,0.08601958304643631,0.06805399805307388
1783696061964536000,2.0155361328125,-0.2649410367012024,0.08025013655424118,0.11500275135040283
1783696061974500000,2.0255,-0.2639165222644806,0.07959499210119247,0.1635652333498001
1783696061984463000,2.035463134765625,-0.2640097439289093,0.04800640046596527,0.18890774250030518
1783696061994427100,2.04542724609375,-0.2747899293899536,-0.014332341961562634,0.18212653696537018
1783696062004391200,2.05539111328125,-0.29935547709465027,-0.06696537882089615,0.15133346617221832
1783696062014354200,2.065354248046875,-0.31986871361732483,-0.07344085723161697,0.11309339851140976
1783696062024318200,2.075318115234375,-0.3304364085197449,-0.06941872090101242,0.07026031613349915
1783696062034282200,2.0852822265625,-0.3455759584903717,-0.06777581572532654,0.02238573506474495
1783696062044245200,2.095245361328125,-0.37163951992988586,-0.043068382889032364,-0.013034169562160969
1783696062054209300,2.105209228515625,-0.39531210064888,-0.006646192632615566,-0.02541014365851879
1783696062064173300,2.11517333984375,-0.41394537687301636,0.03532502055168152,-0.018398473039269447
1783696062074136000,2.125135986328125,-0.4272872805595398,0.06775274127721786,-0.0035084730479866266
1783696062084100400,2.135100341796875,-0.43399778008461,0.08008504658937454,0.01693456433713436
1783696062094064000,2.145064208984375,-0.43738773465156555,0.061140384525060654,0.03682331368327141
1783696062104027100,2.155027099609375,-0.4463195502758026,0.015604887157678604,0.05477813631296158
1783696062113991000,2.164990966796875,-0.4585394561290741,-0.053293485194444656,0.06409147381782532
1783696062123955200,2.174955078125,-0.47760969400405884,-0.13839957118034363,0.06435707211494446
1783696062133918000,2.18491796875,-0.5076634287834167,-0.23248745501041412,0.06439701467752457
1783696062143882000,2.194882080078125,-0.5401530265808105,-0.320204496383667,0.05708373337984085
1783696062153845000,2.204844970703125,-0.5693026781082153,-0.3812025785446167,0.04652936011552811
1783696062163809000,2.21480908203125,-0.5887284874916077,-0.4159736931324005,0.03789456933736801
1783696062173773000,2.22477294921875,-0.5981310606002808,-0.43497878313064575,0.040510594844818115
1783696062183736000,2.234736083984375,-0.6002523303031921,-0.45218080282211304,0.05005817115306854
1783696062193700000,2.2447001953125,-0.5946633815765381,-0.4750182032585144,0.08021100610494614
1783696062203664100,2.2546640625,-0.585609495639801,-0.48151344060897827,0.13901859521865845
1783696062213627100,2.264627197265625,-0.5785939693450928,-0.45797136425971985,0.2134036123752594
1783696062223591200,2.274591064453125,-0.5715165138244629,-0.40616482496261597,0.29030054807662964
1783696062233555200,2.28455517578125,-0.5658772587776184,-0.3512405753135681,0.34168943762779236
1783696062243518200,2.294518310546875,-0.5720285773277283,-0.3221246898174286,0.35067522525787354
1783696062253482000,2.30448193359375,-0.5819624066352844,-0.32525309920310974,0.3297787308692932
1783696062263445200,2.3144453125,-0.5896412134170532,-0.33456382155418396,0.2823992967605591
1783696062273408300,2.324408203125,-0.5951928496360779,-0.36530601978302,0.2197478860616684
1783696062283372300,2.334372314453125,-0.5991913080215454,-0.41604170203208923,0.15371878445148468
1783696062293336000,2.344336181640625,-0.6044361591339111,-0.48420584201812744,0.1024625152349472
1783696062303299000,2.354299072265625,-0.612374484539032,-0.5559067726135254,0.06196264550089836
1783696062313263000,2.36426318359375,-0.6270421147346497,-0.6226069331169128,0.031185558065772057
1783696062323227100,2.37422705078125,-0.6452345252037048,-0.6728143692016602,-0.003504205960780382
1783696062333190100,2.384190185546875,-0.6598955392837524,-0.6905494332313538,-0.04986131936311722
1783696062343154200,2.394154296875,-0.6598575115203857,-0.6980908513069153,-0.10220649838447571
1783696062353118200,2.4041181640625,-0.6540560722351074,-0.6968290209770203,-0.14274273812770844
1783696062363081200,2.414081298828125,-0.66776442527771,-0.6944476366043091,-0.16465149819850922
1783696062373045200,2.424045166015625,-0.6534008979797363,-0.7010994553565979,-0.1624368131160736
1783696062383009300,2.43400927734375,-0.6275858283042908,-0.6899225115776062,-0.1376633197069168
1783696062392972300,2.44397216796875,-0.6056544184684753,-0.640400230884552,-0.08403177559375763
1783696062402936300,2.453936279296875,-0.579766035079956,-0.5826836824417114,-0.02555864304304123
1783696062412900000,2.463900146484375,-0.555479884147644,-0.5141016840934753,0.020873837172985077
1783696062422863400,2.47386328125,-0.5300974249839783,-0.4240627884864807,0.05085764080286026
1783696062432827100,2.4838271484375,-0.5167621970176697,-0.328471302986145,0.06762970238924026
1783696062442791200,2.493791259765625,-0.5187093019485474,-0.26768407225608826,0.07506502419710159
1783696062452754000,2.50375390625,-0.5258609652519226,-0.2459486871957779,0.08358155190944672
1783696062462718200,2.51371826171875,-0.5394836664199829,-0.24888673424720764,0.08939912170171738
1783696062472681000,2.523680908203125,-0.5509467124938965,-0.26480817794799805,0.09356483817100525
1783696062482645000,2.53364501953125,-0.5597543120384216,-0.26396894454956055,0.08656871318817139
1783696062492609000,2.543609130859375,-0.5602184534072876,-0.25412455201148987,0.0777089074254036
1783696062502572000,2.553572021484375,-0.5510581135749817,-0.23832440376281738,0.06493311375379562
1783696062512536000,2.5635361328125,-0.5267621278762817,-0.2189967781305313,0.058921828866004944
1783696062522500000,2.5735,-0.5013566613197327,-0.1921379715204239,0.0663161501288414
1783696062532463000,2.583463134765625,-0.4735812544822693,-0.16771917045116425,0.0847654640674591
1783696062542427100,2.59342724609375,-0.44431057572364807,-0.15165480971336365,0.11299516260623932
1783696062552391200,2.60339111328125,-0.4107997715473175,-0.14602835476398468,0.1424337476491928
1783696062562354200,2.613354248046875,-0.37901753187179565,-0.15197329223155975,0.16786131262779236
1783696062572318000,2.62331787109375,-0.35020774602890015,-0.15510517358779907,0.1856490969657898
1783696062582282000,2.633281982421875,-0.32845860719680786,-0.1678321212530136,0.19663095474243164
1783696062592245000,2.643244873046875,-0.3006109893321991,-0.1837484985589981,0.20407848060131073
1783696062602209000,2.653208984375,-0.2827727496623993,-0.1998353749513626,0.2160278856754303
1783696062612173000,2.663173095703125,-0.27566370368003845,-0.2396530956029892,0.22489887475967407
1783696062622136000,2.673135986328125,-0.2763179838657379,-0.27622517943382263,0.24040110409259796
1783696062632100000,2.68310009765625,-0.2733088731765747,-0.29648226499557495,0.2655349671840668
1783696062642064100,2.693064208984375,-0.27177223563194275,-0.3438495695590973,0.2758558988571167
1783696062652027100,2.703027099609375,-0.27813637256622314,-0.4365030825138092,0.2671010196208954
1783696062661991200,2.7129912109375,-0.29995059967041016,-0.5060738921165466,0.2556341290473938
1783696062671955200,2.722955078125,-0.32917851209640503,-0.5055926442146301,0.25353556871414185
1783696062681918200,2.732918212890625,-0.3549589514732361,-0.4414042532444,0.25340384244918823
1783696062691882200,2.74288232421875,-0.3676515817642212,-0.3098459839820862,0.26186898350715637
1783696062701846000,2.752845947265625,-0.3640895485877991,-0.15482142567634583,0.2915417551994324
1783696062711809300,2.762809326171875,-0.34123295545578003,0.007790116127580404,0.35294172167778015
1783696062721773000,2.77277294921875,-0.31874969601631165,0.12182679027318954,0.42105644941329956
1783696062731737000,2.782737060546875,-0.3063231408596039,0.1423051655292511,0.47339528799057007
1783696062741700000,2.7927001953125,-0.29728418588638306,0.05131274834275246,0.4943358898162842
1783696062751664000,2.8026640625,-0.30365872383117676,-0.11337793618440628,0.49235156178474426
1783696062761628200,2.812628173828125,-0.31929460167884827,-0.3025404214859009,0.4742506742477417
1783696062771591200,2.822591064453125,-0.3514096736907959,-0.45898115634918213,0.46299588680267334
1783696062781555200,2.83255517578125,-0.39965084195137024,-0.5485560894012451,0.4619719684123993
1783696062791519200,2.842519287109375,-0.4648420810699463,-0.5682698488235474,0.4617570638656616
1783696062801482200,2.852482177734375,-0.5199010968208313,-0.5213756561279297,0.460346519947052
1783696062811446300,2.8624462890625,-0.5538750290870667,-0.4312579929828644,0.44613295793533325
1783696062821409300,2.8724091796875,-0.5645747184753418,-0.3362174332141876,0.41478362679481506
1783696062831373300,2.882373291015625,-0.5493467450141907,-0.24852165579795837,0.3672904074192047
1783696062841337000,2.892337158203125,-0.5085381269454956,-0.17681659758090973,0.31443947553634644
1783696062851300400,2.90230029296875,-0.46596187353134155,-0.13413330912590027,0.2818168103694916
1783696062861264100,2.91226416015625,-0.440580278635025,-0.1099632978439331,0.2801762819290161
1783696062871228200,2.922228271484375,-0.42780801653862,-0.13237060606479645,0.2999875247478485
1783696062881191000,2.93219091796875,-0.43135467171669006,-0.1974286139011383,0.33514586091041565
1783696062891155200,2.9421552734375,-0.4507664442062378,-0.31577417254447937,0.3683362901210785
1783696062901119200,2.952119140625,-0.48628586530685425,-0.46023035049438477,0.3917764127254486
1783696062911082000,2.96208203125,-0.5347703099250793,-0.5744205713272095,0.3977075517177582
1783696062921046000,2.9720458984375,-0.5855832695960999,-0.6820962429046631,0.3830980360507965
1783696062931010300,2.98201025390625,-0.6370802521705627,-0.774903416633606,0.3615671694278717
1783696062940973000,2.99197314453125,-0.688686192035675,-0.867946982383728,0.3511923849582672
1783696062950937000,3.00193701171875,-0.742941677570343,-0.9946380853652954,0.3489585220813751
1783696062960901000,3.011901123046875,-0.8041415214538574,-1.1320236921310425,0.36441129446029663
1783696062970864000,3.021864013671875,-0.8665463328361511,-1.241305947303772,0.3829341232776642
1783696062980828200,3.031828125,-0.9207381010055542,-1.3170504570007324,0.38875696063041687
1783696062990792000,3.0417919921875,-0.9709386825561523,-1.3255765438079834,0.37829577922821045
1783696063000755000,3.0517548828125,-1.0222303867340088,-1.2589161396026611,0.35450032353401184
1783696063010719000,3.061718994140625,-1.063753366470337,-1.1371904611587524,0.32939043641090393
1783696063020683000,3.07168310546875,-1.094902515411377,-1.0093587636947632,0.30577006936073303
1783696063030646000,3.08164599609375,-1.110819697380066,-0.9062065482139587,0.2916068434715271
1783696063040610000,3.091610107421875,-1.1116547584533691,-0.8300966024398804,0.2870049774646759
1783696063050574000,3.101573974609375,-1.097480058670044,-0.7927058339118958,0.2806605398654938
1783696063060537000,3.111537109375,-1.089605689048767,-0.7803477048873901,0.27667880058288574
1783696063070501000,3.121501220703125,-1.0934725999832153,-0.8048524856567383,0.2761536240577698
1783696063080465200,3.131465087890625,-1.1086512804031372,-0.8619925379753113,0.28915125131607056
1783696063090428200,3.14142822265625,-1.1354429721832275,-0.9048281908035278,0.29442059993743896
1783696063100392200,3.15139208984375,-1.174773097038269,-0.9479439854621887,0.28268349170684814
1783696063110355200,3.161355224609375,-1.2288813591003418,-0.9921863079071045,0.2499695122241974
1783696063120319200,3.1713193359375,-1.2880005836486816,-1.0562444925308228,0.19830897450447083
1783696063130283000,3.181282958984375,1.2154529094696045,-1.3325368165969849,0.6263436675071716
1783696063140246300,3.191246337890625,-0.10731571912765503,-1.289541482925415,0.43175727128982544
1783696063150210000,3.2012099609375,-1.002193808555603,-1.0608856678009033,0.2799514830112457
1783696063160174000,3.211174072265625,-1.0734813213348389,-1.1125500202178955,0.1537034511566162
1783696063170137000,3.22113720703125,-1.0049291849136353,-1.21847403049469,0.1073966845870018
1783696063180101000,3.23110107421875,-1.2666879892349243,-1.2603373527526855,0.12106740474700928
1783696063190065200,3.241065185546875,-1.5762434005737305,-1.374153971672058,0.14471174776554108
1783696063200028200,3.251028076171875,-1.6488416194915771,-1.5232815742492676,0.1554296314716339
1783696063209992200,3.2609921875,-1.5987348556518555,-1.6073546409606934,0.15713538229465485
1783696063219956200,3.270956298828125,-1.5691431760787964,-1.5006136894226074,0.16180461645126343
1783696063229919200,3.280919189453125,-1.5047447681427002,-1.2621654272079468,0.19529680907726288
1783696063239883300,3.29088330078125,-1.4237515926361084,-1.0198438167572021,0.22889745235443115
1783696063249847300,3.300847412109375,-1.364613652229309,-0.9109933972358704,0.23349487781524658
1783696063259810300,3.310810302734375,-1.3390709161758423,-0.9323292374610901,0.20495986938476562
1783696063269773800,3.32077392578125,-1.3367496728897095,-1.0137639045715332,0.18083535134792328
1783696063279737600,3.330737548828125,-1.3443529605865479,-1.1089831590652466,0.16120322048664093
1783696063289700900,3.340700927734375,-1.3664557933807373,-1.1921762228012085,0.11983847618103027
1783696063299664600,3.35066455078125,-1.400637149810791,-1.2257682085037231,0.05239403247833252
1783696063309628700,3.360628662109375,-1.4492425918579102,-1.1937215328216553,-0.020149940624833107
1783696063319591700,3.370591796875,-1.5148845911026,-1.1497197151184082,-0.08438530564308167
1783696063329555700,3.3805556640625,-1.5845922231674194,-1.1125417947769165,-0.12104158848524094
1783696063339519700,3.390519775390625,-1.6497257947921753,-1.084650993347168,-0.11673711985349655
1783696063349482800,3.400482666015625,-1.7091659307479858,-1.056411862373352,-0.055025022476911545
1783696063359446800,3.41044677734375,-1.7540347576141357,-1.0372205972671509,0.048157576471567154
1783696063369410800,3.420410888671875,-1.775288701057434,-1.0516208410263062,0.15757222473621368
1783696063379373800,3.430373779296875,-1.7679980993270874,-1.1161506175994873,0.23660629987716675
1783696063389337900,3.440337890625,-1.7421534061431885,-1.200905203819275,0.26507148146629333
1783696063399302000,3.450302001953125,-1.7316031455993652,-1.2881498336791992,0.23745806515216827
1783696063409265000,3.460264892578125,-1.7338868379592896,-1.3497720956802368,0.16490930318832397
1783696063419228700,3.470228759765625,-1.7386462688446045,-1.3760048151016235,0.08569163829088211
1783696063429192000,3.48019189453125,-1.7494016885757446,-1.3909965753555298,0.032091524451971054
1783696063439155700,3.49015576171875,-1.7613943815231323,-1.4169150590896606,0.0029391893185675144
1783696063449119700,3.50011962890625,-1.7569570541381836,-1.4467566013336182,0.0016302454750984907
1783696063459082800,3.510082763671875,-1.7275583744049072,-1.4702491760253906,0.02888326533138752
1783696063469046800,3.520046875,-1.687530755996704,-1.488158106803894,0.06444285809993744
1783696063479010800,3.5300107421875,-1.626728892326355,-1.5105154514312744,0.09235318750143051
1783696063488973800,3.539973876953125,-1.5682594776153564,-1.56525456905365,0.10076424479484558
1783696063498937900,3.549937744140625,-1.5229661464691162,-1.6373869180679321,0.08429771661758423
1783696063508902000,3.55990185546875,-1.4968507289886475,-1.681043028831482,0.054849278181791306
1783696063518865000,3.569864990234375,-1.4924194812774658,-1.6782255172729492,0.021216746419668198
1783696063528829000,3.579828857421875,-1.5001615285873413,-1.6530719995498657,-0.015197721309959888
1783696063538793000,3.58979296875,-1.5110458135604858,-1.5988292694091797,-0.044222958385944366
1783696063548755700,3.599755615234375,-1.5316121578216553,-1.5308057069778442,-0.0677671730518341
1783696063558720000,3.609719970703125,-1.548458456993103,-1.4687283039093018,-0.08201539516448975
1783696063568683800,3.619683837890625,-1.5538108348846436,-1.4124972820281982,-0.08774891495704651
1783696063578646800,3.629646728515625,-1.5470778942108154,-1.370728611946106,-0.08249659091234207
1783696063588610600,3.639610595703125,-1.5360865592956543,-1.3433576822280884,-0.06505554914474487
1783696063598574600,3.64957470703125,-1.526482343673706,-1.3195548057556152,-0.04502591863274574
1783696063608537600,3.65953759765625,-1.5099114179611206,-1.2944470643997192,-0.018194304779171944
1783696063618501600,3.669501708984375,-1.4843753576278687,-1.275460958480835,-0.007851961068809032
1783696063628465700,3.679465576171875,-1.4503870010375977,-1.2472150325775146,-0.013473894447088242
1783696063638428700,3.6894287109375,-1.4301186800003052,-1.190886378288269,-0.039181776344776154
1783696063648392700,3.699392822265625,-1.3942629098892212,-1.1183441877365112,-0.06922569125890732
1783696063658356700,3.709356689453125,-1.3829138278961182,-1.0253257751464844,-0.09116300940513611
1783696063668319700,3.71931982421875,-1.3897544145584106,-0.9667657613754272,-0.09970616549253464
1783696063678283800,3.72928369140625,-1.3911452293395996,-0.9454161524772644,-0.10141221433877945
1783696063688246800,3.739246826171875,-1.3859935998916626,-0.9357811212539673,-0.09881909936666489
1783696063698210800,3.7492109375,-1.3764777183532715,-0.9451160430908203,-0.09066258370876312
1783696063708174600,3.759174560546875,-1.3595060110092163,-0.9542597532272339,-0.06328529119491577
1783696063718137900,3.769137939453125,-1.3344975709915161,-0.9694191217422485,-0.026197189465165138
1783696063728101600,3.7791015625,-1.2989877462387085,-0.9733536839485168,0.01152435690164566
1783696063738065700,3.789065673828125,-1.2613799571990967,-0.9774863719940186,0.03817490488290787
1783696063748028700,3.799028564453125,-1.223792314529419,-0.9648693799972534,0.032990530133247375
1783696063757992700,3.80899267578125,-1.188021183013916,-0.9256594181060791,0.009312680922448635
1783696063767956700,3.818956787109375,-1.1471792459487915,-0.8600580096244812,-0.03516210615634918
1783696063777919700,3.828919677734375,-1.1095219850540161,-0.8093266487121582,-0.07720974832773209
1783696063787883800,3.8388837890625,-1.085780382156372,-0.74463951587677,-0.06662235409021378
1783696063797847800,3.848847900390625,-1.0585477352142334,-0.7121714949607849,-0.017206905409693718
1783696063807810800,3.858810791015625,-1.0353158712387085,-0.7482171058654785,0.06268633157014847
1783696063817774800,3.86877490234375,-1.0233269929885864,-0.7960389852523804,0.15001359581947327
1783696063827739000,3.87873876953125,-1.0147888660430908,-0.8282458782196045,0.22528891265392303
1783696063837702000,3.888701904296875,-1.0040569305419922,-0.8191348910331726,0.2811409533023834
1783696063847665700,3.898665771484375,-0.9916907548904419,-0.7976756691932678,0.29552069306373596
1783696063857629700,3.908629638671875,-0.9782407283782959,-0.7636879682540894,0.28494730591773987
1783696063867592700,3.9185927734375,-0.9707178473472595,-0.7043740749359131,0.2710951566696167
1783696063877556700,3.928556640625,-0.9694259166717529,-0.6372408866882324,0.2540350556373596
1783696063887520800,3.938520751953125,-0.964486837387085,-0.5756041407585144,0.25360414385795593
1783696063897483800,3.94848388671875,-0.9586526155471802,-0.5006580352783203,0.2677915692329407
1783696063907447800,3.95844775390625,-0.9550547003746033,-0.4472675621509552,0.27672141790390015
1783696063917411800,3.968411865234375,-0.9412441253662109,-0.4206979274749756,0.2645584046840668
1783696063927374800,3.978374755859375,-0.922114908695221,-0.4080124795436859,0.24323050677776337
1783696063937339000,3.9883388671875,-0.9033635854721069,-0.4024430811405182,0.21313169598579407
1783696063947302000,3.998302001953125,-0.8863075971603394,-0.4103241562843323,0.18254394829273224
1783696063957266000,4.008265869140625,-0.8685949444770813,-0.4433104991912842,0.16053345799446106
1783696063967230000,4.01822998046875,-0.8469862937927246,-0.48744839429855347,0.15950946509838104
1783696063977192700,4.028192626953125,-0.8261210322380066,-0.5179811120033264,0.17635293304920197
1783696063987157000,4.038156982421875,-0.8059044480323792,-0.5429932475090027,0.19596658647060394
1783696063997120800,4.048120849609375,-0.7852798104286194,-0.5581427216529846,0.19736751914024353
1783696064007083800,4.058083740234375,-0.7633572220802307,-0.5579522848129272,0.15826965868473053
1783696064017047600,4.068047607421875,-0.7371851205825806,-0.5537177324295044,0.09810662269592285
1783696064027011800,4.07801171875,-0.7076660990715027,-0.513400137424469,0.04533608630299568
1783696064036974600,4.087974609375,-0.6860291957855225,-0.448140949010849,-0.0027803140692412853
1783696064046938600,4.097938720703125,-0.6449094414710999,-0.4142775237560272,-0.03647596016526222
1783696064056902700,4.107902587890625,-0.6115370392799377,-0.37904641032218933,-0.04905091971158981
1783696064066865700,4.11786572265625,-0.5941961407661438,-0.331028550863266,-0.031190428882837296
1783696064076829700,4.12782958984375,-0.5809009671211243,-0.2759864032268524,-0.008716992102563381
1783696064086793700,4.137793701171875,-0.5423932671546936,-0.28331196308135986,0.037263017147779465
1783696064096756700,4.1477568359375,-0.5114448666572571,-0.2859141230583191,0.10887443274259567
1783696064106720800,4.157720703125,-0.4982379674911499,-0.2889871597290039,0.1792743057012558
1783696064116684800,4.167684814453125,-0.4744330048561096,-0.3094039261341095,0.21854285895824432
1783696064126647800,4.177647705078125,-0.44890156388282776,-0.32058945298194885,0.2209562212228775
1783696064136611600,4.187611572265625,-0.42941009998321533,-0.30762842297554016,0.1959119588136673
1783696064146575600,4.19757568359375,-0.4191287159919739,-0.3168986141681671,0.1538286805152893
1783696064156538600,4.20753857421875,-0.4246852397918701,-0.37613731622695923,0.10280033200979233
1783696064166502700,4.217502685546875,-0.47026631236076355,-0.46513083577156067,0.06038949266076088
1783696064176466700,4.227466796875,-0.5343767404556274,-0.5283941030502319,0.04442913457751274
1783696064186429700,4.2374296875,-0.6014391183853149,-0.5333899259567261,0.04634235054254532
1783696064196393700,4.247393798828125,-0.6493877172470093,-0.48932480812072754,0.0643007904291153
1783696064206356700,4.257356689453125,-0.6719364523887634,-0.3978763818740845,0.09898500144481659
1783696064216320800,4.26732080078125,-0.6693174839019775,-0.3094756007194519,0.14717116951942444
1783696064226284800,4.277284912109375,-0.6478042006492615,-0.22109806537628174,0.2051449865102768
1783696064236247800,4.287247802734375,-0.6071750521659851,-0.14226044714450836,0.2481854259967804
1783696064246211800,4.2972119140625,-0.5557233095169067,-0.08546082675457001,0.24683040380477905
1783696064256175900,4.30717578125,-0.5127971768379211,-0.07665936648845673,0.21498514711856842
1783696064266138600,4.317138671875,-0.4945284128189087,-0.09109263122081757,0.1804378181695938
1783696064276102700,4.3271025390625,-0.5032167434692383,-0.1342400461435318,0.16147133708000183
1783696064286066400,4.33706640625,-0.5293399691581726,-0.19511990249156952,0.16990850865840912
1783696064296029400,4.347029541015625,-0.5611865520477295,-0.2328280657529831,0.2144562304019928
1783696064305993500,4.356993408203125,-0.5957759618759155,-0.24713802337646484,0.2599180042743683
1783696064315957500,4.36695751953125,-0.6239892840385437,-0.276753306388855,0.28267085552215576
1783696064325920500,4.37692041015625,-0.6345024108886719,-0.2979089021682739,0.2849031388759613
1783696064335884500,4.386884521484375,-0.6325439214706421,-0.3007970452308655,0.2684975266456604
1783696064345848600,4.3968486328125,-0.6191900372505188,-0.2962089478969574,0.232028990983963
1783696064355811600,4.4068115234375,-0.6056644916534424,-0.29773133993148804,0.19167475402355194
1783696064365775600,4.416775634765625,-0.5834132432937622,-0.3049977719783783,0.14325794577598572
1783696064375739600,4.42673974609375,-0.5501704812049866,-0.34358134865760803,0.09578543901443481
1783696064385702700,4.43670263671875,-0.5191758275032043,-0.375262588262558,0.05324570834636688
1783696064395666700,4.446666748046875,-0.4812835454940796,-0.3954155743122101,0.012202642858028412
1783696064405630500,4.45663037109375,-0.4382018744945526,-0.43445247411727905,-0.025146061554551125
1783696064415593700,4.46659375,-0.4061729609966278,-0.4368915855884552,-0.051701296120882034
1783696064425557500,4.4765576171875,-0.3783368170261383,-0.4311642050743103,-0.0799102932214737
1783696064435520500,4.4865205078125,-0.34747427701950073,-0.4328295588493347,-0.09236669540405273
1783696064445484300,4.496484375,-0.3344831168651581,-0.4252834916114807,-0.07290191948413849
1783696064455448300,4.5064482421875,-0.3247391879558563,-0.42525914311408997,-0.02550213225185871
1783696064465411300,4.516411376953125,-0.31200340390205383,-0.42599764466285706,0.03830374404788017
1783696064475375400,4.526375244140625,-0.3003123104572296,-0.45212462544441223,0.07759544253349304
1783696064485339400,4.53633935546875,-0.29156941175460815,-0.5077263712882996,0.07999282330274582
1783696064495302400,4.546302490234375,-0.2944912314414978,-0.5730427503585815,0.05400172248482704
1783696064505266400,4.556266357421875,-0.3075825273990631,-0.6172685623168945,0.0010833836859092116
1783696064515230500,4.56623046875,-0.32901889085769653,-0.6421160697937012,-0.07362944632768631
1783696064525193500,4.576193359375,-0.3632223904132843,-0.6390808820724487,-0.14678727090358734
1783696064535157500,4.586157470703125,-0.40890592336654663,-0.6159116625785828,-0.2157963365316391
1783696064545121500,4.59612158203125,-0.4589693546295166,-0.5694602727890015,-0.26193827390670776
1783696064555084500,4.60608447265625,-0.4936828315258026,-0.4775770604610443,-0.2923361659049988
1783696064565048600,4.616048583984375,-0.5111166834831238,-0.3783929646015167,-0.3074844777584076
1783696064575012400,4.626012451171875,-0.5170311331748962,-0.32251933217048645,-0.31132563948631287
1783696064584975400,4.635975341796875,-0.5152561664581299,-0.2971538007259369,-0.2818545699119568
1783696064594939400,4.645939453125,-0.5038197040557861,-0.2805330455303192,-0.22770476341247559
1783696064604903400,4.6559033203125,-0.4842132329940796,-0.2835301458835602,-0.1613827347755432
1783696064614866400,4.665866455078125,-0.4707982540130615,-0.2988037168979645,-0.10127873718738556
1783696064624830500,4.67583056640625,-0.4537244737148285,-0.32342222332954407,-0.06280671060085297
1783696064634794500,4.68579443359375,-0.4391648769378662,-0.32208889722824097,-0.03841286152601242
1783696064644757500,4.695757568359375,-0.43144968152046204,-0.2978075444698334,-0.02204427681863308
1783696064654721500,4.705721435546875,-0.42190805077552795,-0.27549105882644653,-0.014043501578271389
1783696064664685600,4.715685546875,-0.4113808572292328,-0.2745767831802368,-0.015452846884727478
1783696064674648600,4.725648681640625,-0.40488728880882263,-0.28533613681793213,-0.01808096654713154
1783696064684612600,4.735612548828125,-0.40013912320137024,-0.30166077613830566,-0.025146866217255592
1783696064694575600,4.74557568359375,-0.39907780289649963,-0.3259531855583191,-0.04282443970441818
1783696064704539600,4.75553955078125,-0.3993355929851532,-0.3613183796405792,-0.05406324565410614
1783696064714503400,4.76550341796875,-0.41057288646698,-0.4157866835594177,-0.04414347559213638
1783696064724466700,4.775466796875,-0.4239081144332886,-0.4750436246395111,-0.008335677906870842
1783696064734430500,4.785430419921875,-0.4324171841144562,-0.5263968110084534,0.04510757327079773
1783696064744394500,4.79539453125,-0.4439486861228943,-0.5765705108642578,0.09183593094348907
1783696064754357500,4.805357421875,-0.4517756402492523,-0.6292210221290588,0.12817475199699402
1783696064764321500,4.815321533203125,-0.4598063826560974,-0.6497089862823486,0.16431865096092224
1783696064774285600,4.82528564453125,-0.46707624197006226,-0.6476842164993286,0.17874322831630707
1783696064784248600,4.83524853515625,-0.4660344123840332,-0.6333028674125671,0.168644517660141
1783696064794212600,4.845212646484375,-0.46073397994041443,-0.6119828820228577,0.13678674399852753
1783696064804176600,4.8551767578125,-0.45033618807792664,-0.5660356283187866,0.09670190513134003
1783696064814139600,4.8651396484375,-0.44396063685417175,-0.5075341463088989,0.05378348380327225
1783696064824103700,4.875103759765625,-0.436959445476532,-0.4541875422000885,0.00550969410687685
1783696064834067500,4.8850673828125,-0.4336392283439636,-0.39652198553085327,-0.028240026906132698
1783696064844030700,4.89503076171875,-0.4235423803329468,-0.33254432678222656,-0.03636426478624344
1783696064853994500,4.904994384765625,-0.41510963439941406,-0.28344836831092834,-0.01481085829436779
1783696064863958500,4.91495849609375,-0.40631455183029175,-0.254263311624527,0.025793293491005898
1783696064873921300,4.92492138671875,-0.38610178232192993,-0.25184494256973267,0.07505423575639725
1783696064883885600,4.934885498046875,-0.36237648129463196,-0.2339245080947876,0.13013240694999695
1783696064893849600,4.944849609375,-0.3303251266479492,-0.21512146294116974,0.1739150583744049
1783696064903812400,4.954812255859375,-0.29476338624954224,-0.2089509218931198,0.1925281584262848
1783696064913776400,4.9647763671875,-0.27433210611343384,-0.21146410703659058,0.1801174283027649
1783696064923739400,4.974739501953125,-0.2708521783351898,-0.2120734453201294,0.14019611477851868
1783696064933703400,4.984703369140625,-0.28464609384536743,-0.21588066220283508,0.0870320051908493
1783696064943667500,4.99466748046875,-0.31190115213394165,-0.2192743420600891,0.03779548406600952
1783696064953630500,5.00463037109375,-0.3306443393230438,-0.20867064595222473,0.018485883250832558
1783696064963594500,5.014594482421875,-0.34352418780326843,-0.17195871472358704,0.019019845873117447
1783696064973558500,5.02455859375,-0.3509489595890045,-0.14142706990242004,0.031200949102640152
1783696064983521500,5.034521484375,-0.34770283102989197,-0.11409212648868561,0.04829445108771324
1783696064993485600,5.044485595703125,-0.33472248911857605,-0.09035389125347137,0.0642508789896965
1783696065003449300,5.054449462890625,-0.32257845997810364,-0.09413930773735046,0.05809231102466583
1783696065013412400,5.064412353515625,-0.31710898876190186,-0.1265348345041275,0.026652421802282333
1783696065023376400,5.07437646484375,-0.32313066720962524,-0.16753233969211578,-0.02149779722094536
1783696065033340400,5.08434033203125,-0.32812216877937317,-0.2005116045475006,-0.06830620020627975
1783696065043303400,5.094303466796875,-0.34587374329566956,-0.2299344837665558,-0.11108189821243286
1783696065053267500,5.104267333984375,-0.3669580817222595,-0.2722776234149933,-0.1439635008573532
1783696065063231500,5.1142314453125,-0.3940677046775818,-0.30834293365478516,-0.16152465343475342
1783696065073194500,5.124194580078125,-0.41374829411506653,-0.3425748348236084,-0.16186925768852234
1783696065083158500,5.134158447265625,-0.43111422657966614,-0.37919968366622925,-0.14006435871124268
1783696065093122600,5.14412255859375,-0.4591849744319916,-0.39714643359184265,-0.08759062737226486
1783696065103085600,5.15408544921875,-0.490425705909729,-0.40536895394325256,-0.01797187328338623
1783696065113049600,5.164049560546875,-0.5113609433174133,-0.40845581889152527,0.055933430790901184
1783696065123013400,5.174013427734375,-0.5235499143600464,-0.41550973057746887,0.12041442096233368
1783696065132976600,5.1839765625,-0.5412193536758423,-0.41511601209640503,0.16139520704746246
1783696065142940400,5.1939404296875,-0.5489243865013123,-0.415897935628891,0.17710812389850616
1783696065152903700,5.203903564453125,-0.5438414812088013,-0.4106951057910919,0.1725839227437973
1783696065162867500,5.213867431640625,-0.5352426767349243,-0.3935914933681488,0.1611240804195404
1783696065172831500,5.22383154296875,-0.5396814346313477,-0.3685166835784912,0.1533384919166565
1783696065182794500,5.23379443359375,-0.5454877018928528,-0.33310437202453613,0.14157238602638245
1783696065192758500,5.243758544921875,-0.5620179772377014,-0.29327327013015747,0.12505191564559937
1783696065202722600,5.25372265625,-0.5872000455856323,-0.26006391644477844,0.10262809693813324
1783696065212685600,5.263685546875,-0.6075971722602844,-0.2166743129491806,0.06839132308959961
1783696065222649600,5.273649658203125,-0.6220158338546753,-0.16872142255306244,0.03365251049399376
1783696065232613600,5.283613525390625,-0.6302992701530457,-0.13209925591945648,-0.00945437140762806
1783696065242576600,5.29357666015625,-0.6278039216995239,-0.10524126142263412,-0.05831645056605339
1783696065252540700,5.303540771484375,-0.6182401776313782,-0.10137379914522171,-0.11697473376989365
1783696065262504700,5.313504638671875,-0.6031104922294617,-0.1103782132267952,-0.18134039640426636
1783696065272467700,5.3234677734375,-0.5872997641563416,-0.12796658277511597,-0.24237476289272308
1783696065282431500,5.333431396484375,-0.580767035484314,-0.15138162672519684,-0.3059800863265991
1783696065292395500,5.3433955078125,-0.5714228749275208,-0.17665322124958038,-0.3591344952583313
1783696065302358300,5.353358154296875,-0.5637263655662537,-0.20753417909145355,-0.38872861862182617
1783696065312322600,5.363322509765625,-0.549247682094574,-0.24329860508441925,-0.39022642374038696
1783696065322286600,5.37328662109375,-0.5380523204803467,-0.2895750403404236,-0.36301371455192566
1783696065332249300,5.383249267578125,-0.520262598991394,-0.3364594280719757,-0.32191184163093567
1783696065342213400,5.39321337890625,-0.49524515867233276,-0.3766947090625763,-0.26781797409057617
1783696065352177700,5.403177734375,-0.46135735511779785,-0.39686158299446106,-0.2055186927318573
1783696065362140400,5.413140380859375,-0.4304947853088379,-0.40231335163116455,-0.1392219513654709
1783696065372104400,5.4231044921875,-0.39935725927352905,-0.4251103699207306,-0.08050838112831116
1783696065382067500,5.4330673828125,-0.3611275851726532,-0.48203757405281067,-0.030004998669028282
1783696065392031500,5.443031494140625,-0.3281896114349365,-0.5336118340492249,0.012568295001983643
1783696065401995500,5.45299560546875,-0.2891804277896881,-0.5805617570877075,0.02735203318297863
1783696065411958500,5.46295849609375,-0.2355024516582489,-0.5723029971122742,0.017323317006230354
1783696065421922600,5.472922607421875,-0.18955066800117493,-0.5131068229675293,-0.024982061237096786
1783696065431886300,5.48288623046875,-0.1564885675907135,-0.42883339524269104,-0.08644409477710724
1783696065441849300,5.492849365234375,-0.13294169306755066,-0.3243410885334015,-0.15451397001743317
1783696065451813400,5.5028134765625,-0.12254998087882996,-0.2173660546541214,-0.21799243986606598
1783696065461777400,5.51277734375,-0.12907366454601288,-0.13863874971866608,-0.2644941806793213
1783696065471740400,5.522740478515625,-0.13763105869293213,-0.08874060958623886,-0.2766261398792267
1783696065481704400,5.532704345703125,-0.15034711360931396,-0.07220850884914398,-0.2540654242038727
1783696065491668500,5.54266845703125,-0.16006553173065186,-0.0799548476934433,-0.1982831060886383
1783696065501631500,5.552631591796875,-0.1636946201324463,-0.1020020917057991,-0.12697671353816986
1783696065511595500,5.562595458984375,-0.1569468379020691,-0.11147703230381012,-0.05213208496570587
1783696065521559600,5.5725595703125,-0.14313942193984985,-0.10981442034244537,0.011862074956297874
1783696065531522600,5.5825224609375,-0.12164000421762466,-0.10576631873846054,0.05770268663764
1783696065541486600,5.592486572265625,-0.09703292697668076,-0.10278704017400742,0.08819747716188431
1783696065551450400,5.602450439453125,-0.06742816418409348,-0.08805137872695923,0.12343347817659378
1783696065561413600,5.61241357421875,-0.04592340439558029,-0.06322725862264633,0.1585424691438675
1783696065571377400,5.62237744140625,-0.029109660536050797,-0.03770916163921356,0.1928991675376892
1783696065581340700,5.632340576171875,-0.020687680691480637,-0.01118807028979063,0.22723077237606049
1783696065591304400,5.642304443359375,-0.01514506246894598,0.019109372049570084,0.25823915004730225
1783696065601268500,5.6522685546875,-0.007110305596143007,0.049761027097702026,0.28792569041252136
1783696065611231500,5.6622314453125,0.006355137098580599,0.04135986417531967,0.30739548802375793
1783696065621195500,5.672195556640625,0.005319433752447367,-0.03996827453374863,0.29789069294929504
1783696065631159600,5.68215966796875,-0.019497860223054886,-0.1304861605167389,0.27916738390922546
1783696065641122600,5.69212255859375,-0.04818276688456535,-0.16223663091659546,0.25933191180229187
1783696065651086600,5.702086669921875,-0.07313815504312515,-0.14754962921142578,0.24551939964294434
1783696065661050600,5.712050537109375,-0.10448036342859268,-0.10671990364789963,0.2280716896057129
1783696065671013600,5.722013671875,-0.13336630165576935,-0.044990818947553635,0.2115989625453949
1783696065680977700,5.731977783203125,-0.14979934692382812,0.03632241487503052,0.1880773901939392
1783696065690941700,5.741941650390625,-0.14596982300281525,0.11841967701911926,0.1610099971294403
1783696065700904700,5.75190478515625,-0.12636229395866394,0.173970028758049,0.13027311861515045
1783696065710868500,5.761868408203125,-0.09272158145904541,0.19418565928936005,0.09427255392074585
1783696065720832500,5.77183251953125,-0.05708901956677437,0.16716042160987854,0.06138385087251663
1783696065730795500,5.78179541015625,-0.01710696518421173,0.11409125477075577,0.038155876100063324
1783696065740759600,5.791759521484375,0.018326658755540848,0.05941789224743843,0.022078903391957283
1783696065750723600,5.8017236328125,0.052456680685281754,0.005607163533568382,0.010279631242156029
1783696065760686300,5.811686279296875,0.08257782459259033,-0.036967724561691284,0.0008499106043018401
1783696065770650600,5.821650634765625,0.1149413213133812,-0.05754595622420311,-0.007772980257868767
1783696065780613400,5.83161328125,0.15563414990901947,-0.054870545864105225,-0.021015549078583717
1783696065790577400,5.841577392578125,0.18955457210540771,-0.06750544160604477,-0.03524364158511162
1783696065800541400,5.85154150390625,0.20303575694561005,-0.10580170154571533,-0.03338209167122841
1783696065810504400,5.86150439453125,0.19713148474693298,-0.16047406196594238,-0.007668439764529467
1783696065820468500,5.871468505859375,0.1970614492893219,-0.1799875795841217,0.03404491767287254
1783696065830432500,5.8814326171875,0.2195536196231842,-0.13692206144332886,0.09218643605709076
1783696065840395500,5.8913955078125,0.2531387209892273,-0.04629920795559883,0.15977345407009125
1783696065850359600,5.901359619140625,0.29576557874679565,0.03949522227048874,0.20756347477436066
1783696065860323300,5.9113232421875,0.34567561745643616,0.12496618181467056,0.2216329574584961
1783696065870286600,5.92128662109375,0.3982440233230591,0.21652446687221527,0.2106841802597046
1783696065880250400,5.93125048828125,0.4415387809276581,0.2984273135662079,0.18258489668369293
1783696065890214400,5.94121435546875,0.4579838216304779,0.3210502564907074,0.13858376443386078
1783696065900177400,5.951177490234375,0.4516470730304718,0.27520978450775146,0.09194063395261765
1783696065910141400,5.961141357421875,0.4367780089378357,0.2054714858531952,0.04962941259145737
1783696065920105500,5.97110546875,0.41721177101135254,0.15995833277702332,0.021740257740020752
1783696065930068500,5.981068359375,0.3947173058986664,0.13557356595993042,-0.005260035395622253
1783696065940032500,5.991032470703125,0.37679076194763184,0.08524620532989502,-0.036390792578458786
1783696065949996500,6.00099658203125,0.3549349308013916,0.013565437868237495,-0.06393489241600037
1783696065959959600,6.01095947265625,0.3291430175304413,-0.06425479054450989,-0.07490231841802597
1783696065969923600,6.020923583984375,0.2920042872428894,-0.15124233067035675,-0.09029345214366913
1783696065979886600,6.030886474609375,0.25339004397392273,-0.23890480399131775,-0.12244712561368942
1783696065989850600,6.0408505859375,0.210229754447937,-0.3083440959453583,-0.17274808883666992
1783696065999814400,6.050814453125,0.17234735190868378,-0.31061336398124695,-0.21591819822788239
1783696066009777700,6.060777587890625,0.15914350748062134,-0.20845583081245422,-0.22838623821735382
1783696066019741400,6.070741455078125,0.1631784588098526,-0.031012872233986855,-0.22097040712833405
1783696066029705500,6.08070556640625,0.17537052929401398,0.14582373201847076,-0.21026401221752167
1783696066039668500,6.09066845703125,0.202507883310318,0.3180844485759735,-0.223086878657341
1783696066049632500,6.100632568359375,0.2472291886806488,0.4796447455883026,-0.2606584429740906
1783696066059596500,6.110596435546875,0.2938326299190521,0.630876362323761,-0.32403048872947693
1783696066069559600,6.1205595703125,0.3317222595214844,0.7278139591217041,-0.3956265449523926
1783696066079523600,6.130523681640625,0.35073935985565186,0.7334750294685364,-0.4529779851436615
1783696066089487600,6.140487548828125,0.35540375113487244,0.670257568359375,-0.4729597270488739
1783696066099450600,6.15045068359375,0.3525528609752655,0.5734527111053467,-0.4578494727611542
1783696066109414700,6.16041455078125,0.3408167064189911,0.4564647972583771,-0.42005211114883423
1783696066119378700,6.170378662109375,0.328601598739624,0.31566321849823,-0.36262235045433044
1783696066129341700,6.180341796875,0.314576655626297,0.16931159794330597,-0.30103856325149536
1783696066139305500,6.190305419921875,0.304414838552475,0.04078184440732002,-0.2366878092288971
1783696066149268500,6.2002685546875,0.3003067076206207,-0.06687082350254059,-0.17704208195209503
1783696066159232500,6.210232421875,0.29615724086761475,-0.156654492020607,-0.12019051611423492
1783696066169196500,6.220196533203125,0.2926269471645355,-0.2249303162097931,-0.06971854716539383
1783696066179159300,6.2301591796875,0.28981465101242065,-0.25234490633010864,-0.023159831762313843
1783696066189123300,6.240123291015625,0.288000226020813,-0.23330022394657135,0.020888598635792732
1783696066199087600,6.250087646484375,0.2787441313266754,-0.19308435916900635,0.04562244191765785
1783696066209050400,6.26005029296875,0.26503539085388184,-0.13297995924949646,0.05141689255833626
1783696066219014400,6.270014404296875,0.24966999888420105,-0.05505240708589554,0.04095892608165741
1783696066228978400,6.279978515625,0.2317332774400711,0.037171196192502975,0.023567048832774162
1783696066238941400,6.28994140625,0.20537731051445007,0.12752585113048553,0.0070147039368748665
1783696066248905500,6.299905517578125,0.17691069841384888,0.19270092248916626,-0.007934797555208206
1783696066258869500,6.309869384765625,0.14817573130130768,0.24802596867084503,-0.025670653209090233
1783696066268832800,6.319832763671875,0.12325111776590347,0.2994026839733124,-0.04005686938762665
1783696066278796800,6.329796875,0.10229071229696274,0.3192456364631653,-0.058949064463377
1783696066288760800,6.3397607421875,0.07511015981435776,0.2835721969604492,-0.0927666425704956
1783696066298723600,6.3497236328125,0.049930233508348465,0.19908498227596283,-0.1207098588347435
1783696066308687600,6.3596875,0.01917407289147377,0.10757170617580414,-0.11548692733049393
1783696066318650600,6.369650634765625,-0.01723506674170494,0.03802432492375374,-0.06621046364307404
1783696066328614700,6.37961474609375,-0.04634951800107956,0.0029345392249524593,0.012073523364961147
1783696066338578700,6.38957861328125,-0.06408670544624329,0.009878997690975666,0.08148934692144394
1783696066348541700,6.399541748046875,-0.06409961730241776,0.05512752756476402,0.12772536277770996
1783696066358505700,6.409505615234375,-0.041955698281526566,0.1170705258846283,0.14304067194461823
1783696066368469800,6.4194697265625,-0.0033263424411416054,0.17540250718593597,0.12598048150539398
1783696066378432800,6.429432861328125,0.04554053395986557,0.20678812265396118,0.07821482419967651
1783696066388396800,6.439396728515625,0.08416514098644257,0.1793331801891327,0.014191785827279091
1783696066398360800,6.44936083984375,0.09278739243745804,0.11758884787559509,-0.05826936289668083
1783696066408323800,6.45932373046875,0.081464022397995,0.05242307111620903,-0.12226226925849915
1783696066418287900,6.469287841796875,0.05923887714743614,0.0021993161644786596,-0.1666792631149292
1783696066428251600,6.479251708984375,0.034799374639987946,-0.042618460953235626,-0.1822310835123062
1783696066438214700,6.489214599609375,0.014134843833744526,-0.05816759541630745,-0.16472452878952026
1783696066448178700,6.4991787109375,0.008986045606434345,-0.025916989892721176,-0.12585310637950897
1783696066458142700,6.509142822265625,0.02600817382335663,0.03531866893172264,-0.0844244509935379
1783696066468105700,6.519105712890625,0.06132490932941437,0.0874866172671318,-0.05608069896697998
1783696066478069800,6.52906982421875,0.10286729037761688,0.10009854286909103,-0.045276522636413574
1783696066488033800,6.53903369140625,0.1359366476535797,0.10891566425561905,-0.036222219467163086
1783696066497996800,6.548996826171875,0.15304559469223022,0.12279845774173737,-0.02312719076871872
1783696066507960800,6.5589609375,0.15016500651836395,0.11642200499773026,-0.009013711474835873
1783696066517923800,6.568923828125,0.13092845678329468,0.09217099845409393,0.016337718814611435
1783696066527888000,6.578887939453125,0.09549760818481445,0.06548669934272766,0.05685019865632057
1783696066537852000,6.588851806640625,0.05314216390252113,0.03895469382405281,0.1085677221417427
1783696066547815000,6.59881494140625,0.014729732647538185,0.016342299059033394,0.15516507625579834
1783696066557779000,6.608779052734375,-0.011615055613219738,-0.013957283459603786,0.18881945312023163
1783696066567742700,6.61874267578125,-0.03507084771990776,-0.022461554035544395,0.20567592978477478
1783696066577706000,6.6287060546875,-0.0619107186794281,-0.04061419144272804,0.1992286741733551
1783696066587669800,6.638669677734375,-0.07653474062681198,-0.08271297812461853,0.20013779401779175
1783696066597633800,6.6486337890625,-0.08740869164466858,-0.12673424184322357,0.23594851791858673
1783696066607596800,6.6585966796875,-0.09916245192289352,-0.18019026517868042,0.31351450085639954
1783696066617560800,6.668560791015625,-0.11269982904195786,-0.21049755811691284,0.4151950478553772
1783696066627524900,6.67852490234375,-0.1354835480451584,-0.2211122065782547,0.5083093047142029
1783696066637487900,6.68848779296875,-0.16024455428123474,-0.22948865592479706,0.5538501739501953
1783696066647452000,6.698451904296875,-0.19156211614608765,-0.22762370109558105,0.5409948825836182
1783696066657415000,6.708414794921875,-0.2197522073984146,-0.2002490609884262,0.47392746806144714
1783696066667379000,6.71837890625,-0.24469207227230072,-0.15049324929714203,0.3624696135520935
1783696066677343000,6.728343017578125,-0.26348334550857544,-0.09941248595714569,0.23129960894584656
1783696066687305700,6.7383056640625,-0.2747291326522827,-0.05675160884857178,0.10318824648857117
1783696066697270000,6.74827001953125,-0.2819407284259796,-0.0039270115084946156,-0.0051797740161418915
1783696066707233800,6.75823388671875,-0.2972480356693268,0.03813136741518974,-0.09372773766517639
1783696066717196800,6.76819677734375,-0.3153649866580963,0.061153594404459,-0.17728494107723236
1783696066727160600,6.77816064453125,-0.33398938179016113,0.060777775943279266,-0.25959229469299316
1783696066737124600,6.78812451171875,-0.3504810035228729,0.058233387768268585,-0.33218634128570557
1783696066747087600,6.798087646484375,-0.3585810959339142,0.0626191794872284,-0.384207159280777
1783696066757051600,6.8080517578125,-0.3518531322479248,0.06684987992048264,-0.419168084859848
1783696066767015700,6.818015625,-0.33224985003471375,0.05247551202774048,-0.4362177550792694
1783696066776978700,6.827978759765625,-0.3005329370498657,0.01919984631240368,-0.4279574155807495
1783696066786942700,6.837942626953125,-0.2643682360649109,-0.020003357902169228,-0.39309975504875183
1783696066796905700,6.84790576171875,-0.2261425405740738,-0.05421032756567001,-0.33608973026275635
1783696066806869800,6.857869873046875,-0.1951499879360199,-0.08974844962358475,-0.26975157856941223
1783696066816833800,6.867833740234375,-0.17702877521514893,-0.13751757144927979,-0.1949375420808792
1783696066826796800,6.877796875,-0.16704632341861725,-0.18403305113315582,-0.1202339306473732
1783696066836760800,6.8877607421875,-0.161178320646286,-0.22212716937065125,-0.049145106226205826
1783696066846724900,6.897724853515625,-0.15363451838493347,-0.2631591558456421,0.007602924481034279
1783696066856687900,6.90768798828125,-0.14410467445850372,-0.29241105914115906,0.057762231677770615
1783696066866651600,6.917651611328125,-0.14409326016902924,-0.2958259582519531,0.09475169330835342
1783696066876615700,6.92761572265625,-0.15308302640914917,-0.2817189395427704,0.11263801902532578
1783696066886578700,6.93757861328125,-0.16921328008174896,-0.24408574402332306,0.11290116608142853
1783696066896542700,6.947542724609375,-0.19484859704971313,-0.19878165423870087,0.09101583808660507
1783696066906506800,6.9575068359375,-0.2229604572057724,-0.15548104047775269,0.05972757935523987
1783696066916469800,6.9674697265625,-0.25259503722190857,-0.11387713253498077,0.03308185562491417
1783696066926433800,6.977433837890625,-0.2892228066921234,-0.06946951150894165,0.020073089748620987
1783696066936397800,6.987397705078125,-0.31741395592689514,-0.02337019145488739,0.016709251329302788
1783696066946360800,6.99736083984375,-0.33812984824180603,0.029773127287626266,0.018851475790143013
1783696066956324900,7.007324951171875,-0.3492352366447449,0.07008566707372665,0.02888680063188076
1783696066966288000,7.017287841796875,-0.3501488268375397,0.10906107723712921,0.046171724796295166
1783696066976252000,7.027251953125,-0.34133535623550415,0.13977424800395966,0.0676189586520195
1783696066986216000,7.0372158203125,-0.3243074417114258,0.15512312948703766,0.09188264608383179
1783696066996179000,7.047178955078125,-0.30174753069877625,0.15108977258205414,0.11694645136594772
1783696067006143000,7.05714306640625,-0.2851380705833435,0.13372507691383362,0.1491866111755371
1783696067016106800,7.067106689453125,-0.2683177888393402,0.11347625404596329,0.18505911529064178
1783696067026069800,7.07706982421875,-0.2521238327026367,0.08782043308019638,0.21613402664661407
1783696067036033800,7.08703369140625,-0.2304811030626297,0.06300296634435654,0.25372400879859924
1783696067045997800,7.096997802734375,-0.20859645307064056,0.03994031250476837,0.28108686208724976
1783696067055960800,7.1069609375,-0.18643389642238617,0.012532921507954597,0.2893432080745697
1783696067065924900,7.1169248046875,-0.16450229287147522,-0.007231897674500942,0.28362566232681274
1783696067075889000,7.126888916015625,-0.1380632221698761,-0.0007439043838530779,0.27731212973594666
1783696067085852000,7.136851806640625,-0.1101844534277916,0.04029315337538719,0.28719058632850647
1783696067095816000,7.14681591796875,-0.06595201045274734,0.11255484074354172,0.30478236079216003
1783696067105778700,7.15677880859375,-0.017136791720986366,0.11991425603628159,0.30971571803092957
1783696067115742700,7.16674267578125,0.012952666729688644,0.07489431649446487,0.297316312789917
1783696067125707000,7.17670703125,0.024421285837888718,0.05014539510011673,0.28566646575927734
1783696067135669800,7.186669677734375,0.018456336110830307,0.021963823586702347,0.26961028575897217
1783696067145633800,7.1966337890625,-0.003240287769585848,-0.02247786894440651,0.24029693007469177
1783696067155597600,7.20659765625,-0.0552733950316906,-0.04186434671282768,0.2078028917312622
1783696067165560800,7.216560791015625,-0.11083251237869263,-0.005156892351806164,0.18332085013389587
1783696067175524600,7.226524658203125,-0.15477199852466583,0.08110209554433823,0.16375993192195892
1783696067185488600,7.236488525390625,-0.17327485978603363,0.19781401753425598,0.14071014523506165
1783696067195451600,7.24645166015625,-0.1613292545080185,0.2883998453617096,0.09720899909734726
1783696067205415700,7.256415771484375,-0.11429716646671295,0.34012624621391296,0.03239572420716286
1783696067215379700,7.266379638671875,-0.054338488727808,0.3438008725643158,-0.04713984951376915
1783696067225342700,7.2763427734375,0.0036678698379546404,0.2796618342399597,-0.1316642165184021
1783696067235306800,7.286306640625,0.05421147122979164,0.1758107990026474,-0.18941406905651093
1783696067245269800,7.296269775390625,0.08915916085243225,0.07268118113279343,-0.1893957406282425
1783696067255233800,7.30623388671875,0.10677198320627213,0.009992765262722969,-0.13779273629188538
1783696067265197800,7.31619775390625,0.1132454052567482,-0.010282222181558609,-0.052701182663440704
1783696067275161300,7.326161376953125,0.11674772948026657,-0.00044423877261579037,0.04059147834777832
1783696067285125400,7.33612548828125,0.12772388756275177,0.026513051241636276,0.11558559536933899
1783696067295089400,7.34608935546875,0.15682904422283173,0.06586551666259766,0.1619648039340973
1783696067305052200,7.35605224609375,0.20115208625793457,0.1001807376742363,0.19011586904525757
1783696067315016200,7.36601611328125,0.24956275522708893,0.11605744063854218,0.21032367646694183
1783696067324980500,7.37598046875,0.29921597242355347,0.14097991585731506,0.232674703001976
1783696067334943200,7.385943115234375,0.33442243933677673,0.16623146831989288,0.2537163197994232
1783696067344907300,7.3959072265625,0.3418411612510681,0.17366397380828857,0.25266560912132263
1783696067354871300,7.405871337890625,0.32357534766197205,0.14198912680149078,0.221262127161026
1783696067364834300,7.415834228515625,0.28988656401634216,0.07192301005125046,0.1694418340921402
1783696067374798300,7.42579833984375,0.24351002275943756,-0.013101068325340748,0.12007801234722137
1783696067384761300,7.43576123046875,0.19855691492557526,-0.09003709256649017,0.09121067076921463
1783696067394725400,7.445725341796875,0.16056984663009644,-0.1692083477973938,0.08327232301235199
1783696067404689400,7.455689453125,0.1293906271457672,-0.26395171880722046,0.08947310596704483
1783696067414652400,7.46565234375,0.09980450570583344,-0.3553764522075653,0.08940386027097702
1783696067424616400,7.475616455078125,0.06646924465894699,-0.41579633951187134,0.07423446327447891
1783696067434580200,7.485580322265625,0.021246379241347313,-0.43004611134529114,0.0349845327436924
1783696067444543500,7.49554345703125,-0.031684357672929764,-0.40904197096824646,-0.042684223502874374
1783696067454507300,7.50550732421875,-0.08062633872032166,-0.36067259311676025,-0.1440286785364151
1783696067464471300,7.51547119140625,-0.11276405304670334,-0.25405141711235046,-0.2398790419101715
1783696067474434300,7.525434326171875,-0.11482294648885727,-0.10407043993473053,-0.2985426187515259
1783696067484398300,7.5353984375,-0.0944518968462944,0.04709457978606224,-0.32612738013267517
1783696067494362400,7.5453623046875,-0.06200980022549629,0.14803077280521393,-0.32018375396728516
1783696067504325400,7.555325439453125,-0.029053945094347,0.18672990798950195,-0.2814267575740814
1783696067514289400,7.565289306640625,-0.006250362377613783,0.18364277482032776,-0.22002573311328888
1783696067524252400,7.57525244140625,0.009846970438957214,0.1486843228340149,-0.15239481627941132
1783696067534216400,7.585216552734375,0.003429551376029849,0.09073872119188309,-0.0912475734949112
1783696067544180500,7.595180419921875,-0.022508729249238968,0.02746308594942093,-0.050124019384384155
1783696067554143500,7.6051435546875,-0.0639115646481514,-0.03943685069680214,-0.03627824783325195
1783696067564107500,7.615107421875,-0.11353403329849243,-0.1081504300236702,-0.05069124698638916
1783696067574071300,7.6250712890625,-0.16118571162223816,-0.18397249281406403,-0.07163727283477783
1783696067584034600,7.63503466796875,-0.20060724020004272,-0.2423001527786255,-0.08825894445180893
1783696067593998300,7.644998291015625,-0.23410020768642426,-0.2910788953304291,-0.09846284985542297
1783696067603962400,7.65496240234375,-0.2610045373439789,-0.34447818994522095,-0.107080839574337
1783696067613925400,7.66492529296875,-0.2786961793899536,-0.3804263472557068,-0.11756836622953415
1783696067623889400,7.674889404296875,-0.30143582820892334,-0.3904902935028076,-0.12295716255903244
1783696067633853400,7.684853515625,-0.32558298110961914,-0.39758414030075073,-0.12061464041471481
1783696067643816400,7.69481640625,-0.35318902134895325,-0.41701555252075195,-0.10918809473514557
1783696067653780500,7.704780517578125,-0.3857429623603821,-0.4306011199951172,-0.08132636547088623
1783696067663744500,7.71474462890625,-0.4168141484260559,-0.43227431178092957,-0.045589227229356766
1783696067673707500,7.72470751953125,-0.4503742456436157,-0.4168495237827301,-0.00674089789390564
1783696067683671600,7.734671630859375,-0.4809637665748596,-0.3705354332923889,0.013352077454328537
1783696067693634300,7.74463427734375,-0.510811984539032,-0.31230488419532776,0.020072564482688904
1783696067703598600,7.7545986328125,-0.5386257767677307,-0.2537505328655243,0.0009338944219052792
1783696067713562400,7.764562255859375,-0.5553887486457825,-0.19632504880428314,-0.0267933402210474
1783696067723525400,7.774525390625,-0.5628629326820374,-0.15225854516029358,-0.0537857785820961
1783696067733489200,7.7844892578125,-0.5668925642967224,-0.142662912607193,-0.07457521557807922
1783696067743453200,7.794453125,-0.5713797211647034,-0.16386835277080536,-0.09065660834312439
1783696067753416200,7.804416259765625,-0.5826035737991333,-0.2047143131494522,-0.09306596964597702
1783696067763380200,7.814380126953125,-0.598229169845581,-0.23975497484207153,-0.06784075498580933
1783696067773344300,7.82434423828125,-0.6161003112792969,-0.27003324031829834,-0.016816988587379456
1783696067783307300,7.834307373046875,-0.6344709396362305,-0.29233789443969727,0.050297822803258896
1783696067793271300,7.844271240234375,-0.6446474194526672,-0.3129318356513977,0.10964716970920563
1783696067803235300,7.8542353515625,-0.6436324715614319,-0.3109147548675537,0.15216673910617828
1783696067813198300,7.8641982421875,-0.6370232701301575,-0.3174693286418915,0.1577412635087967
1783696067823162400,7.874162353515625,-0.6413292288780212,-0.3738073706626892,0.1310289055109024
1783696067833125400,7.88412548828125,-0.6630475521087646,-0.43238627910614014,0.09233077615499496
1783696067843089400,7.89408935546875,-0.6925067901611328,-0.46350908279418945,0.05467933416366577
1783696067853053400,7.904053466796875,-0.7252596616744995,-0.4548676609992981,0.0251813642680645
1783696067863016400,7.914016357421875,-0.754538357257843,-0.43119511008262634,0.014493674039840698
1783696067872980500,7.92398046875,-0.7817814350128174,-0.3888481855392456,0.020385652780532837
1783696067882944300,7.9339443359375,-0.8065027594566345,-0.35969534516334534,0.02435160242021084
1783696067892907300,7.9439072265625,-0.8298764824867249,-0.3552579879760742,0.028960734605789185
1783696067902871300,7.953871337890625,-0.8567937016487122,-0.3683817982673645,0.04034929350018501
1783696067912835300,7.96383544921875,-0.8803573250770569,-0.3748852610588074,0.050592612475156784
1783696067922798300,7.97379833984375,-0.9041772484779358,-0.4196506440639496,0.052797820419073105
1783696067932762400,7.983762451171875,-0.9228633046150208,-0.4698632061481476,0.060257602483034134
1783696067942725400,7.993725341796875,-0.9351151585578918,-0.5053630471229553,0.07503388077020645
1783696067952689400,8.003689453125,-0.9530238509178162,-0.5263271927833557,0.08066912740468979
1783696067962653400,8.0136533203125,-0.9803065657615662,-0.554966151714325,0.07453145831823349
1783696067972616400,8.023616455078125,-1.0127084255218506,-0.572598397731781,0.05358889326453209
1783696067982580500,8.03358056640625,-1.0426461696624756,-0.5895979404449463,0.025089772418141365
1783696067992544500,8.04354443359375,-1.0612115859985352,-0.6178386807441711,-0.005670004058629274
1783696068002507500,8.053507568359375,-1.0654042959213257,-0.6671662926673889,-0.038733892142772675
1783696068012471600,8.063471435546875,-1.058483600616455,-0.7222191691398621,-0.05430512875318527
1783696068022435300,8.073435302734374,-1.0482690334320068,-0.7719722390174866,-0.044632408767938614
1783696068032398300,8.0833984375,-1.0292692184448242,-0.8145665526390076,-0.027558615431189537
1783696068042362400,8.0933623046875,-1.008744478225708,-0.8528019785881042,-0.012666740454733372
1783696068052326400,8.103326416015625,-0.9901982545852661,-0.8821457624435425,0.004783356562256813
1783696068062289400,8.113289306640626,-0.9809880256652832,-0.9185512661933899,0.02244558557868004
1783696068072253400,8.12325341796875,-0.9802995920181274,-0.936548113822937,0.03178369626402855
1783696068082216200,8.13321630859375,-0.9841185808181763,-0.9359031915664673,0.06226944550871849
1783696068092180500,8.143180419921874,-1.0256928205490112,-0.9411370754241943,0.08714018017053604
1783696068102144500,8.15314453125,-1.0712741613388062,-0.9134434461593628,0.12623921036720276
1783696068112107300,8.163107177734375,-1.1229122877120972,-0.9249134659767151,0.16814590990543365
1783696068122071300,8.1730712890625,-1.175485372543335,-0.9786105751991272,0.18541601300239563
1783696068132035600,8.18303564453125,-1.197757363319397,-1.0295422077178955,0.2128705531358719
1783696068141998300,8.192998291015625,-1.2352038621902466,-1.0555908679962158,0.24756065011024475
1783696068151962400,8.20296240234375,-1.28006911277771,-1.1156624555587769,0.28455647826194763
1783696068161926100,8.212926025390624,-1.3228380680084229,-1.1440919637680054,0.32286521792411804
1783696068171889400,8.222889404296875,-1.359522819519043,-1.1426820755004883,0.3566492795944214
1783696068181853200,8.232853271484375,-1.3846639394760132,-1.105460524559021,0.37968161702156067
1783696068191817200,8.242817138671874,-1.4101312160491943,-1.0081137418746948,0.3717118501663208
1783696068201780200,8.2527802734375,-1.4470889568328857,-0.9674763679504395,0.3260014057159424
1783696068211744300,8.262744140625,-1.4754517078399658,-0.9416250586509705,0.2571166157722473
1783696068221707300,8.272707275390625,-1.4981297254562378,-0.9504428505897522,0.16330645978450775
1783696068231671300,8.28267138671875,-1.5163968801498413,-0.9595652222633362,0.07126574218273163
1783696068241635300,8.29263525390625,-1.5343211889266968,-0.9801130294799805,-0.006769564934074879
1783696068251598300,8.302598388671875,-1.543182611465454,-1.0044869184494019,-0.05957658961415291
1783696068261562400,8.312562255859374,-1.5474061965942383,-1.0122907161712646,-0.09552001953125
1783696068271525600,8.322525634765626,-1.5447196960449219,-0.9959570169448853,-0.1148175448179245
1783696068281488400,8.33248828125,-1.5352011919021606,-0.9593660831451416,-0.1300608515739441
1783696068291452400,8.342452392578124,-1.517628788948059,-0.9125573039054871,-0.14749178290367126
1783696068301416400,8.35241650390625,-1.495886206626892,-0.8558833003044128,-0.170700341463089
1783696068311379500,8.36237939453125,-1.4675531387329102,-0.8087325692176819,-0.20148274302482605
1783696068321343500,8.372343505859375,-1.434320330619812,-0.781216561794281,-0.23353292047977448
1783696068331306500,8.382306396484376,-1.4030876159667969,-0.7612737417221069,-0.24377889931201935
1783696068341270500,8.3922705078125,-1.3665004968643188,-0.7568657398223877,-0.23455312848091125
1783696068351234600,8.402234619140625,-1.3243221044540405,-0.769173800945282,-0.20716756582260132
1783696068361197600,8.412197509765624,-1.2914339303970337,-0.7925314903259277,-0.1473686248064041
1783696068371161300,8.422161376953126,-1.2698758840560913,-0.8136077523231506,-0.07889795303344727
1783696068381125400,8.43212548828125,-1.2509196996688843,-0.8274734616279602,-0.013762306421995163
1783696068391088400,8.44208837890625,-1.2407687902450562,-0.8559194803237915,0.030089303851127625
1783696068401052400,8.452052490234376,-1.2402948141098022,-0.8966360092163086,0.056203462183475494
1783696068411016400,8.462016357421875,-1.2440261840820312,-0.9152373671531677,0.07764644175767899
1783696068420979500,8.4719794921875,-1.2525115013122559,-0.9065784215927124,0.088725246489048
1783696068430943500,8.481943603515624,-1.2498995065689087,-0.8923041820526123,0.07871202379465103
1783696068440907500,8.491907470703126,-1.2367956638336182,-0.8599976897239685,0.056071680039167404
1783696068450870500,8.50187060546875,-1.2188524007797241,-0.8039655685424805,0.022335287183523178
1783696068460834600,8.51183447265625,-1.1974889039993286,-0.7231876254081726,-0.020342621952295303
1783696068470797600,8.521797607421876,-1.1732187271118164,-0.6480340361595154,-0.06461954116821289
1783696068480761600,8.53176171875,-1.1537727117538452,-0.5775927901268005,-0.10446850210428238
1783696068490725600,8.5417255859375,-1.136239767074585,-0.5197960138320923,-0.12804414331912994
1783696068500688600,8.551688720703124,-1.1210912466049194,-0.48953601717948914,-0.1304057389497757
1783696068510652400,8.56165234375,-1.1096159219741821,-0.49081432819366455,-0.11994617432355881
1783696068520616400,8.571616455078125,-1.0914270877838135,-0.5253122448921204,-0.09577483683824539
1783696068530579500,8.581579345703124,-1.0653033256530762,-0.5575063824653625,-0.04857642948627472
1783696068540543500,8.59154345703125,-1.0311728715896606,-0.5560736656188965,0.015055414289236069
1783696068550507500,8.601507568359375,-0.9851483106613159,-0.549295961856842,0.0758545845746994
1783696068560470500,8.611470458984375,-0.9290168285369873,-0.5454747080802917,0.12485407292842865
1783696068570434600,8.6214345703125,-0.8780109286308289,-0.5365470051765442,0.1681583970785141
1783696068580397600,8.6313974609375,-0.8270546793937683,-0.5304830074310303,0.20499691367149353
1783696068590361600,8.641361572265625,-0.7826669812202454,-0.5211917161941528,0.2433328628540039
1783696068600325600,8.65132568359375,-0.7417442798614502,-0.4758051931858063,0.30075803399086
1783696068610288600,8.66128857421875,-0.6943264007568359,-0.3988334536552429,0.3662419617176056
1783696068620252700,8.671252685546875,-0.6446784138679504,-0.3437601625919342,0.4146239161491394
1783696068630216700,8.681216796875,-0.6117428541183472,-0.36871054768562317,0.425864577293396
1783696068640179500,8.691179443359376,-0.608191967010498,-0.4418482780456543,0.3999570310115814
1783696068650143700,8.701143798828125,-0.633459746837616,-0.5129246115684509,0.3648504316806793
1783696068660107500,8.711107421875,-0.6734894514083862,-0.5613768100738525,0.33725807070732117
1783696068670070500,8.721070556640624,-0.7239821553230286,-0.5677458047866821,0.3405721187591553
1783696068680034300,8.731034423828126,-0.7713443636894226,-0.5126544833183289,0.37739866971969604
1783696068689997300,8.740997314453125,-0.7991927862167358,-0.4035085439682007,0.4339791238307953
1783696068699961300,8.75096142578125,-0.7982680797576904,-0.27688702940940857,0.48258674144744873
1783696068709925400,8.76092529296875,-0.7803285121917725,-0.1843155324459076,0.49336403608322144
1783696068719888400,8.770888427734375,-0.7575498819351196,-0.16571246087551117,0.45495837926864624
1783696068729852400,8.780852294921875,-0.7482953667640686,-0.19206923246383667,0.38458701968193054
1783696068739816400,8.79081640625,-0.7560023069381714,-0.23372633755207062,0.30967646837234497
1783696068749779500,8.800779541015626,-0.7809646725654602,-0.2892473638057709,0.2534472942352295
1783696068759743500,8.810743408203125,-0.8102796077728271,-0.3465349078178406,0.22252020239830017
1783696068769707500,8.82070751953125,-0.8519700765609741,-0.3877963125705719,0.19891846179962158
1783696068779670500,8.83067041015625,-0.8685629367828369,-0.45818889141082764,0.19428259134292603
1783696068789634600,8.840634521484375,-0.8741784691810608,-0.48824453353881836,0.219765305519104
1783696068799597600,8.85059765625,-0.8825333714485168,-0.472912460565567,0.2531794607639313
1783696068809561600,8.8605615234375,-0.8658518195152283,-0.423308402299881,0.27345970273017883
1783696068819525400,8.870525390625,-0.8289443850517273,-0.3699232041835785,0.26183098554611206
1783696068829488600,8.880488525390625,-0.7892481088638306,-0.3281707167625427,0.22587114572525024
1783696068839452400,8.890452392578124,-0.7479194402694702,-0.3023046553134918,0.1771029680967331
1783696068849416400,8.90041650390625,-0.7065887451171875,-0.2690412402153015,0.12949363887310028
1783696068859379500,8.91037939453125,-0.6635379791259766,-0.22752083837985992,0.08733329176902771
1783696068869343500,8.920343505859375,-0.6274665594100952,-0.1935274600982666,0.05585286021232605
1783696068879307500,8.9303076171875,-0.6059432625770569,-0.1773090809583664,0.028392929583787918
1783696068889270500,8.9402705078125,-0.583602249622345,-0.17659641802310944,0.003165069967508316
1783696068899234600,8.950234619140625,-0.559969961643219,-0.17415449023246765,-0.009475977160036564
1783696068909198600,8.960198486328125,-0.5412505865097046,-0.1965058594942093,-0.00945413950830698
1783696068919161600,8.97016162109375,-0.5240590572357178,-0.2501518726348877,-0.010349406860768795
1783696068929125600,8.980125732421875,-0.5133448839187622,-0.32530146837234497,-0.013593669980764389
1783696068939088600,8.990088623046875,-0.4998904764652252,-0.4151337444782257,-0.014825155958533287
1783696068949052700,9.000052734375,-0.4920900762081146,-0.48963087797164917,-0.01756235398352146
1783696068959016400,9.010016357421875,-0.4792555570602417,-0.5241481065750122,-0.02666194923222065
1783696068968979700,9.019979736328125,-0.4608461856842041,-0.5221717357635498,-0.04274025559425354
1783696068978943500,9.029943603515624,-0.4436204135417938,-0.4705798029899597,-0.07277587801218033
1783696068988907500,9.039907470703126,-0.4223201870918274,-0.38741540908813477,-0.1051548570394516
1783696068998870500,9.04987060546875,-0.406643807888031,-0.29361334443092346,-0.13613443076610565
1783696069008834600,9.05983447265625,-0.39637333154678345,-0.2111017107963562,-0.157736137509346
1783696069018798600,9.069798583984374,-0.394726037979126,-0.15453606843948364,-0.16176091134548187
1783696069028761600,9.07976171875,-0.39487066864967346,-0.1257755309343338,-0.14535211026668549
1783696069038725600,9.0897255859375,-0.39595863223075867,-0.12812472879886627,-0.10583609342575073
1783696069048688400,9.0996884765625,-0.39229491353034973,-0.13083051145076752,-0.05316755548119545
1783696069058652400,9.10965234375,-0.3914899528026581,-0.1250736117362976,0.0027948408387601376
1783696069068616400,9.119616455078125,-0.395269513130188,-0.11899413913488388,0.045447494834661484
1783696069078579500,9.129579345703124,-0.3940331041812897,-0.11035694181919098,0.0676998570561409
1783696069088543500,9.13954345703125,-0.39828404784202576,-0.09531062096357346,0.06989722698926926
1783696069098507500,9.149507568359375,-0.4078310430049896,-0.08949214965105057,0.05276743322610855
1783696069108470500,9.159470458984375,-0.42392587661743164,-0.10163456946611404,0.02187822386622429
1783696069118434300,9.169434326171874,-0.4406752288341522,-0.12368746101856232,-0.008376636542379856
1783696069128398300,9.1793984375,-0.457614541053772,-0.1484396904706955,-0.02474682219326496
1783696069138361300,9.189361328125,-0.47828298807144165,-0.16939127445220947,-0.019909750670194626
1783696069148325400,9.199325439453125,-0.5005323886871338,-0.1910582184791565,0.0033265952952206135
1783696069158288400,9.209288330078126,-0.5180007815361023,-0.21315017342567444,0.02668089047074318
1783696069168252400,9.21925244140625,-0.537896454334259,-0.23582112789154053,0.04258741810917854
1783696069178216400,9.229216552734375,-0.5572275519371033,-0.2633805572986603,0.03497367724776268
1783696069188179500,9.239179443359374,-0.5746986865997314,-0.27249017357826233,0.008536744862794876
1783696069198143500,9.2491435546875,-0.5906408429145813,-0.25972995162010193,-0.021431028842926025
1783696069208107500,9.259107421875,-0.6050786375999451,-0.24137386679649353,-0.055907778441905975
1783696069218070500,9.269070556640624,-0.6091970205307007,-0.22096404433250427,-0.08046488463878632
1783696069228034600,9.27903466796875,-0.6111557483673096,-0.19612979888916016,-0.09651441872119904
1783696069237997600,9.28899755859375,-0.6114083528518677,-0.18054097890853882,-0.10928169637918472
1783696069247961600,9.298961669921875,-0.6065912246704102,-0.15411336719989777,-0.12422177195549011
1783696069257925600,9.308925537109374,-0.5999387502670288,-0.12779110670089722,-0.13333317637443542
1783696069267888600,9.318888671875,-0.5920901894569397,-0.11112822592258453,-0.13883952796459198
1783696069277853200,9.328853271484375,-0.5922447443008423,-0.109494648873806,-0.13284216821193695
1783696069287817200,9.338817138671875,-0.5917454361915588,-0.1349874883890152,-0.11246125400066376
1783696069297780200,9.3487802734375,-0.5871447920799255,-0.1688670665025711,-0.07898464053869247
1783696069307744300,9.358744140625,-0.5823620557785034,-0.19987531006336212,-0.038129087537527084
1783696069317708300,9.368708251953125,-0.5800060629844666,-0.24398572742938995,-0.008776210248470306
1783696069327671300,9.37867138671875,-0.5765500664710999,-0.2894413471221924,0.0023137249518185854
1783696069337635300,9.38863525390625,-0.577497124671936,-0.3207781910896301,0.009665697813034058
1783696069347598300,9.398598388671875,-0.5771275162696838,-0.32282882928848267,0.021062161773443222
1783696069357562400,9.408562255859374,-0.5675740838050842,-0.31343790888786316,0.03934323787689209
1783696069367526400,9.4185263671875,-0.5586972236633301,-0.2995433807373047,0.06463846564292908
1783696069377489400,9.428489501953125,-0.5447078347206116,-0.2822858393192291,0.09084485471248627
1783696069387453400,9.438453369140625,-0.5394928455352783,-0.27086034417152405,0.1159195825457573
1783696069397417200,9.448417236328124,-0.5419328808784485,-0.2627500891685486,0.1292780488729477
1783696069407380200,9.458380126953125,-0.5475857257843018,-0.2731550633907318,0.1398278921842575
1783696069417344300,9.46834423828125,-0.5581591725349426,-0.29291149973869324,0.1533985137939453
1783696069427308300,9.478308349609375,-0.5558459162712097,-0.3005425035953522,0.17977233231067657
1783696069437271300,9.488271240234376,-0.5405959486961365,-0.3019016981124878,0.21425200998783112
1783696069447235300,9.4982353515625,-0.534801721572876,-0.31861943006515503,0.24276621639728546
1783696069457198000,9.508197998046874,-0.5504021048545837,-0.3428419530391693,0.2543700635433197
1783696069467162400,9.518162353515624,-0.570627748966217,-0.3510090708732605,0.25586649775505066
1783696069477126400,9.52812646484375,-0.5868819952011108,-0.32204118371009827,0.24724996089935303
1783696069487089200,9.538089111328125,-0.6073846220970154,-0.29963892698287964,0.2186787724494934
1783696069497053200,9.54805322265625,-0.6270027756690979,-0.3101791441440582,0.17723530530929565
1783696069507017500,9.558017578125,-0.6483970284461975,-0.33030784130096436,0.1465250700712204
1783696069516980200,9.567980224609375,-0.6641975045204163,-0.33730465173721313,0.14755727350711823
1783696069526944300,9.5779443359375,-0.6771551370620728,-0.3291598856449127,0.16346938908100128
1783696069536908000,9.587907958984376,-0.6945648789405823,-0.33662930130958557,0.17315420508384705
1783696069546871300,9.597871337890625,-0.7132648229598999,-0.36738935112953186,0.16766169667243958
1783696069556835000,9.6078349609375,-0.7300588488578796,-0.40199172496795654,0.16652968525886536
1783696069566798300,9.61779833984375,-0.7465614080429077,-0.436629056930542,0.1666385978460312
1783696069576762000,9.62776220703125,-0.7638499736785889,-0.47162938117980957,0.1657978892326355
1783696069586726100,9.63772607421875,-0.7824249863624573,-0.5194839835166931,0.17119638621807098
1783696069596689200,9.647689208984374,-0.8029128909111023,-0.5885084867477417,0.18605759739875793
1783696069606653200,9.657653076171876,-0.824076771736145,-0.6570236682891846,0.20934906601905823
1783696069616617200,9.6676171875,-0.8467000722885132,-0.7063654065132141,0.2406047284603119
1783696069626580200,9.677580322265625,-0.8663398027420044,-0.7417545318603516,0.2631033957004547
1783696069636544300,9.687544189453124,-0.8855457305908203,-0.7652020454406738,0.27335283160209656
1783696069646508300,9.69750830078125,-0.912163496017456,-0.781914472579956,0.2748812139034271
1783696069656471300,9.70747119140625,-0.9461220502853394,-0.8064479827880859,0.2582038640975952
1783696069666435300,9.717435302734375,-0.9817373156547546,-0.8429654836654663,0.22538414597511292
1783696069676398300,9.7273984375,-1.0144107341766357,-0.8771297335624695,0.1841728538274765
1783696069686362400,9.7373623046875,-1.0542877912521362,-0.9120925068855286,0.14702895283699036
1783696069696326100,9.747326171875,-1.0975842475891113,-0.9351918697357178,0.1203538104891777
1783696069706289400,9.757289306640626,-1.1384061574935913,-0.9401389956474304,0.09225106984376907
1783696069716253200,9.767253173828125,-1.1807130575180054,-0.937151312828064,0.06315887719392776
1783696069726217200,9.77721728515625,-1.220292091369629,-0.9319959878921509,0.04467041417956352
1783696069736180200,9.78718017578125,-1.2543400526046753,-0.9130757451057434,0.04375142976641655
1783696069746144300,9.797144287109376,-1.2841618061065674,-0.8752501010894775,0.05929017439484596
1783696069756107300,9.807107177734375,-1.3054372072219849,-0.8328774571418762,0.08294185250997543
1783696069766071300,9.8170712890625,-1.3227767944335938,-0.8053776621818542,0.11071089655160904
1783696069776035300,9.827035400390624,-1.3374760150909424,-0.798985481262207,0.1313261091709137
1783696069785998300,9.836998291015625,-1.34932279586792,-0.8039826154708862,0.14353349804878235
1783696069795962400,9.84696240234375,-1.3646118640899658,-0.8131621479988098,0.15464557707309723
1783696069805926400,9.856926513671874,-1.3843594789505005,-0.8413500785827637,0.14922045171260834
1783696069815889400,9.866889404296876,-1.4033684730529785,-0.8925743103027344,0.13625814020633698
1783696069825853400,9.876853515625,-1.4213309288024902,-0.944084644317627,0.12392398715019226
1783696069835817200,9.886817138671875,-1.4331647157669067,-0.9810380935668945,0.12333822250366211
1783696069845780500,9.896780517578126,-1.4478981494903564,-1.0135622024536133,0.13496477901935577
1783696069855744300,9.906744140625,-1.4592353105545044,-1.0438052415847778,0.14936360716819763
1783696069865707300,9.916707275390625,-1.4608721733093262,-1.0550293922424316,0.15564042329788208
1783696069875671000,9.926671142578124,-1.4626127481460571,-1.0445882081985474,0.15846136212348938
1783696069885635000,9.936635009765626,-1.4612486362457275,-1.0107096433639526,0.153878852725029
1783696069895598000,9.94659814453125,-1.457319736480713,-0.9728072881698608,0.1429562121629715
1783696069905562000,9.95656201171875,-1.4619404077529907,-0.9278454184532166,0.12383418530225754
1783696069915526100,9.966526123046876,-1.4710538387298584,-0.8838204145431519,0.0940471962094307
1783696069925489200,9.9764892578125,-1.4820233583450317,-0.844962477684021,0.07896997779607773
1783696069935453200,9.986453125,-1.4960782527923584,-0.8481643795967102,0.0825769305229187
1783696069945417200,9.996417236328124,-1.4964510202407837,-0.8848675489425659,0.08084028959274292
1783696069955380200,10.006380126953125,-1.4821035861968994,-0.913831889629364,0.07134479284286499
1783696069965344300,10.01634423828125,-1.457929253578186,-0.9129703640937805,0.07003211975097656
1783696069975307300,10.026307373046874,-1.4364665746688843,-0.8990270495414734,0.07815714925527573
1783696069985271300,10.036271240234376,-1.426338791847229,-0.9059144854545593,0.0916934683918953
1783696069995235300,10.0462353515625,-1.4306068420410156,-0.944803774356842,0.11697915941476822
1783696070005198300,10.0561982421875,-1.4378011226654053,-0.9936528205871582,0.15880490839481354
1783696070015162000,10.066162109375,-1.451005458831787,-1.0217264890670776,0.1991322636604309
1783696070025126100,10.076126220703125,-1.4654285907745361,-1.042625069618225,0.1998065859079361
1783696070035089200,10.086089111328125,-1.4747856855392456,-1.023789644241333,0.1591409146785736
1783696070045053200,10.09605322265625,-1.4841821193695068,-0.9689521789550781,0.11975941061973572
1783696070055017200,10.106017333984376,-1.4968382120132446,-0.8892240524291992,0.08104054629802704
1783696070064980200,10.115980224609375,-1.489416480064392,-0.810483992099762,0.04643622785806656
1783696070074944300,10.1259443359375,-1.4643995761871338,-0.7544295787811279,0.03137805312871933
1783696070084907300,10.1359072265625,-1.4393528699874878,-0.7230977416038513,0.02133234404027462
1783696070094871300,10.145871337890625,-1.3963322639465332,-0.6795234680175781,-0.0007213597418740392
1783696070104835300,10.15583544921875,-1.3517283201217651,-0.5899038314819336,-0.011077061295509338
1783696070114798300,10.16579833984375,-1.3471243381500244,-0.5451030135154724,-0.0053706360049545765
1783696070124762400,10.175762451171876,-1.403195858001709,-0.5376251339912415,0.15266720950603485
1783696070134726400,10.185726318359375,-1.3571149110794067,-0.8556720614433289,0.1703658550977707
1783696070144689400,10.195689453125,-1.3110941648483276,-1.0074070692062378,0.16271433234214783
1783696070154653200,10.205653076171876,-1.3271278142929077,-0.9986603856086731,0.165504589676857
1783696070164616400,10.215616455078125,-1.3089216947555542,-0.955862283706665,0.14165306091308594
1783696070174580200,10.225580322265625,-1.278512716293335,-0.8295444250106812,0.07853296399116516
1783696070184544300,10.235544189453124,-1.2692697048187256,-0.6783280372619629,0.032873064279556274
1783696070194507300,10.24550732421875,-1.288197636604309,-0.537548840045929,0.062181659042835236
1783696070204471300,10.25547119140625,-1.204204797744751,-0.4321068227291107,0.13171705603599548
