time,seconds_elapsed,z,y,x
1783696070882363600,0.06136376953125,-0.3125415163278579,-0.09381284068524837,0.23836210833005606
1783696070892327400,0.071327392578125,-0.35383448070287704,-0.14819558825790882,0.02938040826320648
1783696070902290700,0.081290771484375,-0.32955636401474475,-0.1388967217758298,-0.00329348858743906
1783696070912254500,0.09125439453125,-0.22233342213630675,-0.09336042074263096,0.1344715988099575
1783696070922218500,0.101218505859375,0.025751111850142477,-0.0250464707121253,0.36551410484164953
1783696070932181500,0.111181396484375,0.329555779492855,-0.00523673160970211,0.6278208601217716
1783696070942145500,0.1211455078125,0.5470674805611372,-0.0725923580020666,0.774093152166903
1783696070952109600,0.131109619140625,0.7036036116629839,-0.19874299545139074,0.7865094930823892
1783696070962072600,0.141072509765625,0.8684387845546007,-0.3283545870095491,0.7577041812933981
1783696070972036600,0.15103662109375,1.0094769022732972,-0.4912950321957469,0.6449122801762074
1783696070981999400,0.160999267578125,1.0433657278716564,-0.668546911329031,0.5966064413644373
1783696070991963600,0.170963623046875,0.9161685039788484,-0.8272247306346893,0.518044142107293
1783696071001927700,0.180927734375,0.6504647266715765,-0.9146303346261382,0.47046851726621386
1783696071011890400,0.190890380859375,0.47124330103099343,-0.8632043910324573,0.5035420078936964
1783696071021854500,0.2008544921875,0.3942728740751743,-0.8016814163163304,0.6017552754949778
1783696071031818800,0.21081884765625,0.39256840824484823,-0.723734253282845,0.7177939034484326
1783696071041781500,0.220781494140625,0.4336041829884052,-0.599392418821156,0.8244052892997861
1783696071051745500,0.23074560546875,0.39691666658222674,-0.4897440033614635,0.8539027480714022
1783696071061708500,0.24070849609375,0.3115069125831127,-0.425277376408875,0.8122907078098506
1783696071071672300,0.25067236328125,0.16697393848598002,-0.40270138746351003,0.7321183430075645
1783696071081636400,0.26063623046875,-0.013218962535262106,-0.3577294423148036,0.6165376148894429
1783696071091599400,0.270599365234375,-0.16891513568162916,-0.30623277157247064,0.5737551426090299
1783696071101563400,0.2805634765625,-0.2877390835046768,-0.23929390928745267,0.5394582476664335
1783696071111527400,0.29052734375,-0.3135807962477207,-0.20848200691640376,0.5000950823102146
1783696071121490400,0.300490478515625,-0.3334925344198942,-0.29259207649379965,0.5845000431809574
1783696071131454500,0.310454345703125,-0.3698912970125675,-0.4167623537808656,0.7672462088815868
1783696071141418500,0.32041845703125,-0.3563333117812872,-0.6024488837823272,0.9886655118476599
1783696071151381500,0.330381591796875,-0.3203916453063488,-0.7237307461515069,1.1238995463974772
1783696071161345500,0.340345458984375,-0.3119756991386413,-0.7591013347402215,0.980407094329223
1783696071171308500,0.35030859375,-0.29947511400580407,-0.6857429608017206,0.7812265842434019
1783696071181272600,0.3602724609375,-0.34587504613101483,-0.5556202048510313,0.5102641557555645
1783696071191236600,0.370236572265625,-0.3267915754765272,-0.30307606110721824,0.3475660679578781
1783696071201199600,0.38019970703125,-0.415756391608715,-0.12872078019827604,0.20265929211229083
1783696071211163600,0.39016357421875,-0.5448305152893066,0.09006576311141253,0.12837057852111755
1783696071221127400,0.40012744140625,-0.5579764125883578,0.3117196785509586,0.28472441185861824
1783696071231090400,0.41009033203125,-0.486637854039669,0.48166532632410525,0.6347263286612927
1783696071241054500,0.420054443359375,-0.3211100227087736,0.6038710255399345,0.8909051756456494
1783696071251017500,0.430017578125,0.013914543583989143,0.6875786517962813,0.9542917522765696
1783696071260981500,0.4399814453125,0.30858956383168695,0.6253805542975663,0.9807053466234356
1783696071270945500,0.449945556640625,0.43395898777544495,0.49045624328404663,0.8399019875086844
1783696071280908500,0.459908447265625,0.5271376222103834,0.3764648301839828,0.5657530379392206
1783696071290872600,0.46987255859375,0.5218143813610077,0.17475509388148783,0.5852973310384899
1783696071300836600,0.479836669921875,0.3964297598481178,0.21485621812343597,0.48286052745804187
1783696071310799600,0.489799560546875,0.3523457034498453,0.34175708941817284,0.4086779776550829
1783696071320763600,0.499763671875,0.24991642558872698,0.45612055070102214,0.5734658773388713
1783696071330727700,0.509727783203125,0.3999456590145826,0.6341220791578293,0.4333896634548902
1783696071340690700,0.519690673828125,0.400905443957448,0.7223024669140576,0.45331963140349835
1783696071350654700,0.52965478515625,0.31384792275130746,0.9222516232848167,0.19155560469795016
1783696071360617700,0.53961767578125,0.26107670202851296,1.0755091711074114,-0.16042192302662878
1783696071370581500,0.54958154296875,0.15316811597347257,1.1258417665064335,-0.35270839928239583
1783696071380545500,0.559545654296875,0.008651508489251137,1.2420260134756564,-0.4037240815747529
1783696071390508500,0.569508544921875,-0.013830372431874275,1.2740788558185099,-0.6340497445739806
1783696071400472600,0.57947265625,-0.02918517795205116,1.1047598155111074,-0.681200933457911
1783696071410436600,0.5894365234375,-0.0315144976824522,0.9350649276286364,-0.6684886052705347
1783696071420399600,0.599399658203125,-0.08153729647994042,0.8013730810195208,-0.4852538523353636
1783696071430363600,0.60936376953125,0.02313420735001564,0.7293260819405317,-0.44211325079966335
1783696071440326700,0.61932666015625,0.18352233770489693,0.6557195784598588,-0.3070810589648783
1783696071450290700,0.629290771484375,0.35128070456683635,0.5939987430840731,-0.1735099891912192
1783696071460254700,0.639254638671875,0.5051233588010072,0.33411329666674133,0.263939397983253
1783696071470217700,0.6492177734375,0.7237029813617467,0.3099339641779661,0.2623213683273643
1783696071480181800,0.659181640625,0.8198720297843217,0.1181453179091215,0.3517733103893697
1783696071490145800,0.669145751953125,0.827635649523139,-0.1901104839235544,0.2564779029961675
1783696071500108500,0.679108642578125,0.9634662617266178,-0.15921616396605967,0.0729534463994205
1783696071510072800,0.68907275390625,1.2844079421311616,-0.12334697820544242,0.34350824393443763
1783696071520036600,0.69903662109375,1.2645657620638608,-0.5012362882345914,0.3038486529149115
1783696071529999600,0.70899951171875,0.9827040461599826,-0.610826836027205,0.19866276982203124
1783696071539963400,0.71896337890625,0.8373661854207515,-0.3601268588453531,-0.2422333968054503
1783696071549926400,0.728926513671875,0.5087140767693519,-0.33089053522795436,-0.28483116016872223
1783696071559890400,0.738890380859375,0.2966109567463398,-0.21690029117166995,-0.3395621366571635
1783696071569854500,0.7488544921875,-0.016585224097967147,-0.19420184489041567,-0.24032456750944256
1783696071579817500,0.7588173828125,-0.27363807743787766,-0.046375674466788766,-0.18795805513001979
1783696071589781500,0.768781494140625,-0.4154325664818287,0.0434244234457612,-0.17252594658993184
1783696071599745500,0.77874560546875,-0.4738917697131633,0.07623392937481403,0.009893836700543761
1783696071609708500,0.78870849609375,-0.4738946923226118,0.04337386230230331,0.15794146785512567
1783696071619672600,0.798672607421875,-0.36642099055349825,0.009061550594866276,0.22722689326629042
1783696071629635600,0.808635498046875,-0.21365327207446097,-0.08384703472703695,0.2847282112509012
1783696071639599600,0.818599609375,-0.06433014109134674,-0.19383798001408575,0.316765198437497
1783696071649563600,0.828563720703125,0.07582710213959216,-0.35911651275902984,0.2843830510750413
1783696071659526700,0.838526611328125,0.1100374147772789,-0.5527645231589675,0.2056713334098458
1783696071669490700,0.84849072265625,0.04716974745392799,-0.6726847417861223,0.1257333618853241
1783696071679454500,0.858454345703125,-0.07297931149303913,-0.7078758821547031,0.02485642803274095
1783696071689417700,0.868417724609375,-0.14900339750945568,-0.7531625923410058,-0.12229315830357372
1783696071699381500,0.878381591796875,-0.13072773610651492,-0.723088941116631,-0.11207125869244336
1783696071709344500,0.888344482421875,-0.19400807588398455,-0.7630898198544979,-0.11018237620592117
1783696071719308500,0.89830859375,-0.2966349221438169,-0.7401154792413115,-0.19611096644736825
1783696071729272600,0.9082724609375,-0.4255219988197088,-0.7271762104302645,-0.186277262436226
1783696071739235600,0.918235595703125,-0.48491059185564517,-0.6530512360334396,-0.16705314120203255
1783696071749199600,0.92819970703125,-0.34345980168282986,-0.6136100370049477,-0.2475488927397877
1783696071759163600,0.93816357421875,-0.1802501841664314,-0.66945321251899,-0.13589571332894265
1783696071769126700,0.948126708984375,-0.07512041517496108,-0.6260983471781015,-0.06716682582199573
1783696071779090700,0.958090576171875,-0.11395604952573776,-0.5460097882017493,-0.051439022270962594
1783696071789053700,0.9680537109375,-0.25471944195628166,-0.4684568851828575,-0.06374247739650309
1783696071799017700,0.978017822265625,-0.31308570620715614,-0.4543368821546435,-0.03883388078510761
1783696071808981800,0.987981689453125,-0.42196459859907626,-0.520884991556406,0.0816013746920973
1783696071818944800,0.99794482421875,-0.5329746578007936,-0.494879320423305,0.08357092119939624
1783696071828908800,1.00790869140625,-0.6446797135293484,-0.49105187108963727,0.07014642615467309
1783696071838872600,1.01787255859375,-0.7586831093281508,-0.5266442857354879,0.09430851524770259
1783696071848835600,1.027835693359375,-0.7753285391807556,-0.5183545962959528,0.12036080200150609
1783696071858799600,1.037799560546875,-0.7738619737595319,-0.4905909755796194,0.13915785693004726
1783696071868762400,1.047762451171875,-0.8803805667608976,-0.4468973798036575,0.16738244622163473
1783696071878726400,1.057726318359375,-0.9712544313848018,-0.3424690370798111,0.16432298558577893
1783696071888690700,1.067690673828125,-1.0052397030949591,-0.2623760941892862,0.11718947848901153
1783696071898653400,1.0776533203125,-1.0054629904568195,-0.17578589823395013,0.1153098752874881
1783696071908617500,1.087617431640625,-0.9962392350375652,-0.1449137901082635,0.06458535796143114
1783696071918581500,1.09758154296875,-0.9845680864661931,-0.09442308153808117,-0.024842107246443628
1783696071928544500,1.10754443359375,-0.9751151984661817,-0.05496902302801609,-0.1398676856998354
1783696071938508500,1.117508544921875,-0.9704711720526218,-0.06531681404113769,-0.19478169060498474
1783696071948471600,1.127471435546875,-0.9653121818542479,-0.22413374955654142,-0.10365282830670475
1783696071958435600,1.137435546875,-0.7537941682428121,-0.43293139829337596,0.02788352076895535
1783696071968399600,1.147399658203125,-0.39640520992875095,-0.48386897384822364,-0.19029782318919897
1783696071978362600,1.157362548828125,-0.18428396972715855,-0.612913871434331,-0.2250981376092881
1783696071988326700,1.16732666015625,-0.06968728421032429,-0.7699184968307614,-0.1661960859812796
1783696071998290400,1.17729052734375,-0.01741173804998398,-0.8475561555236577,-0.22201887629441916
1783696072008253700,1.187253662109375,-0.06681377460062503,-0.8209522262364626,-0.23220913865827023
1783696072018217500,1.197217529296875,-0.187692316865921,-0.5987453530892729,-0.292704816153273
1783696072028180500,1.207180419921875,-0.280192905908823,-0.37120617900341746,-0.4146810905274004
1783696072038144500,1.21714453125,-0.35367081457376476,-0.2861921463236213,-0.3267296161562204
1783696072048108500,1.227108642578125,-0.39425709198415276,-0.15308131447285414,-0.2402102204147726
1783696072058071600,1.237071533203125,-0.33881168361604214,-0.0025336101308465002,-0.16198066024333238
1783696072068035600,1.24703564453125,-0.2616618084400892,0.12592033582478762,-0.09357705916799604
1783696072077999600,1.25699951171875,-0.15876725115478038,0.2539250767081976,-0.04818761925958097
1783696072087962600,1.266962646484375,-0.08890577942132949,0.2775648954927921,0.01236512218490243
1783696072097926700,1.2769267578125,0.016969254979491234,0.3245847130820155,-0.04662007768191397
1783696072107889700,1.2868896484375,0.13903203859329222,0.31594051111638544,-0.08226422251500189
1783696072117853700,1.296853759765625,0.1756634408980608,0.33952889197468755,-0.11156557419262826
1783696072127817700,1.306817626953125,0.14200082527101038,0.460889664798975,-0.12649996234364808
1783696072137780700,1.31678076171875,0.05248655856251716,0.6060071607857942,-0.19672858688905834
1783696072147744800,1.326744873046875,-0.02496492990851402,0.8066291018515824,-0.24854908275827764
1783696072157708500,1.33670849609375,-0.02527005033493042,1.0434195038855074,-0.21686931151151656
1783696072167671800,1.346671875,0.08472410982251166,1.255113458585739,-0.11608743553124368
1783696072177635600,1.356635498046875,0.2986404167473316,1.4228344160467385,-0.006620514118298888
1783696072187598600,1.3665986328125,0.53270168607831,1.4428390931993722,0.18566512188725173
1783696072197562600,1.376562744140625,0.7213198856174945,1.4533955585271119,0.4268803546261042
1783696072207526700,1.386526611328125,0.8656278187870978,1.452925602927804,0.5169635803289712
1783696072217489400,1.396489501953125,1.0532885714709759,1.3662743244349955,0.548813447445631
1783696072227453700,1.40645361328125,1.2128139475166797,1.1945651741206644,0.6203359842590987
1783696072237417700,1.416417724609375,1.2679776163339613,0.9964677830964326,0.6233067436981946
1783696072247380500,1.42638037109375,1.2103799983680248,0.7465496039420366,0.6631632455293088
1783696072257344500,1.436344482421875,0.9846031577795743,0.44472529646158215,0.7789862579707055
1783696072267307500,1.4463076171875,0.6724000796258449,0.22548808677494525,0.8692506854593753
1783696072277271800,1.456271728515625,0.3737959032356739,0.026944121026992795,0.890037233704701
1783696072287235800,1.46623583984375,0.18375965359210966,-0.1244762744963169,0.9212991448655724
1783696072297198800,1.47619873046875,0.017814473631978033,-0.21555530630350112,0.8787912517428398
1783696072307163000,1.486162841796875,-0.11540274120271206,-0.23367022418677805,0.7523390740636736
1783696072317126000,1.4961259765625,-0.17831833932101726,-0.14224164828956126,0.5810160369900986
1783696072327089700,1.506089599609375,-0.16774959903359413,-0.010305120915174484,0.4159737241538241
1783696072337053700,1.5160537109375,-0.2341162143886089,0.1465031051263213,0.23123137966729698
1783696072347016700,1.5260166015625,-0.2628343593508005,0.3868549990341067,0.13895458944290875
1783696072356980700,1.535980712890625,-0.3136374948710203,0.5150689987540245,0.0670895958673209
1783696072366944800,1.54594482421875,-0.359174088165164,0.6718383540898561,0.10576611239993944
1783696072376907800,1.55590771484375,-0.34362522137761115,0.7994511730462313,0.16840990783954038
1783696072386871800,1.565871826171875,-0.2920236289560795,0.8128487070187925,0.13728117633797227
1783696072396834800,1.575834716796875,-0.2066933699339628,0.7543713836088776,0.09882876915112138
1783696072406798800,1.585798828125,-0.084469842800498,0.5966916354298591,0.0730189493836835
1783696072416763000,1.595762939453125,0.013894669839739799,0.40724019993692634,0.0965018971061334
1783696072426726000,1.605725830078125,0.1355295834302902,0.32697833022028205,0.09132960903476924
1783696072436690000,1.61568994140625,0.38623686713576316,0.2175035177618265,0.15590601650476454
1783696072446654000,1.625654052734375,0.7158183655917644,0.038245267242193216,0.2543578421022743
1783696072456616700,1.63561669921875,0.8784802860975265,-0.1531000191733241,0.3499756498502567
1783696072466581000,1.6455810546875,0.9380915819734335,-0.18983955802768468,0.3696961032340303
1783696072476543700,1.655543701171875,0.9280191007703542,-0.18708879801481962,0.40300533884614703
1783696072486507800,1.6655078125,0.8520295015454292,-0.23870354217886924,0.40525830540470775
1783696072496471600,1.675471435546875,0.684255937114358,-0.25713234831690784,0.37564346733111886
1783696072506434600,1.6854345703125,0.48177346287369727,-0.27923838166296483,0.30896574020031836
1783696072516398600,1.695398681640625,0.2017886467576027,-0.28421324746608734,0.23755071888193488
1783696072526362600,1.705362548828125,-0.14291209489703177,-0.29312516045719383,0.17293023480819536
1783696072536325600,1.71532568359375,-0.4295166214138269,-0.1859308601513505,0.09128675627373159
1783696072546289700,1.72528955078125,-0.6198194130390882,-0.06915040085464716,0.0642252924773842
1783696072556252700,1.735252685546875,-0.6873948196619749,-0.020935820522904394,0.09553546322677284
1783696072566216700,1.745216796875,-0.8208937740474939,0.014295359595119952,0.07614687214586884
1783696072576180700,1.7551806640625,-0.8811357690423727,0.09874562091231345,-0.020884309531375763
1783696072586143700,1.765143798828125,-0.9310773192971944,0.07477087108492851,-0.066351783112064
1783696072596107800,1.775107666015625,-0.9759580790311098,0.04233487464338541,-0.08910427940180525
1783696072606071800,1.78507177734375,-1.090750579380989,0.07809183220118283,-0.07932274396931752
1783696072616034800,1.795034912109375,-1.1630553526133298,0.19825901132673024,-0.12573663155464454
1783696072625998800,1.804998779296875,-1.062225326642394,0.23209435317218302,-0.12994436717648059
1783696072635961900,1.8149619140625,-0.892159267359972,0.2322588960841298,-0.047161984272580594
1783696072645926000,1.82492578125,-0.6917500922620297,0.24171236860603093,-0.016373700239136812
1783696072655889700,1.8348896484375,-0.4826379707485437,0.2379398643299937,-0.025593455336708575
1783696072665852700,1.844852783203125,-0.3160264358341694,0.2161491805434227,-0.002289773171301931
1783696072675816700,1.854816650390625,-0.253780699801445,0.13252309509068727,0.028628530449979005
1783696072685779700,1.86477978515625,-0.25958091051280496,0.038109073641896245,0.03431517951795831
1783696072695743700,1.87474365234375,-0.27367139518558975,-0.11428250500112772,0.08834407215164974
1783696072705707800,1.884707763671875,-0.2385042202144861,-0.41577831117957825,0.32320874855369325
1783696072715670800,1.8946708984375,-0.04510638518333435,-0.6078486969992518,0.4438250231536105
1783696072725634800,1.904634765625,0.13408932149410246,-0.7599345706939696,0.3680022318629548
1783696072735598800,1.914598876953125,0.1698158839136362,-0.9827306419059634,0.31618849452808495
1783696072745561900,1.924561767578125,0.12946166169345377,-1.0915621880248187,0.19782986266184596
1783696072755526000,1.93452587890625,0.03434942884743213,-1.0951450149476527,-0.0029219153286889196
1783696072765489000,1.944489013671875,-0.10884732820987701,-1.0041934089124203,-0.2498888069294393
1783696072775453000,1.954452880859375,-0.2400906126230955,-0.807534526258707,-0.41785117193087934
1783696072785417000,1.9644169921875,-0.3346984030783176,-0.5500806909024715,-0.44021289707105604
1783696072795380000,1.9743798828125,-0.40164427962601185,-0.19176000469624996,-0.3625815585210919
1783696072805343700,1.98434375,-0.4441477888345718,0.1582590093716979,-0.22604984884355217
1783696072815306800,1.994306640625,-0.4348667502701282,0.37264059572070835,-0.026603125569596885
1783696072825270500,2.0042705078125,-0.40107203269600866,0.47459991798251866,0.12698040280435233
1783696072835234600,2.014234619140625,-0.3965992711961269,0.4793731237336993,0.20596154852807522
1783696072845197600,2.024197509765625,-0.3736351597160101,0.3779477622181177,0.1852079892368987
1783696072855161600,2.03416162109375,-0.27555881636738777,0.286228094419837,0.1905869788615033
1783696072865125600,2.044125732421875,-0.18567396278083323,0.10768851356357335,0.16296959821544588
1783696072875088600,2.054088623046875,-0.12511048074662684,-0.03725011872500181,0.04123020133711398
1783696072885052700,2.064052734375,-0.12278408362567424,-0.10567717374116181,-0.06253817964065819
1783696072895015700,2.074015625,-0.16165829642117022,-0.12132862412035464,-0.12135708302985876
1783696072904979700,2.083979736328125,-0.2790525037020445,-0.10486351927071809,-0.18087149440255015
1783696072914943700,2.09394384765625,-0.42982466444969175,-0.029087855057418344,-0.20999558981712907
1783696072924906800,2.10390673828125,-0.6199778184711933,0.057058688783645624,-0.22358521229568867
1783696072934870800,2.113870849609375,-0.7121627656936645,0.20657237390279767,-0.30179413153789936
1783696072944834800,2.123834716796875,-0.6892021613448858,0.3331558498114347,-0.42001638714075085
1783696072954797800,2.1337978515625,-0.5761415993541479,0.41175300118625163,-0.46857959824707357
1783696072964761900,2.143761962890625,-0.4239835372060537,0.4840691725954413,-0.4646185491289943
1783696072974724900,2.153724853515625,-0.339365810367465,0.5487544107347726,-0.4728482520096004
1783696072984688600,2.163688720703125,-0.24456746577620506,0.5976756780311465,-0.4454622324340045
1783696072994652700,2.173652587890625,-0.04224690409898758,0.6525961857423186,-0.4104214237889275
1783696073004615700,2.18361572265625,0.1796276683539152,0.6636074091002345,-0.320706410343945
1783696073014579700,2.193579833984375,0.292214767614007,0.5734209422186016,-0.16624394371099768
1783696073024542700,2.203542724609375,0.27098376353681086,0.46153556148707864,-0.07043455891367048
1783696073034506800,2.2135068359375,0.20046938085258006,0.25622224773466584,0.0010687982752919196
1783696073044470800,2.223470703125,0.20046996537446973,0.08956921176612377,0.035750454751774664
1783696073054433800,2.233433837890625,0.27165070301294325,-0.1093643378213048,0.06884644947201013
1783696073064397800,2.243397705078125,0.36899113330245015,-0.2836103131368756,0.0734591308992356
1783696073074361900,2.25336181640625,0.4588385774880647,-0.43870530551970005,0.05278408020436764
1783696073084324900,2.263324951171875,0.4970394210666418,-0.5510013128787279,0.028554259637370703
1783696073094289000,2.273288818359375,0.5003583363562822,-0.5782777346000075,-0.0012777648508548736
1783696073104252000,2.283251953125,0.4470136996597051,-0.5953215161204338,-0.0077304115889593955
1783696073114216000,2.2932158203125,0.311084887778759,-0.562194907066226,-0.04269862992186099
1783696073124180000,2.303179931640625,0.1914525461822748,-0.42157501475960013,-0.10502660087794065
1783696073134143000,2.31314306640625,0.08764964188039302,-0.23402035279870032,-0.13464374050647018
1783696073144106800,2.323106689453125,0.0076888009369373315,-0.09736176533848047,-0.10604783368445932
1783696073154070800,2.33307080078125,-0.016970424023270606,0.006997019280493259,-0.09711473177485168
1783696073164033500,2.343033447265625,-0.04789747720658779,0.0798886524900794,-0.1285125077424571
1783696073173997600,2.35299755859375,-0.09977554848194121,0.1482414732262492,-0.23855167608540503
1783696073183960600,2.362960693359375,-0.09720072955787182,0.1407736215636134,-0.34522944170385594
1783696073193924600,2.372924560546875,-0.04592997652590274,0.07938742496967315,-0.3707864192213863
1783696073203888600,2.382888671875,-0.029833412727713584,0.03698503804802895,-0.33266437650006264
1783696073213851600,2.3928515625,0.025683891832828522,0.048428807604312896,-0.2316102229170501
1783696073223815700,2.402815673828125,0.09999357514679431,0.055397477573156356,-0.10654566367138177
1783696073233779700,2.41277978515625,0.22038696424365042,0.052180561353266236,0.0018787264186888933
1783696073243742700,2.42274267578125,0.4084031062364578,-0.001052139401435852,0.09563472235016524
1783696073253706800,2.432706787109375,0.5848913075208664,-0.018185645031929015,0.167501761752367
1783696073263669800,2.442669677734375,0.725267161938548,-0.1029421958193183,0.13698803861029446
1783696073273633800,2.4526337890625,0.8491612526327371,-0.2391623918622732,0.09440832236036657
1783696073283598300,2.462598388671875,0.874326089027524,-0.3513584459781647,0.04092171990983188
1783696073293561300,2.472561279296875,0.8185328901350498,-0.3824000654518604,-0.0048824748119339345
1783696073303525400,2.482525390625,0.7724532760053873,-0.370130950987339,-0.024986484153196212
1783696073313488100,2.492488037109375,0.7526847456961869,-0.33617928928583857,0.0005197130251675844
1783696073323452200,2.5024521484375,0.6846282775580883,-0.2957005639031529,0.058671457742527126
1783696073333416200,2.512416259765625,0.6006652152359485,-0.24232290171980855,0.09812105927318333
1783696073343379200,2.522379150390625,0.4862514850705862,-0.18301701853126287,0.14711678004525602
1783696073353343200,2.53234326171875,0.36769291018545625,-0.13075900802761314,0.1913567576576024
1783696073363307300,2.542307373046875,0.17890052312314508,-0.09454641565680504,0.2241679440870881
1783696073373270300,2.552270263671875,-0.029619477716088295,-0.006211714121699333,0.24913981519304215
1783696073383234300,2.562234375,-0.238539876049757,0.061330374753475185,0.2488783147126436
1783696073393197300,2.572197265625,-0.4224684564679861,0.08758066829741,0.2340128270793706
1783696073403161300,2.582161376953125,-0.5209750079274177,0.08260697153806686,0.17627331642471253
1783696073413125400,2.59212548828125,-0.6710457424074411,0.03476443938910961,0.1848142772115767
1783696073423088400,2.60208837890625,-0.7252110478371381,0.07333470080196856,0.19703304972834884
1783696073433052400,2.612052490234375,-0.7907090636640787,0.05268178887367248,0.25614319114908574
1783696073443015400,2.622015380859375,-0.9250462224394083,-0.000034486791491508485,0.397548900071159
1783696073452979200,2.631979248046875,-0.9415344159036875,-0.16820961776077747,0.6503918806310742
1783696073462943200,2.641943115234375,-0.8062930017650127,-0.34539340009391306,0.8710022783670573
1783696073472906200,2.65190625,-0.6398819578588009,-0.4279799133658409,0.8022894652120769
1783696073482870300,2.661870361328125,-0.6028636020630598,-0.44373336281478404,0.4780095802955329
1783696073492834300,2.671834228515625,-0.6649655457109213,-0.37658757978081703,-0.0012320990782231092
1783696073502797300,2.68179736328125,-0.7969102563917636,-0.32529987561404705,-0.48720396348983047
1783696073512761300,2.69176123046875,-0.9614256958097219,-0.27252164062857626,-0.8008802560012787
1783696073522724400,2.701724365234375,-1.1589864957392215,-0.06753332104682921,-0.9353121803879737
1783696073532688400,2.7116884765625,-1.2427145802617072,0.264237796407938,-0.974497358828783
1783696073542652400,2.72165234375,-1.133131338992715,0.3394873909205198,-0.8824358187902718
1783696073552615400,2.731615478515625,-0.8800298536270856,0.32963001377284523,-0.566631720469892
1783696073562579500,2.741579345703125,-0.34095687895119187,0.3743096979767084,-0.30965427045375105
1783696073572543500,2.75154345703125,0.3516922079771757,0.29835633910894394,-0.11577741973400116
1783696073582506500,2.761506591796875,1.0900351245880127,0.13142507072091103,0.05637034119330346
1783696073592470500,2.771470458984375,1.6227105071812866,-0.04104045091867447,0.1729328468903899
1783696073602433500,2.78143359375,1.9113819031000137,-0.1766524519354105,0.15991715184226632
1783696073612397300,2.791397216796875,1.87071262358129,-0.34391280614733694,0.0761493928965181
1783696073622361300,2.801361328125,1.5437608891069887,-0.33146599702835083,0.03516111055649817
1783696073632324400,2.811324462890625,1.1614426567196845,-0.27525544950664044,-0.02159698784537613
1783696073642288400,2.821288330078125,0.7217617841660976,-0.0589116231739521,-0.04195851561166346
1783696073652252400,2.83125244140625,0.31197628366053104,0.3134136229872703,-0.037016090773418546
1783696073662215200,2.841215087890625,0.055011693125963206,0.7293874567389488,0.03599551555402577
1783696073672179500,2.851179443359375,-0.09721651164889335,1.103165824317932,0.22051614358127117
1783696073682142200,2.86114208984375,-0.18303835358023643,1.3734499151527881,0.45720710382871327
1783696073692106200,2.871106201171875,-0.35915304537713527,1.5537106207132338,0.7632043130796402
1783696073702070300,2.8810703125,-0.43569677135348317,1.7033739434361457,0.9818941180165857
1783696073712033300,2.891033203125,-0.38206396536529064,1.5551532207369803,1.0977779207345097
1783696073721997300,2.900997314453125,-0.2570142748951912,1.2606997342854738,1.0673666350536049
1783696073731960300,2.910960205078125,-0.12915069604814053,0.9924263987511396,1.0113073325708508
1783696073741924400,2.92092431640625,-0.026585224586725232,0.753399031445384,0.8796836705379187
1783696073751888400,2.930888427734375,0.029962007543444632,0.5023907189667225,0.8572615569800138
1783696073761851400,2.940851318359375,0.026292379119992253,0.3057160542219877,0.9597081513021141
1783696073771815400,2.9508154296875,0.029090485405921934,0.24194530057907104,1.0894372317600995
1783696073781779200,2.960779296875,-0.03199672824144363,0.15947393811941146,1.1885834693625568
1783696073791742200,2.9707421875,-0.12608370969295501,0.1478214942485094,1.1558202867932617
1783696073801706200,2.980706298828125,-0.18533786269426344,0.240613759714365,1.1055552767377346
1783696073811669200,2.990669189453125,-0.2408306173354387,0.30811902371048927,1.0256095602981745
1783696073821633300,3.00063330078125,-0.36871114731729027,0.4089204081088304,0.9201122731685638
1783696073831597300,3.010597412109375,-0.5213783280313015,0.4906956049978733,0.7878191874414682
1783696073841560300,3.020560302734375,-0.6669926676243543,0.6433113477855921,0.7041227401662618
1783696073851524400,3.0305244140625,-0.7967208712995052,0.8149678911298512,0.6942401555120945
1783696073861488400,3.04048828125,-0.9912047480016947,0.9082996702998876,0.7506649303063749
1783696073871451400,3.050451416015625,-1.0865911216139792,0.9814292039185761,0.7708952329084277
1783696073881415400,3.06041552734375,-1.2539753944665193,1.0945260062664746,0.8251706476490944
1783696073891378400,3.07037841796875,-1.2469061867326496,1.179405598911643,0.8136326970033347
1783696073901342500,3.080342529296875,-1.1042091958910225,1.0512509281635283,0.8479913320705295
1783696073911306500,3.090306396484375,-0.9439303711295127,0.880079537987709,0.8626936650313436
1783696073921269500,3.10026953125,-0.7840174570709466,0.7582710213959216,0.8535716164208949
1783696073931233300,3.1102333984375,-0.626091917437315,0.6425403634130954,0.8194597957216203
1783696073941196500,3.120196533203125,-0.39800563086271284,0.5375789367258549,0.8282042431913316
1783696073951160300,3.130160400390625,-0.17148177129924297,0.42034255035519597,0.8172282372772693
1783696073961124400,3.140124267578125,-0.035061961030960084,0.3217763776630163,0.8266193120874464
1783696073971087400,3.15008740234375,0.03841711667776108,0.25604279951453207,0.7822999856285751
1783696073981051400,3.160051513671875,0.06558569411039351,0.20690905851125715,0.6999165937133133
1783696073991015400,3.170015380859375,0.04031213664412498,0.15951777726113794,0.6429908836595714
1783696074000978200,3.179978271484375,-0.07192483400404452,0.1701250959932804,0.6023240883588791
1783696074010942500,3.1899423828125,-0.2304395717024803,0.2398158873349428,0.5676247500952333
1783696074020905200,3.1999052734375,-0.30915187388956544,0.2861357399612665,0.5023168134802952
1783696074030869200,3.209869140625,-0.318168124037981,0.3318804230481386,0.5034347481269389
1783696074040833300,3.219833251953125,-0.33747780466377736,0.36567630966603754,0.5331821630716324
1783696074050796300,3.22979638671875,-0.3624830665826797,0.44506081202626224,0.5192602033661678
1783696074060760300,3.23976025390625,-0.41100656673312186,0.4867658643335104,0.5024731365531683
1783696074070724400,3.249724365234375,-0.4413216254979372,0.5430015462964772,0.49161940531190484
1783696074080687400,3.259687255859375,-0.40516251688003535,0.5364911414891481,0.42672260678112506
1783696074090651400,3.2696513671875,-0.4240145168662071,0.5546241795510053,0.5173585344633087
1783696074100614400,3.279614501953125,-0.5544236885428429,0.6364496453225612,0.542220625051856
1783696074110578200,3.289578125,-0.5277180524468421,0.5797270566254854,0.5997442279335111
1783696074120542200,3.299542236328125,-0.4275707480430603,0.3460720300078392,0.9007947745624929
1783696074130505200,3.309505126953125,-0.34219840344488617,-0.016605682364106176,1.2170250624056904
1783696074140469200,3.31946923828125,-0.11696107656061648,-0.3344108183085918,1.3583900009259582
1783696074150432300,3.329432373046875,0.23012802153527737,-0.5439893882900476,1.3310463591873645
1783696074160396300,3.339396240234375,0.410698523697257,-0.5588572870761156,1.087517369613424
1783696074170360300,3.3493603515625,0.38224049097597596,-0.4011521121948957,0.7656406733810901
1783696074180323300,3.3593232421875,0.20486206285357475,-0.14652444017529487,0.5525845269495621
1783696074190287400,3.369287353515625,-0.03206920895576477,0.2402601239711046,0.46712249477393925
1783696074200251400,3.37925146484375,-0.2680021173775196,0.6739689363777637,0.504642918340303
1783696074210214400,3.38921435546875,-0.4564151497334242,1.0396534293502568,0.5935829288247972
1783696074220178400,3.399178466796875,-0.5469897391498089,1.2858388517171144,0.6054266940167173
1783696074230141400,3.409141357421875,-0.6706658031791448,1.4147054701268673,0.6331853828296065
1783696074240105500,3.41910546875,-0.7289800449818372,1.434521346709132,0.6410458870716392
1783696074250069500,3.429069580078125,-0.6717950994700193,1.3195458910077809,0.5900390091402455
1783696074260032500,3.439032470703125,-0.5847264723479747,1.1194237161576748,0.4883044720776379
1783696074269996300,3.448996337890625,-0.49499300993084905,0.9427280096024274,0.3753757928382605
1783696074279958800,3.458958740234375,-0.4155716826915741,0.7844459116160869,0.24472258327268062
1783696074289922800,3.4689228515625,-0.27614801443219184,0.6127788468778133,0.17291067159119994
1783696074299886600,3.478886474609375,-0.11810089424550532,0.4686836796760559,0.14589867295976727
1783696074309849900,3.488849853515625,0.08171732922196388,0.4180050473183393,0.1662269012446515
1783696074319813600,3.498813720703125,0.3109960404515266,0.46210254772007464,0.23521148054571822
1783696074329777700,3.508777587890625,0.46226153767406936,0.5674152720630169,0.36330662139263004
1783696074339740700,3.51874072265625,0.36811551951169963,0.7465764919489621,0.44512584008648987
1783696074349704700,3.52870458984375,0.2215378878444433,0.9482838901638984,0.3902195800963789
1783696074359667700,3.538667724609375,0.10151859275698662,1.0660194582283495,0.3455534129612148
1783696074369631700,3.5486318359375,-0.04287701869606971,1.1168722781091929,0.2819214284681715
1783696074379595800,3.558595703125,-0.2537105571746826,1.0218541532874106,0.19969614972406996
1783696074389558800,3.568558837890625,-0.43837154352068897,0.924755715060234,0.07988222274929285
1783696074399522800,3.578522705078125,-0.6078378833442926,0.7769494183808565,-0.07167821143236942
1783696074409485800,3.58848583984375,-0.6476835715204476,0.5858697971642017,-0.18450561312120406
1783696074419449900,3.598449951171875,-0.5633353092730045,0.39150340936183925,-0.18937714641401543
1783696074429414000,3.608413818359375,-0.4831821606278419,0.246874573674798,-0.1388140301947482
1783696074439377000,3.618376953125,-0.35024610082209107,0.09355331296622753,-0.0857553069006186
1783696074449341000,3.6283408203125,-0.2081318783044815,0.05397416677176952,-0.04372214601701125
1783696074459304700,3.6383046875,-0.14710077875852584,0.044217327389121056,0.04827165341437794
1783696074469268000,3.64826806640625,-0.19088497542738914,0.07473521524965762,0.17428312898818402
1783696074479231700,3.658231689453125,-0.30644319945275783,0.13954934046566486,0.2571595651173964
1783696074489194800,3.66819482421875,-0.4002046022117138,0.20318799216151237,0.3000819938577711
1783696074499158800,3.67815869140625,-0.45139059956967825,0.26866204259097576,0.29533945723949
1783696074509122800,3.688122802734375,-0.5361106177389622,0.31031098079681396,0.27229517492894084
1783696074519085600,3.69808544921875,-0.6733838299661874,0.33127602741420265,0.20002940026642754
1783696074529049900,3.7080498046875,-0.7931500270754098,0.3750011873722076,0.10511230640001594
1783696074539014000,3.718013916015625,-0.8466863869518041,0.3699094171911478,0.024315681352699174
1783696074548976600,3.7279765625,-0.8248708609849215,0.3223930482566357,-0.026049565073754638
1783696074558940700,3.737940673828125,-0.792577195623517,0.2611795778810978,-0.0864932292537298
1783696074568903700,3.747903564453125,-0.7472159588962793,0.22443010215461254,-0.14736764040063136
1783696074578867700,3.75786767578125,-0.6607365298390389,0.18826222570836543,-0.11920812483504414
1783696074588831700,3.767831787109375,-0.6170546245008707,0.09400047221183776,-0.042290642776014284
1783696074598794800,3.777794677734375,-0.594634702900052,0.034438276174664495,0.03766685543288477
1783696074608758800,3.7877587890625,-0.6217424900561571,0.014325462472438811,0.08898687270036898
1783696074618721800,3.7977216796875,-0.6136907010257244,-0.05505611678957939,0.13356464003287255
1783696074628685800,3.807685791015625,-0.4669342056602239,-0.16307693104743956,0.2034917791473679
1783696074638649600,3.817649658203125,-0.3396224154770374,-0.27145021200478076,0.28121901581985875
1783696074648612900,3.82761279296875,-0.27609949911534787,-0.3329442528873682,0.3039547071052715
1783696074658576600,3.83757666015625,-0.16444646583497524,-0.31446810047626494,0.35043157692421223
1783696074668539600,3.84753955078125,-0.07401683784723281,-0.29324060353040693,0.4379711460262537
1783696074678503700,3.857503662109375,-0.04690495903789997,-0.22639935640096664,0.4919238316185772
1783696074688467700,3.8674677734375,-0.0965039794653654,-0.10724340014457702,0.5507653852310032
1783696074698430700,3.8774306640625,-0.13950024062693117,0.04893967973589897,0.5423827202783897
1783696074708394800,3.887394775390625,-0.1190782148450613,0.2223345911800861,0.5565206608220935
1783696074718358800,3.89735888671875,-0.12585165450274943,0.36636429193019865,0.5789234486250207
1783696074728321800,3.90732177734375,-0.15343699604272842,0.5221195017874241,0.5834441043872386
1783696074738285800,3.917285888671875,-0.21679157010018824,0.6637912412345409,0.573115383400768
1783696074748248800,3.927248779296875,-0.35801673482358454,0.7871399730056524,0.5428971726065501
1783696074758212900,3.937212890625,-0.46947103066146373,0.9203127641767263,0.45158626827225085
1783696074768177000,3.947177001953125,-0.44818625057041644,1.024835799446702,0.4407042973171919
1783696074778140000,3.957139892578125,-0.38558337166309353,0.9692699795693158,0.5333233251079916
1783696074788104000,3.96710400390625,-0.29951076984107494,0.9307786286115646,0.6365685224618762
1783696074798067700,3.977067626953125,-0.2161912661194801,0.9334534007787704,0.6664375910248607
1783696074808030700,3.98703076171875,-0.1510018778502941,0.8851227928519249,0.7144969807948917
1783696074817994800,3.996994873046875,-0.10988719265162944,0.8029068664580583,0.7936817958645522
1783696074827957800,4.006957763671875,-0.11320376985371113,0.7061188093543053,0.8770501071639358
1783696074837921800,4.016921875,-0.14683540582060814,0.6516080514878034,0.8592840027183294
1783696074847885800,4.0268857421875,-0.19670564440488814,0.7202496260374784,0.6870401610054075
1783696074857848600,4.0368486328125,-0.3689455405950546,0.746453742352128,0.5486687782779336
1783696074867812900,4.046812744140625,-0.5342658666551113,0.6718973908007144,0.5473696783781051
1783696074877775600,4.056775634765625,-0.5423007045507431,0.5187479795277118,0.5544512706695124
1783696074887739600,4.06673974609375,-0.4415571878194809,0.4009136272639036,0.5174965181618929
1783696074897703700,4.07670361328125,-0.29512334853708744,0.34165888974070546,0.455630465629138
1783696074907666700,4.086666748046875,-0.12211129893064498,0.29170272643864154,0.35615704189892855
1783696074917630700,4.096630615234375,0.013748539367318152,0.20345044248998165,0.22414394215699285
1783696074927593700,4.10659375,0.06869125891029834,0.13976795165240763,0.07371030178186483
1783696074937557800,4.116557861328125,-0.07159165652692318,0.15335399393439292,-0.04699347757156938
1783696074947521800,4.126521728515625,-0.33172084857225415,0.23005261821150777,-0.09378080157916992
1783696074957484800,4.13648486328125,-0.6700386111915111,0.42834757763445375,-0.06295149141559377
1783696074967448800,4.14644873046875,-0.9092547790676355,0.6639777037173509,0.0033161251109326256
1783696074977412600,4.15641259765625,-1.0691922430455685,0.8885749791324138,0.049709001874271776
1783696074987375600,4.166375732421875,-1.1094400822818278,1.1004489665746688,0.06455046017798595
1783696074997339600,4.176339599609375,-1.0826625499933957,1.2439298012703657,0.06327301042096223
1783696075007302700,4.186302734375,-1.0887386550366878,1.325883277335763,0.02451162861648481
1783696075017266700,4.1962666015625,-1.0922557232469319,1.3859984310805797,0.0005307595755672082
1783696075027230700,4.206230712890625,-1.0459019683510065,1.4643547594368458,-0.001673620884201955
1783696075037193700,4.21619384765625,-0.9059738577008247,1.5316349825054407,0.001060817610702361
1783696075047157800,4.22615771484375,-0.6811176390886307,1.559445364972949,-0.015487448606651742
1783696075057121800,4.236121826171875,-0.4543652314662933,1.5660241588413715,0.018455315119051373
1783696075067084800,4.246084716796875,-0.2275859358370304,1.6248177085936069,0.0022903681106959993
1783696075077048800,4.256048828125,-0.06284311740398407,1.654720679426193,0.023046503950387705
1783696075087011800,4.26601171875,0.06801964325904845,1.6702151856780052,0.018526823152415453
1783696075096976000,4.275975830078125,0.16709142738580704,1.6706489009201526,0.012151568482478614
1783696075106940000,4.28593994140625,0.29737200424671173,1.6368477536052464,0.05533903451734222
1783696075116903000,4.29590283203125,0.4768915360510349,1.6723066049993036,0.12122530987635254
1783696075126867000,4.305866943359375,0.5998480536341667,1.6855986327707766,0.26936589827770363
1783696075136830000,4.315829833984375,0.7290577863931655,1.74314656637609,0.4431432149019092
1783696075146793700,4.325793701171875,0.7571709511995315,1.7090613414227962,0.5906614884201437
1783696075156757800,4.3357578125,0.7605272758901119,1.6289748282730578,0.7250111413508653
1783696075166720800,4.345720703125,0.759827603188157,1.566722662499547,0.8118415027376263
1783696075176684800,4.355684814453125,0.7072668103456496,1.37064888625741,0.8292785213593393
1783696075186647600,4.3656474609375,0.5953507422149181,1.1552899793088436,0.7931964235004038
1783696075196611600,4.375611572265625,0.4407949712753296,0.9556845218092203,0.7799516689367592
1783696075206575900,4.385575927734375,0.3053589113473892,0.7907067255765199,0.7394068195153027
1783696075216538600,4.39553857421875,0.18151567405760288,0.6584592325568199,0.7385214880481362
1783696075226502700,4.405502685546875,0.09804594821035861,0.5719271965295076,0.7652751280043274
1783696075236466700,4.415466796875,0.06518880374729633,0.5111462723523378,0.7686149399515241
1783696075246429700,4.4254296875,0.07380991709828376,0.501007740175724,0.7859252634536474
1783696075256393700,4.435393798828125,0.0552910945892334,0.48766135186851023,0.7496827874012291
1783696075266356700,4.445356689453125,-0.0038122517645359038,0.4957359372526407,0.6756009945590049
1783696075276320800,4.45532080078125,-0.08835282171368598,0.5335457356870175,0.5432459495116025
1783696075286285300,4.465285400390625,-0.1966846016168594,0.5322048424720763,0.420142242010124
1783696075296248300,4.475248291015625,-0.34632629702985285,0.5223597402840853,0.3646737815599888
1783696075306212400,4.48521240234375,-0.5229413395643234,0.5145359147906303,0.33909013523124154
1783696075316175400,4.49517529296875,-0.753505414429307,0.5580681825250386,0.3168994923416525
1783696075326139400,4.505139404296875,-0.9934306073576211,0.6518705018162727,0.3060130278745666
1783696075336103400,4.515103515625,-1.170045065370202,0.7378159701272845,0.32223712704256174
1783696075346066400,4.52506640625,-1.225411563283205,0.7666141945883631,0.3662786594733596
1783696075356030500,4.535030517578125,-1.4189379931300878,0.7580810517817735,0.4120295165726915
1783696075365993500,4.544993408203125,-1.5064181236624716,0.7513254400417209,0.3616112887168303
1783696075375957500,4.55495751953125,-1.446743114900589,0.650443099361658,0.3237427458325401
1783696075385921500,4.564921630859375,-1.3354998314648865,0.5538236768230795,0.31983174640126527
1783696075395884300,4.57488427734375,-1.2648165219545364,0.5106511823117733,0.25827116135479883
1783696075405848600,4.5848486328125,-1.2731103030472992,0.491225766351819,0.24107540414305403
1783696075415812600,4.5948125,-1.3692121314525603,0.47526685745865105,0.33798213745672256
1783696075425775400,4.604775390625,-1.4557336460858583,0.44812721385955806,0.40588535126186903
1783696075435739400,4.614739501953125,-1.4537556240111589,0.46085254765897987,0.38676275417339057
1783696075445702400,4.624702392578125,-1.444127963966131,0.4355421653136611,0.3632923006063327
1783696075455666200,4.634666259765625,-1.414993054896593,0.3980903865367174,0.36628392017036676
1783696075465630200,4.644630126953125,-1.3573977750182151,0.34888767195045944,0.35219087821431455
1783696075475593200,4.65459326171875,-1.281270228627324,0.26439678636193276,0.3512318969890475
1783696075485557200,4.66455712890625,-1.1890747600108384,0.1791927840679884,0.36864089509267356
1783696075495520300,4.674520263671875,-1.1156810224980116,0.11202128207087517,0.3549133254481479
1783696075505484300,4.684484375,-1.1116039823174475,0.0794654586419463,0.33269480817094443
1783696075515448300,4.6944482421875,-1.1864654542952775,0.06747691468447446,0.25281159904096273
1783696075525411300,4.704411376953125,-1.2578911066055296,0.05725888753086328,0.13283548550810664
1783696075535375400,4.714375244140625,-1.326293611702323,0.0356689870133996,0.02325669665194582
1783696075545339400,4.72433935546875,-1.3541051632136105,0.05283259552121162,-0.052272262791288084
1783696075555302400,4.734302490234375,-1.2740566439867018,0.07590718163847923,-0.09552805623845197
1783696075565266400,4.744266357421875,-1.1641034003615378,0.06772533648759126,-0.044469429853511974
1783696075575229400,4.7542294921875,-1.085916583353281,0.2023854436069727,0.002100512803684978
1783696075585193500,4.764193359375,-0.9208885182380676,0.26120091293007136,0.055691546882595866
1783696075595157500,4.774157470703125,-0.7243529697030783,0.2946256281480193,0.16481056817332282
1783696075605120500,4.78412060546875,-0.5766390274822711,0.34004239445477724,0.263616394840274
1783696075615084300,4.794084228515625,-0.4192565086841583,0.33384324755370615,0.2542972710214555
1783696075625047600,4.804047607421875,-0.26590835996866224,0.26768296842575073,0.2603927018197253
1783696075635011300,4.81401123046875,-0.2625625566720962,0.12881284239590168,0.25374672446660695
1783696075644975400,4.823975341796875,-0.29866379762291906,0.08412234453707933,0.21835312032848594
1783696075654938400,4.8339384765625,-0.41696752096414563,0.15934446652084588,0.2763198821340687
1783696075664902400,4.84390234375,-0.4341442812144756,0.09274696501940488,0.26619099456863476
1783696075674866400,4.853866455078125,-0.32836160127222536,-0.057526306295394895,0.3987745694085955
1783696075684829400,4.863829345703125,-0.18001871349811552,-0.23915713116526602,0.6177803084269166
1783696075694793500,4.87379345703125,-0.0094809450507164,-0.3459486958891153,0.6669660718783735
1783696075704756500,4.883756591796875,0.1741460220724344,-0.38476504101753234,0.46645285188406704
1783696075714720500,4.893720458984375,0.2620838332444429,-0.37759237290918823,0.18373261945471167
1783696075724684500,4.9036845703125,0.2794382881492376,-0.3393921138525009,-0.07595615361304953
1783696075734647300,4.913647216796875,0.30274259136915205,-0.21433131746649742,-0.20962971564680336
1783696075744611600,4.923611572265625,0.2833364646315574,-0.013705284747481346,-0.15033544983081518
1783696075754574300,4.93357421875,0.24885376479327678,0.21462328615039586,-0.011640716900490223
1783696075764538400,4.943538330078125,0.25208032562434673,0.3847331845745444,0.074323273447901
1783696075774502400,4.95350244140625,0.3442962525069713,0.4461021377727389,0.09375694577954709
1783696075784465400,4.96346533203125,0.4494447261989116,0.393359558622539,0.0564435160273686
1783696075794429200,4.97342919921875,0.5279986229538918,0.29108371775746344,-0.02843596701994538
1783696075804392400,4.983392333984375,0.5438555327773094,0.14671324074566364,-0.16673377305455506
1783696075814356200,4.993356201171875,0.5307856233239173,0.037056057457625864,-0.2703714768573642
1783696075824320300,5.0033203125,0.5550280841767787,-0.04911912795603275,-0.302565115910396
1783696075834283300,5.013283203125,0.5019909059941768,-0.14669102891385555,-0.2855031411461532
1783696075844247300,5.023247314453125,0.4358516696542501,-0.08309913896918296,-0.297197086071223
1783696075854211300,5.03321142578125,0.3827186298817396,0.036161446705460544,-0.2874991372689605
1783696075864174300,5.04317431640625,0.2554185301363468,0.16008476349413395,-0.2586407801184803
1783696075874138400,5.053138427734375,0.10304887106418609,0.32921149609982964,-0.22410174698308108
1783696075884101400,5.063101318359375,-0.11995207507014274,0.4423778565526008,-0.22417042830511927
1783696075894065400,5.0730654296875,-0.36812487186193465,0.4867430679798126,-0.3105637134488672
1783696075904029400,5.083029541015625,-0.5044926596820354,0.4667717085748911,-0.4723635372325778
1783696075913992400,5.092992431640625,-0.50481999194026,0.3661187927365303,-0.620376608530432
1783696075923956500,5.10295654296875,-0.43565936195254323,0.18196517139077187,-0.7304664841473102
1783696075933919500,5.11291943359375,-0.283715819337964,0.005633037450909614,-0.8308996197551488
1783696075943883500,5.122883544921875,-0.11181377680003643,-0.16891922733485698,-0.8905377305727451
1783696075953847300,5.132847412109375,0.04664952297210693,-0.20747136856913564,-0.9351918419439345
1783696075963810600,5.142810546875,0.03506605268418789,-0.2760486457109451,-0.9283693024475127
1783696075973774300,5.1527744140625,-0.10727145719528197,-0.2160211702495813,-0.8977684124786406
1783696075983737300,5.1627373046875,-0.30883038685023784,-0.16118541821241378,-0.8239895481057464
1783696075993701400,5.172701416015625,-0.4222106823146343,-0.13875088356435297,-0.7533257470134646
1783696076003665400,5.18266552734375,-0.4381353966772556,-0.10160510199666023,-0.6558511689502745
1783696076013628400,5.19262841796875,-0.353696533536911,-0.06544657790064812,-0.6012825434166937
1783696076023592400,5.202592529296875,-0.19515315426588056,-0.07079553771317004,-0.5905577357847244
1783696076033556500,5.212556396484375,-0.014491466689109802,-0.056632572326064105,-0.5809578405294566
1783696076043519500,5.22251953125,0.18004910863637924,-0.05439736061990261,-0.5532591017428785
1783696076053483500,5.2324833984375,0.33199791194796563,-0.042667759859561914,-0.5375680500056594
1783696076063446300,5.2424462890625,0.4316261609137058,-0.024589666855335233,-0.49527299591600893
1783696076073410300,5.252410400390625,0.49712826839387414,0.0028740941315889357,-0.4343248984783888
1783696076083374600,5.26237451171875,0.48864510220885277,0.021545476853847504,-0.3809328424435109
1783696076093337300,5.27233740234375,0.47531917216777797,0.03117196785509586,-0.3685463852096349
1783696076103301400,5.28230126953125,0.5188824195623397,0.04365735541880131,-0.37294454710334535
1783696076113264400,5.292264404296875,0.6270405964642762,-0.012065116325020789,-0.4068262123085558
1783696076123228400,5.302228515625,0.7884487175166607,-0.10526537806987762,-0.4033164506219327
1783696076133192200,5.312192138671875,0.9264040667891502,-0.15741174489259718,-0.37308227507360275
1783696076143155500,5.322155517578125,0.9730845694214105,-0.18240648541748522,-0.3594841039624065
1783696076153119200,5.332119140625,1.0337292999982832,-0.22569266943633556,-0.36507213322781024
1783696076163082200,5.342082275390625,1.157081538900733,-0.30427286967635153,-0.3874659705393016
1783696076173046300,5.35204638671875,1.2677438075780867,-0.40268940476477144,-0.4022947063587606
1783696076183010300,5.36201025390625,1.2897031259298324,-0.5095376681119204,-0.45259449546672403
1783696076192973300,5.371973388671875,1.243263446316123,-0.5463970339536667,-0.5167768986504525
1783696076202937300,5.381937255859375,1.1424936260998249,-0.5494640203088521,-0.5387274857064709
1783696076212901400,5.3919013671875,0.9766676886051893,-0.5330757800877094,-0.498923810041137
1783696076222864400,5.401864501953125,0.870347833046317,-0.47181320987343783,-0.4742548308718949
1783696076232828400,5.411828369140625,0.7390612940132617,-0.45258653135597704,-0.31888255591765047
1783696076242791400,5.42179150390625,0.539852142354846,-0.40463294004797934,-0.2497193321140483
1783696076252755500,5.43175537109375,0.40403029797971246,-0.3641226504832506,-0.21673490800950676
1783696076262719500,5.441719482421875,0.3785182555824518,-0.34705987200140953,-0.16622315665129572
1783696076272682500,5.4516826171875,0.3365712112128734,-0.41708442534208295,-0.1472880814915523
1783696076282645800,5.461645751953125,0.30736557499468325,-0.47752574230134487,-0.17792217961028217
1783696076292608800,5.47160888671875,0.3061176207602024,-0.5132388607174158,-0.2233820544064045
1783696076302572800,5.48157275390625,0.315506795874238,-0.5987795476198196,-0.21396847550347445
1783696076312536800,5.491536865234375,0.3584393441498279,-0.6885428206533193,-0.20462876555435358
1783696076322499800,5.501499755859375,0.4069990846574306,-0.7445166368097066,-0.196916656807065
1783696076332463600,5.511463623046875,0.4099760546416044,-0.7791033815443515,-0.17832564584463834
1783696076342427000,5.521427001953125,0.37521278429627414,-0.7957131555616855,-0.14066709244921802
1783696076352390700,5.531390625,0.30948446684479713,-0.7988730808973312,-0.121959505902417
1783696076362354700,5.541354736328125,0.2277203758716583,-0.7883505178391933,-0.08125460708104074
1783696076372317700,5.551317626953125,0.10956336752474308,-0.7742021654993295,-0.042492768618836996
1783696076382281700,5.56128173828125,-0.015936404800415038,-0.7276771456897259,-0.015452018816955387
1783696076392244700,5.57124462890625,-0.10805237843990326,-0.6374427480131387,0.03353011182118207
1783696076402208800,5.581208740234375,-0.19407354233562946,-0.5487321989029645,0.05259312420953065
1783696076412172800,5.5911728515625,-0.28098668663501736,-0.5017027367025614,0.016576638932712374
1783696076422135800,5.6011357421875,-0.3190051593840122,-0.4886170451581478,-0.04189728694371879
1783696076432099800,5.611099853515625,-0.3507067040711641,-0.49533846236765383,-0.136862768262811
1783696076442064000,5.62106396484375,-0.3547375670224428,-0.553205544924736,-0.23475436616167425
1783696076452026600,5.631026611328125,-0.40156420012712474,-0.6043880351513624,-0.29848325342424215
1783696076461991000,5.640990966796875,-0.5084183086931705,-0.5997048457711934,-0.31715248072203245
1783696076471953700,5.65095361328125,-0.6444587642550468,-0.596846533730626,-0.25444672596212475
1783696076481917700,5.660917724609375,-0.7644681224703789,-0.5630412947624921,-0.13394848825130612
1783696076491881700,5.6708818359375,-0.8223170848488808,-0.5690162775188684,-0.04753251635171473
1783696076501844700,5.6808447265625,-0.770821875411272,-0.609599632319808,-0.020798092552646995
1783696076511808500,5.69080859375,-0.6461866109609603,-0.6029086102485657,-0.067778272251226
1783696076521771800,5.700771728515625,-0.6286117913037538,-0.6552467002511024,-0.08359167172648012
1783696076531735600,5.710735595703125,-0.6764741971969604,-0.670486354959011,0.0016889760002493858
1783696076541699600,5.720699462890625,-0.772395992860198,-0.664108052098751,0.13484609467815606
1783696076551662600,5.73066259765625,-0.8607067289978265,-0.580654692864418,0.23196948468349873
1783696076561626600,5.740626708984375,-0.8689332900732755,-0.4920066875964403,0.269935094734095
1783696076571589600,5.750589599609375,-0.7791501432955265,-0.4591717549651861,0.3441341938130557
1783696076581553700,5.7605537109375,-0.6668015289664269,-0.43391573315560816,0.3948531216485426
1783696076591517700,5.770517578125,-0.5553729520916938,-0.38691783513724803,0.4248731795221567
1783696076601480700,5.780480712890625,-0.45120764421820636,-0.3295107713073492,0.3995248763192445
1783696076611444700,5.79044482421875,-0.42382980794906616,-0.23647183760404586,0.31108664134442804
1783696076621408800,5.80040869140625,-0.4983399822711944,-0.15209785639345644,0.15725944040771572
1783696076631371800,5.810371826171875,-0.5894207676440477,-0.03717266957461834,0.03474668453671038
1783696076641335800,5.820335693359375,-0.7684715128928422,0.044615386795997615,-0.015650427465885876
1783696076651298800,5.830298828125,-0.844002846956253,0.18619710987210272,-0.1467926626574248
1783696076661262800,5.840262939453125,-0.7878186029195785,0.3489776883214712,-0.2698666691403836
1783696076671226600,5.8502265625,-0.653835664409399,0.463728103095293,-0.27955665383189915
1783696076681190000,5.86018994140625,-0.4367448191016912,0.5454542001456022,-0.24924196039326488
1783696076691153700,5.870153564453125,-0.2096481280863285,0.6113982061743736,-0.1874662530250847
1783696076701117000,5.880116943359375,0.13016951770186425,0.7270674893587827,-0.16570764487721024
1783696076711080700,5.890080810546875,0.36294834600687026,0.7232926469951868,-0.06961509575694799
1783696076721044700,5.900044677734375,0.3949006505846977,0.6075076284766197,0.022274521780759095
1783696076731007700,5.9100078125,0.4520224677324295,0.571833088505268,0.08360080488100648
1783696076740971800,5.9199716796875,0.541838347736001,0.5092091668099165,0.20448672673515975
1783696076750934500,5.9299345703125,0.6082447105795145,0.39198213278949257,0.28960611948557197
1783696076760898800,5.93989892578125,0.5421691871255636,0.2846235818326473,0.37605047722943125
1783696076770862800,5.94986279296875,0.36625206372737884,0.23540450063347815,0.5280896622382104
1783696076780825600,5.95982568359375,0.16265373719930648,0.14645546659231184,0.6843273949153721
1783696076790789600,5.96978955078125,0.0026548984229564664,0.12777005534470082,0.8379352905455977
1783696076800752600,5.979752685546875,-0.026853520134091376,0.10756956335902214,0.8103935689516365
1783696076810716700,5.989716552734375,0.051317514783143996,0.0848141261935234,0.684770243312046
1783696076820680700,5.9996806640625,0.19670447536110877,0.08942132772803306,0.47375024235062296
1783696076830643700,6.009643798828125,0.3309703224658966,0.11859306167662143,0.2164862304780632
1783696076840607700,6.019607666015625,0.40685412322878833,0.23113515275120733,-0.07668521680627018
1783696076850571500,6.029571533203125,0.38008009807169435,0.3890285436809063,-0.3482556211246177
1783696076860534800,6.03953466796875,0.2592261057257652,0.5399760609954595,-0.5105914880137891
1783696076870498600,6.04949853515625,0.05118716640174389,0.6700368576258421,-0.535559851988405
1783696076880461600,6.059461669921875,-0.20851298657655715,0.8347679856210947,-0.4318559145489707
1783696076890425600,6.069425537109375,-0.3192231860488653,1.0106675733625887,-0.28094076513405886
1783696076900389600,6.0793896484375,-0.2387099719196558,1.0371236186116932,-0.12059702191017567
1783696076910352600,6.0893525390625,-0.04404489343166351,0.9341729472249746,0.04691442098598927
1783696076920316700,6.099316650390625,0.266664146772027,0.8584259245842695,0.1175451235262677
1783696076930279700,6.10927978515625,0.5360317072838544,0.7362742936432362,0.13479527780637143
1783696076940243700,6.11924365234375,0.767826785248518,0.5584253253996372,0.051155894480645656
1783696076950207700,6.129207763671875,0.8801900126248597,0.3437175758361816,0.08313030129242688
1783696076960170800,6.139170654296875,0.7698714428186416,0.21230361103117465,0.11807999758794903
1783696076970134800,6.149134765625,0.5404559534668922,0.15000234541893004,0.10817746612429618
1783696076980097800,6.159097900390625,0.37679040887653825,0.13885609750449657,0.11463931908216327
1783696076990061800,6.169061767578125,0.2660638427913189,0.16752631167173385,0.17647957958653568
1783696077000025900,6.17902587890625,0.1798983019888401,0.20824293746352193,0.2316622088326141
1783696077009988900,6.18898876953125,0.1469581554174423,0.29681203227639197,0.1976180100094527
1783696077019953000,6.198952880859375,0.03928922333717346,0.32091537691950794,0.19409728853739797
1783696077029916000,6.208916015625,-0.11289163516461849,0.31925533475279805,0.16756394026838242
1783696077039879700,6.218879638671875,-0.23617139335274695,0.2584726570099592,0.04508895912449807
1783696077049843700,6.22884375,-0.2857400186419487,0.20944997516572475,-0.09283504516165703
1783696077059806700,6.238806640625,-0.3346592401117086,0.13880992027521133,-0.2171942691495642
1783696077069770800,6.248770751953125,-0.337899829468131,0.08383622107207775,-0.27956410648599267
1783696077079733500,6.2587333984375,-0.2630009480893612,0.0594867927134037,-0.36131201350931075
1783696077089697500,6.268697509765625,-0.1426104816019535,0.043753217008709905,-0.38711237132865933
1783696077099661800,6.278661865234375,-0.0753852035909891,0.04733107549548149,-0.35002727043963966
1783696077109624600,6.28862451171875,-0.0691419252872467,0.05942366434931755,-0.2886815885191783
1783696077119588600,6.298588623046875,-0.14889993713498115,0.09700608376860619,-0.21980795877929776
1783696077129552600,6.308552734375,-0.21500176407396793,0.16457330708503723,-0.1557929845843464
1783696077139515600,6.318515625,-0.22326105837523935,0.24196108267009256,-0.0899711070979014
1783696077149479700,6.328479736328125,-0.17511165223419664,0.2666816824287176,-0.04550733066704124
1783696077159442700,6.338442626953125,-0.11424421881735324,0.24302549703121185,-0.047754159745760257
1783696077169406700,6.34840673828125,-0.10521861631870269,0.19943360806405544,-0.08139339449722319
1783696077179370800,6.358370849609375,-0.14155834220051763,0.17545476658344267,-0.0428613827355206
1783696077189333800,6.368333740234375,-0.2578063020557165,0.04303600865006447,0.15821823896989226
1783696077199297800,6.3782978515625,-0.3417869000345468,-0.15705051036477088,0.41916850160714236
1783696077209260800,6.3882607421875,-0.2123404359102249,-0.28616555057764054,0.478139563350752
1783696077219224600,6.398224609375,-0.08830956709384917,-0.33349136537611485,0.3812850899472832
1783696077229188600,6.408188720703125,-0.09650281042158602,-0.34326690945923327,0.2750096215194091
1783696077239151600,6.418151611328125,-0.22863339906334876,-0.3671802844882011,0.1764269726164639
1783696077249115600,6.42811572265625,-0.4491700009107589,-0.3926467341780662,0.11967117576953024
1783696077259078700,6.43807861328125,-0.687133538377285,-0.2989718406587839,0.07267879417650401
1783696077269042700,6.448042724609375,-0.8755296195983886,-0.12938099767267702,0.022081373828835783
1783696077279007200,6.45800732421875,-0.9265560424804687,0.011646598652005196,0.020831519898213444
1783696077288970000,6.467969970703125,-0.8115712344288826,0.08272796756923198,-0.002921403872035444
1783696077298934000,6.47793408203125,-0.5944114155381918,0.06026011517345905,0.008547536658123136
1783696077308897000,6.48789697265625,-0.3257446967720985,0.058415948611497875,-0.08903831975981592
1783696077318861000,6.497861083984375,-0.15617255848646164,0.06931961994171142,-0.2235827280776575
1783696077328825000,6.5078251953125,-0.09828443314135074,0.02616495334804058,-0.3339688466947526
1783696077338788000,6.5177880859375,-0.18513795620799064,0.013482581907510756,-0.44735279542095957
1783696077348752100,6.527752197265625,-0.31723990327715873,0.03843172972500324,-0.5205376759560778
1783696077358715100,6.537715087890625,-0.4612397934108972,0.07917699708938598,-0.5552071305381134
1783696077368679200,6.54767919921875,-0.5911316632151603,0.2110246771365404,-0.6069934684094042
1783696077378643000,6.557642822265625,-0.6636971332103013,0.35233459753394125,-0.7329548668969422
1783696077388606000,6.56760595703125,-0.6970879461586474,0.4494949950814247,-0.8653308816671371
1783696077398570000,6.577570068359375,-0.7284627431094646,0.5117284561544656,-0.9812387959130108
1783696077408533000,6.587532958984375,-0.7310550976902246,0.5653314515262842,-1.1263923861265182
1783696077418497000,6.5974970703125,-0.5851806458562612,0.6023135669648647,-1.29849141254127
1783696077428461000,6.6074609375,-0.45802316945195193,0.5878016420096158,-1.2995090651512144
1783696077438424000,6.617424072265625,-0.45218905647099017,0.5780816275060177,-1.2786045165494084
1783696077448388000,6.62738818359375,-0.3551905714869499,0.6107879653215408,-1.3263137777075171
1783696077458352000,6.63735205078125,-0.06733867525756358,0.5697469298809766,-1.210133330130577
1783696077468315100,6.647315185546875,0.2410018822491169,0.47379649264514445,-1.014659492542967
1783696077478279200,6.657279052734375,0.5223650009810924,0.3759253164798021,-0.9251398920722306
1783696077488242200,6.6672421875,0.7297802554488182,0.219181095585227,-0.7974927324548363
1783696077498206200,6.677206298828125,0.8740273983418941,0.04834054479897022,-0.6911071912486105
1783696077508170200,6.687170166015625,0.9380781379699706,-0.08361994797289371,-0.6666763682167977
1783696077518133200,6.69713330078125,0.9476607898294925,-0.2065022312760353,-0.6462254086013883
1783696077528097300,6.70709716796875,0.9290595497339963,-0.2968266453236341,-0.6048533145755529
1783696077538060300,6.717060302734375,0.9073977530241012,-0.2814695017158985,-0.5612049461808055
1783696077548024000,6.727024169921875,0.8538748371511697,-0.1817190876752138,-0.49034372282028194
1783696077557988000,6.736988037109375,0.8000684281617403,-0.06373977398276329,-0.46513183241337536
1783696077567951000,6.746951171875,0.7063304062783717,0.05917524254620075,-0.42731333921588954
1783696077577915100,6.7569150390625,0.5584370158374309,0.13471008374094962,-0.40894678465910256
1783696077587878000,6.7668779296875,0.37357144683003424,0.18994798683822153,-0.44230566809922456
1783696077597842000,6.776842041015625,0.25525018783211706,0.27128888396322726,-0.5498256932280957
1783696077607806200,6.78680615234375,0.08015314864516258,0.26506255679428575,-0.6413814026363194
1783696077617769000,6.79676904296875,-0.02236731463074684,0.19273089555501938,-0.7592679234787821
1783696077627733000,6.80673291015625,-0.020963293051719664,0.1287549747288227,-0.8451341890737414
1783696077637696000,6.816696044921875,-0.004529460123181343,-0.05389525631666183,-0.8334405364096165
1783696077647660000,6.826659912109375,-0.022003742015361785,-0.1051180785536766,-0.8252383791230619
1783696077657624000,6.8366240234375,-0.0693295568138361,-0.11468903997540474,-0.7380498519483953
1783696077667587000,6.846587158203125,-0.04500993907153606,-0.1273480305403471,-0.6886397051565348
1783696077677551000,6.856551025390625,0.02818739908635616,-0.2176344506651163,-0.6470123211953789
1783696077687514000,6.86651416015625,0.12701952923834323,-0.295903685259819,-0.5902437013994902
1783696077697478100,6.87647802734375,0.21207389392852782,-0.34612463697791096,-0.56256505555287
1783696077707442000,6.88644189453125,0.36112113057970996,-0.4150251547247171,-0.6142381788406521
1783696077717405200,6.8964052734375,0.5529150375455617,-0.4765981060624122,-0.6873461582146585
1783696077727369000,6.906368896484375,0.6500918017059564,-0.5826864909529685,-0.7108211418263614
1783696077737333000,6.9163330078125,0.6583446662664413,-0.5642933406502008,-0.6757827078014612
1783696077747296000,6.9262958984375,0.5707493849217892,-0.47095162460803985,-0.5902913399334997
1783696077757260000,6.936260009765625,0.510407436683774,-0.31398879252672196,-0.4581154508452862
1783696077767223000,6.94622314453125,0.4098410300850868,-0.2023632317751646,-0.33605551677569745
1783696077777187000,6.95618701171875,0.2836000840038061,-0.15857786606252192,-0.319464301328361
1783696077787151000,6.966151123046875,0.17256722844839095,-0.08239069843888282,-0.3070999097958207
1783696077797114000,6.976114013671875,0.10485562822520732,-0.015201660785079002,-0.2966769346546382
1783696077807078100,6.986078125,0.03912088103294372,-0.038087446331977845,-0.2727797070428729
1783696077817041200,6.996041259765625,-0.09162965142726898,-0.06900923881828784,-0.2843001950971782
1783696077827005200,7.006005126953125,-0.2612134801506996,0.003095627927780151,-0.30976839835271236
1783696077836969200,7.01596923828125,-0.33315409624576564,-0.0003378536522388458,-0.3512714983470738
1783696077846932200,7.02593212890625,-0.24194179344773292,0.02931377276778221,-0.3281060190759599
1783696077856896300,7.035896240234375,-0.1718079345136881,-0.02071954742372036,-0.25824557025581596
1783696077866859300,7.045859375,-0.17808277699947356,-0.003969488152861595,-0.20722338515743613
1783696077876823300,7.0558232421875,-0.25889760442376136,0.046970425489544866,-0.2263119703784585
1783696077886787000,7.065787109375,-0.29047230786085126,0.016381810480356217,-0.28299729580506683
1783696077896750000,7.07575,-0.278148832860589,-0.04071311866044998,-0.38175168454572556
1783696077906714000,7.085714111328125,-0.21632044545710086,-0.12703764941692353,-0.4678136919084936
1783696077916677000,7.095677001953125,-0.1555593950241804,-0.1413292096197605,-0.5126574806328863
1783696077926641000,7.105640869140625,-0.16074293514192103,-0.20801555844843386,-0.577376840237528
1783696077936605000,7.11560498046875,-0.3203460525989532,-0.3710059802561998,-0.5963165915723889
1783696077946568000,7.12556787109375,-0.4189227466851473,-0.5080658419936895,-0.5018230020813643
1783696077956532000,7.135531982421875,-0.4207558073312044,-0.7954226481825113,-0.331413390058279
1783696077966495000,7.145494873046875,-0.1929997756242752,-0.8220388524293899,-0.3394356607332826
1783696077976459000,7.155458984375,-0.02099135010242462,-0.7890548667162657,-0.5593574916832149
1783696077986423000,7.165423095703125,-0.13408990601599216,-0.8447825991570949,-0.6383059407137334
1783696077996386000,7.175385986328125,-0.2903144869506359,-0.8397539573401213,-0.6047201897151768
1783696078006350000,7.18535009765625,-0.4082230734944343,-0.944632966440916,-0.5499808107245713
1783696078016313000,7.19531298828125,-0.4944137487381696,-0.8629641525357962,-0.5596420077130199
1783696078026277000,7.205277099609375,-0.6109504624068737,-0.677166855636239,-0.6438146941978484
1783696078036241200,7.2152412109375,-0.7437690333127975,-0.5171370371997356,-0.6470975152608007
1783696078046204200,7.2252041015625,-0.8465753277927637,-0.4095055145204067,-0.501068384321779
1783696078056168200,7.235168212890625,-0.8143740168899297,-0.26638299174308777,-0.30065811324529346
1783696078066131200,7.245131103515625,-0.6274637903124094,-0.12974632385373114,-0.13745682516582308
1783696078076095200,7.25509521484375,-0.42078386438190934,-0.053418870976567265,-0.009912395270541309
1783696078086059000,7.26505908203125,-0.25521745460629464,-0.013942600634694099,0.05332030597291886
1783696078096022000,7.27502197265625,-0.13756255056262015,-0.0005447744011878967,0.035916093642264606
1783696078105986000,7.284986083984375,-0.12039046648740767,0.009231938725709914,-0.0017011048294603823
1783696078115950000,7.2949501953125,-0.20178923127949236,0.09088087888658046,-0.026771029482409357
1783696078125913000,7.3049130859375,-0.29558804343938827,0.27309154947102066,-0.07044920849353074
1783696078135877000,7.314877197265625,-0.362754869261384,0.4693225621014833,-0.1886177611477673
1783696078145840000,7.324840087890625,-0.4120809179663658,0.619471037992835,-0.19853899731189012
1783696078155804200,7.33480419921875,-0.3556652032613754,0.8041974907904863,-0.2223256041560322
1783696078165767200,7.34476708984375,-0.4013718924254179,0.9003922581762075,-0.31266097798906267
1783696078175731200,7.354731201171875,-0.4405670077383518,0.9239069892764091,-0.3208799402799457
1783696078185695200,7.3646953125,-0.3435691072762012,1.0452788680166005,-0.2545523417610675
1783696078195658200,7.374658203125,-0.18168576992750166,1.1336480563431977,-0.14864610850438476
1783696078205622300,7.384622314453125,-0.016194763475656508,1.161439734110236,-0.06922390448227525
1783696078215586300,7.39458642578125,0.09162146812081337,1.1097580621898173,0.017998963353410363
1783696078225549000,7.404549072265625,0.14940613309144973,0.9866554141342639,0.10269340869002043
1783696078235513000,7.41451318359375,0.23903321252465246,0.8603712134331464,0.136889108280465
1783696078245476000,7.42447607421875,0.34856969204246996,0.7165466798663139,0.17302958526313303
1783696078255440000,7.43443994140625,0.4187906447380781,0.5640367355406284,0.27093042591437694
1783696078265404000,7.44440380859375,0.42314182568490505,0.43934477246701714,0.40016193211376666
1783696078275367000,7.454366943359375,0.42764556684494015,0.2543769121289253,0.5996224281847476
1783696078285331200,7.464331298828125,0.46718964172601696,0.027375498181581494,0.8201689669042825
1783696078295294200,7.474294189453125,0.5623416220605373,-0.19242986678183077,0.9064237203601747
1783696078305258200,7.48425830078125,0.7052478717386722,-0.33143852449953554,0.8138790729798376
1783696078315222300,7.49422216796875,0.8442214581429958,-0.34014147091507907,0.5787033396009356
1783696078325185300,7.504185302734375,1.0843120707660914,-0.2927151183515787,0.26375914604552086
1783696078335149300,7.5141494140625,1.262457976129651,-0.2399514964133501,-0.07237045887969434
1783696078345112300,7.5241123046875,1.1773510044693947,-0.15500351470708845,-0.34048772706948216
1783696078355076400,7.534076416015625,0.8311942187875508,0.02266834340393543,-0.6062810092911124
1783696078365040400,7.544040283203125,0.3234089473009109,0.3062508917510509,-0.7547216583512723
1783696078375003400,7.55400341796875,-0.1952308956772089,0.6214958218187093,-0.6663048314906657
1783696078384967400,7.563967529296875,-0.610088292619586,0.9111696727782488,-0.5241198818244039
1783696078394930400,7.573930419921875,-0.8028723796665668,1.1366133358895778,-0.3878592807058245
1783696078404894500,7.58389453125,-0.7919938427776098,1.221181962889433,-0.27003055446520446
1783696078414858200,7.593858154296875,-0.5274924269974232,1.140678685632348,-0.20060988530181348
1783696078424821500,7.603821533203125,-0.2358463991820812,0.8824304850280285,-0.12808964268788695
1783696078434785300,7.613785400390625,-0.07254734981656075,0.5986965455114841,-0.1300761403299868
1783696078444748300,7.623748291015625,0.08431026832461357,0.3052262248784304,-0.16496851694770157
1783696078454712000,7.633712158203125,0.21751111654639244,0.04023673332035541,-0.10246537208780646
1783696078464676000,7.643676025390625,0.2872539303362369,-0.11508125416338442,0.003492956682294607
1783696078474639000,7.65363916015625,0.3079384064465761,-0.16674948208034038,0.11583623724915086
1783696078484603100,7.66360302734375,0.29262101032733917,-0.1649398023098707,0.2190770506888628
1783696078494566100,7.673566162109375,0.2671002001017332,-0.12304711847603321,0.2164894453484565
1783696078504530200,7.6835302734375,0.17561609462499617,-0.238325356516242,0.2739888636369258
1783696078514494200,7.693494140625,-0.11033259833157062,-0.22683482520878315,0.28215982206761836
1783696078524457200,7.703457275390625,-0.443987045314908,-0.192759537127614,0.09012794162742793
1783696078534421200,7.713421142578125,-0.5983429097682237,-0.2607663209050894,-0.08299465568140149
1783696078544384300,7.72338427734375,-0.5173404508173466,-0.3082008567750454,-0.1903526221163571
1783696078554348300,7.733348388671875,-0.5069032279551029,-0.4627735788494348,-0.22002404921539126
1783696078564312300,7.743312255859375,-0.5705617533951998,-0.40712884851694103,-0.3473001835633069
1783696078574275300,7.753275390625,-0.5373462970137596,-0.366070861941576,-0.36870011446662243
1783696078584239400,7.7632392578125,-0.38248365208208557,-0.4365069186925888,-0.21530688450038432
1783696078594202400,7.773202392578125,-0.17128946359753608,-0.4329728993475437,-0.15096242262274026
1783696078604166100,7.783166259765625,-0.3133890730679035,-0.27202012084722516,-0.0215778447534889
1783696078614130200,7.793130126953125,-0.5055103122919797,-0.20534896958768367,-0.0661518766257912
1783696078624093200,7.80309326171875,-0.4572597838640213,-0.18490122484266758,-0.07325973586961626
1783696078634057200,7.81305712890625,-0.3621493045836687,-0.31504268549382686,0.0947501215353608
1783696078644020200,7.823020263671875,-0.3874760535418987,-0.25054887827336786,0.10350896285660564
1783696078653984300,7.832984375,-0.3258323750555515,-0.1718728164434433,-0.07783610387444495
1783696078663948300,7.8429482421875,-0.3245359055042267,-0.23644962577223777,0.08226181136220694
1783696078673911300,7.852911376953125,-0.32102351346909996,-0.1862584846705198,0.05548946670554578
1783696078683875300,7.862875244140625,-0.3115004828423261,-0.12439736404120921,-0.022355404997244477
1783696078693838300,7.87283837890625,-0.2681546775907278,-0.13501695773303507,0.03926956878863275
1783696078703802400,7.88280224609375,-0.17307576249241827,-0.1754454142332077,0.08597798234112561
1783696078713766400,7.892766357421875,-0.18980302540957927,-0.2204875020086765,0.31680268090367314
1783696078723729400,7.9027294921875,-0.27227438786923885,-0.5027133750498295,0.6913638694234192
1783696078733693400,7.912693359375,-0.18342063089609145,-0.5876508353620767,0.6646881900742649
1783696078743656200,7.92265625,-0.06795008515417575,-0.6343997270554304,0.6368572032101452
1783696078753620200,7.9326201171875,0.046830140236020085,-0.6290145268857479,0.5798989060610532
1783696078763584300,7.942584228515625,-0.012713935622572899,-0.6592962679028511,0.42787637992613015
1783696078773547300,7.95254736328125,-0.1672586006462574,-0.6534340978711843,0.2856215068288147
1783696078783511000,7.962510986328125,-0.34051790301203727,-0.5340203674614429,0.09449337029531597
1783696078793474300,7.972474365234375,-0.4774059153139591,-0.3553554066598415,-0.06853665287047624
1783696078803438000,7.98243798828125,-0.5973509761214256,-0.10602525652647017,-0.17728044764064252
1783696078813402000,7.992402099609375,-0.6273603299379349,0.07227496261596679,-0.15621471712775528
1783696078823365000,8.002365234375,-0.5280640894055366,0.18569675913453101,-0.0763059716977179
1783696078833329200,8.0123291015625,-0.3713157768577337,0.2948328411579132,-0.047423064627870916
1783696078843292200,8.022292236328125,-0.2940092498153448,0.34690497370064255,-0.024436156794056293
1783696078853256200,8.032256103515625,-0.25116437982320783,0.39754444309175013,-0.07146919919103384
1783696078863220200,8.04222021484375,-0.2670709740072489,0.37701720336973665,-0.07875928313396871
1783696078873183200,8.052183349609376,-0.17913433187901973,0.29293489858210087,-0.06068396660871803
1783696078883147300,8.062147216796875,-0.06058686290979385,0.15347089831233024,0.0007476765621453524
1783696078893110300,8.0721103515625,0.07569090853929519,0.11789397349655628,-0.053252793694660065
1783696078903074300,8.08207421875,0.1702823323816061,0.13859189361035823,-0.11837993038259446
1783696078913038300,8.092038330078125,0.24191022926568984,0.17281389668583869,-0.22747509587369857
1783696078923001300,8.10200146484375,0.32701953901350495,0.23605507349669932,-0.2980782528199255
1783696078932965400,8.11196533203125,0.3418237249135971,0.25404022752046584,-0.4028857310544699
1783696078942928400,8.121928466796875,0.35181904922723767,0.31402678644955156,-0.5487749420661479
1783696078952892400,8.131892333984375,0.34471418565809725,0.3706313017249107,-0.6626444092869758
1783696078962856200,8.141856201171874,0.21712708566486835,0.40494682830274104,-0.7781454962976276
1783696078972819500,8.1518193359375,0.005051438170671462,0.5039122294455767,-0.9589137129887938
1783696078982783200,8.161783203125,-0.18187866215109824,0.5911106204271316,-1.1260659306511283
1783696078992746200,8.171746337890625,-0.22258944272398948,0.6776829884648322,-1.2736869338914751
1783696079002710300,8.181710205078126,-0.22939444656372068,0.6603326252132654,-1.2898048327386378
1783696079012674300,8.19167431640625,-0.29210195488929747,0.6580179185301065,-1.2926301192924379
1783696079022637300,8.20163720703125,-0.3262853795200586,0.7828525049448013,-1.327977327005565
1783696079032601300,8.211601318359374,-0.13113280977606773,0.7190671382546424,-1.2138071963377297
1783696079042564000,8.221564208984375,0.012255670461058616,0.5418810178339482,-1.0556191333103924
1783696079052528000,8.231528076171875,0.13997954857647418,0.4380909730136394,-1.0362467627119272
1783696079062492400,8.241492431640625,0.1287117201089859,0.24117782333791254,-0.9352570161346345
1783696079072455200,8.251455078125,0.043052959784865376,0.11224924560785293,-0.8589687262240797
1783696079082419200,8.261419189453125,0.026504560565948486,0.07132862167656422,-0.7705546758424491
1783696079092382200,8.27138232421875,0.11167407606840132,0.010787351474165915,-0.6700941407710314
1783696079102346200,8.28134619140625,0.2235679323673248,-0.10390519563257694,-0.6473527321308851
1783696079112310300,8.291310302734376,0.4135977522701025,-0.13582885863780975,-0.6899316446632147
1783696079122273300,8.301273193359375,0.46464229533076284,-0.1531546719700098,-0.753050729464367
1783696079132237300,8.3112373046875,0.44219548572301864,-0.06919160964787006,-0.9141435740225017
1783696079142200300,8.321200439453126,0.4726344631284475,0.044237201133370395,-1.0359959297560155
1783696079152164000,8.3311640625,0.40577977199554444,0.08700023806095122,-1.095690885327384
1783696079162128100,8.341128173828125,0.22915245450139043,0.15271160437762737,-1.1394248131137341
1783696079172091100,8.351091064453126,-0.02429623686671257,0.20307576395869253,-1.160934049610421
1783696079182055200,8.36105517578125,-0.2278898872196674,0.23335165975689887,-1.1214091908864676
1783696079192018200,8.37101806640625,-0.3021796967893839,0.2618400876164436,-1.0329031513724476
1783696079201982200,8.380982177734374,-0.15815934838950632,0.2446136430054903,-1.0002075541466473
1783696079211946200,8.3909462890625,-0.0567547374010086,0.10898352181017398,-0.757826127172634
1783696079221909200,8.4009091796875,-0.028964228677749632,-0.02188274598419666,-0.713275768436864
1783696079231873300,8.410873291015625,0.06971008056402206,-0.0674473963290453,-0.8372303571466356
1783696079241836300,8.420836181640626,0.14882044215798376,-0.1954483378201723,-0.7945772103343158
1783696079251800300,8.43080029296875,0.25320319217443465,-0.30294717403054233,-0.7084219717301428
1783696079261764400,8.440764404296875,0.30931203288733955,-0.3990004871189594,-0.6907480025473982
1783696079271727400,8.450727294921874,0.2829857514977455,-0.4786906944274902,-0.662942880776897
1783696079281691400,8.46069140625,0.28771219549775123,-0.5390782353729009,-0.6619290275592357
1783696079291654100,8.470654052734375,0.3486298977971077,-0.5824024133145809,-0.6482897207200526
1783696079301618200,8.4806181640625,0.36817572526633735,-0.6332102250099182,-0.6883654182597995
1783696079311582200,8.490582275390626,0.2877531120300293,-0.6218734229594469,-0.7254920567356049
1783696079321545200,8.500545166015625,0.18590367988348006,-0.6110854869633913,-0.7951432467192411
1783696079331509000,8.510509033203125,0.17241057658195494,-0.5432581514060497,-0.765498853757605
1783696079341472300,8.52047216796875,0.2708072379261255,-0.44084465563595293,-0.6535257216773926
1783696079351436000,8.53043603515625,0.3781166890442371,-0.3029056729763746,-0.4469178380697965
1783696079361400000,8.540400146484375,0.3652718205183744,-0.08879121313095092,-0.2732471053589135
1783696079371363000,8.550363037109374,0.24755086550116537,0.15035481211841106,-0.2134015623357147
1783696079381327000,8.5603271484375,-0.006627893707156181,0.29423516752570866,-0.24617161303721366
1783696079391290000,8.5702900390625,-0.31732290538549424,0.3535805059418082,-0.3385273137167096
1783696079401254100,8.580254150390624,-0.5234726699620486,0.4073234943062067,-0.5544659933146089
1783696079411218200,8.59021826171875,-0.6900152312934398,0.3442784245893359,-0.46851073426194484
1783696079421181200,8.60018115234375,-0.804668030911684,0.2339648232191801,-0.25814963560067117
1783696079431145200,8.610145263671875,-1.192201367598772,0.15490093111544848,-0.06617803398035467
1783696079441108200,8.620108154296876,-1.3128268118858337,0.033064649733901025,0.09603504677936434
1783696079451072300,8.630072265625,-1.0261644177019595,-0.3700415191382169,0.22201741498969493
1783696079461036300,8.640036376953125,-0.5030325240015984,-0.6432587408155203,0.14415478843450547
1783696079470999300,8.649999267578124,-0.12561843026876449,-0.7262479896694422,-0.2548299896586686
1783696079480963300,8.65996337890625,-0.12635258976221084,-0.6467348924934864,-0.7992517780166118
1783696079490926300,8.66992626953125,-0.457319989618659,-0.5045318226486444,-1.2037724167965351
1783696079500890400,8.679890380859375,-0.8914321221292019,-0.3899509192228317,-1.3091671203345059
1783696079510854100,8.689854248046874,-1.1971744798362254,-0.2735433848917484,-1.1261839310076087
1783696079520817200,8.699817138671875,-1.1696405762225388,-0.09720482121109962,-0.7702575925920159
1783696079530781200,8.70978125,-0.9983429293185472,0.10260229634046554,-0.36258696534857154
1783696079540744200,8.719744140625,-0.6986544648230075,0.21632921328544616,-0.05236271298713982
1783696079550708200,8.729708251953125,-0.46309214327931403,0.19961948602497576,0.14443755089864133
1783696079560672300,8.73967236328125,-0.3641957157194614,0.21621932317018508,0.08329334636703133
1783696079570635300,8.74963525390625,-0.4444236831665039,0.19304536833167074,-0.15168883720114826
1783696079580599300,8.759599365234376,-0.6951216145217418,0.2679407425791025,-0.39927703903801737
1783696079590562000,8.76956201171875,-1.0900105746686457,0.4885176764369011,-0.6340841583002358
1783696079600526300,8.7795263671875,-1.3540320979773997,0.7444593536645173,-0.7557978362154215
1783696079610490400,8.789490478515624,-1.5327017349541185,1.0993149941086768,-0.7345681473124772
1783696079620453000,8.799453125,-1.4538497320353985,1.4724030413359404,-0.6618376960139721
1783696079630417200,8.809417236328125,-1.1819377477377653,1.612899891784787,-0.5632410551182926
1783696079640380200,8.819380126953124,-0.9107926561594009,1.672442214077711,-0.2634174930009991
1783696079650344200,8.82934423828125,-0.5784498762965202,1.6498714858293533,-0.04239193859286606
1783696079660308200,8.83930810546875,-0.25874913586378095,1.4428472765058278,-0.03845817934051156
1783696079670271200,8.849271240234375,-0.08015724029839039,1.1610130331307649,0.04459828953072428
1783696079680235300,8.8592353515625,0.0351525619238615,0.8426426645189523,0.0352551455155015
1783696079690198300,8.8691982421875,0.05843056165874004,0.5606225431829691,-0.08735694254413247
1783696079700162000,8.879162109375,0.05413666385710239,0.2923538838237524,-0.12339790467508137
1783696079710126000,8.8891259765625,0.016122867283225057,0.10635375782847403,-0.08830649835392833
1783696079720089000,8.899089111328125,0.08682195888459682,0.11067805076837539,-0.12119674136899411
1783696079730053000,8.90905322265625,0.23705402140617368,0.14193886595070362,-0.14737484645955265
1783696079740016000,8.91901611328125,0.35526655933260914,0.28023499148488046,-0.2484745562173426
1783696079749980200,8.928980224609376,0.28540976377427574,0.4799380641400814,-0.395981358493492
1783696079759944200,8.938944091796875,0.02676934898197651,0.7101765603125095,-0.5978522767070681
1783696079769907200,8.9489072265625,-0.4377215551793575,0.906444982343912,-0.7954287125971168
1783696079779871200,8.958871337890624,-0.8861720096439123,1.0784195055961607,-1.0036073526527731
1783696079789834200,8.968834228515625,-1.2005997781097888,1.170028114235401,-1.140757742217928
1783696079799798300,8.97879833984375,-1.3351853586882352,1.2174123812228441,-1.2568003887593746
1783696079809762300,8.98876220703125,-1.2580571108222007,1.2236796249240636,-1.333490245208144
1783696079819725300,8.998725341796876,-0.9557043955534696,1.1727163304060697,-1.350878017860651
1783696079829689300,9.008689453125,-0.5682032075703144,1.0351888511568308,-1.3796535920985042
1783696079839652400,9.01865234375,-0.2735661812454462,0.8555968386381864,-1.3250573479056358
1783696079849616400,9.028616455078126,-0.05999474223554134,0.6791986537247896,-1.28179980545938
1783696079859580200,9.038580078125,0.03442833930253982,0.5358545971512794,-1.1831946159310638
1783696079869543400,9.04854345703125,0.14200667048990726,0.454414331305027,-1.0241755089070648
1783696079879507200,9.058507080078124,0.3100508685559034,0.3743143741518259,-0.8466491967465728
1783696079889470200,9.06847021484375,0.5180588282197713,0.2696335179716349,-0.7046181224677711
1783696079899434200,9.078434326171875,0.6642652884870767,0.18211071734130382,-0.6033958092436194
1783696079909398300,9.088398193359374,0.6883686331301927,0.10294541068971157,-0.5865036380883306
1783696079919361000,9.098361083984376,0.602715718024969,0.04202010960578918,-0.5968959988955408
1783696079929325000,9.108324951171875,0.4641939670413732,0.04185118277966976,-0.6175100401181727
1783696079939288000,9.1182880859375,0.3078869685202837,0.0868359874099493,-0.6313455271165818
1783696079949252000,9.128252197265626,0.07319090841710567,0.10394085146784782,-0.6759669783271849
1783696079959216000,9.138216064453125,-0.0849970815449953,0.17631985898017882,-0.748774732645601
1783696079969179100,9.14817919921875,-0.19301380414962768,0.23468436966538428,-0.7738641657166182
1783696079979143200,9.15814306640625,-0.2521855395644903,0.3179080117970705,-0.7653340185847133
1783696079989106200,9.168106201171875,-0.2626256850361824,0.413427071878314,-0.7600231988254934
1783696079999070200,9.1780703125,-0.36016835989952084,0.5060457343429327,-0.7392256907947361
1783696080009034200,9.1880341796875,-0.5823901383548975,0.5958206978142261,-0.7256997812021523
1783696080018997200,9.197997314453126,-0.8270622335493564,0.7208142741829157,-0.6999216352146118
1783696080028961300,9.207961181640625,-1.0568459716916083,0.7980114956319332,-0.6735309102866798
1783696080038924300,9.21792431640625,-1.1730144365698099,0.8320634028375148,-0.5829571245878935
1783696080048888300,9.227888427734374,-1.2099398533850907,0.8085510098248719,-0.47314606591239566
1783696080058852000,9.23785205078125,-1.175645369595289,0.7327075410723686,-0.3816965202923864
1783696080068815000,9.247815185546875,-1.071648988547921,0.6547884350895882,-0.3091972474012524
1783696080078779100,9.257779052734374,-0.9231634774327278,0.6498305204212665,-0.34713184125907715
1783696080088742100,9.2677421875,-0.8052987300306558,0.7027057860404252,-0.42905762559995053
1783696080098706200,9.2777060546875,-0.7781506108641624,0.6902133842140435,-0.3791007316455245
1783696080108670200,9.287670166015625,-0.7492138547152281,0.6276537599265575,-0.28099187426678834
1783696080118633200,9.29763330078125,-0.611380670517683,0.57240767352283,-0.2311895863521844
1783696080128597200,9.30759716796875,-0.47348552699983115,0.4473275879144668,-0.20859248155355453
1783696080138560300,9.317560302734375,-0.3402718192964792,0.3505629116863012,-0.28606048276796936
1783696080148524300,9.327524169921874,-0.3651993398040533,0.28777532386183735,-0.43005547753088175
1783696080158488300,9.33748828125,-0.5245967055559158,0.23752631509304045,-0.4798753741674125
1783696080168451300,9.347451416015625,-0.6344751303791999,0.27572540510594845,-0.5178193203754723
1783696080178415400,9.357415283203125,-0.6845873610258102,0.3842138368755579,-0.5065716579131782
1783696080188378400,9.36737841796875,-0.6670598876416682,0.4901017307579517,-0.4618730498131364
1783696080198342400,9.37734228515625,-0.586522123593092,0.6171002172082662,-0.43443098920136686
1783696080208306400,9.387306396484375,-0.5464473028361797,0.7566904742062092,-0.4015515598412603
1783696080218269200,9.397269287109374,-0.559611904835701,0.8664327054291963,-0.34959318987131116
1783696080228233200,9.407233154296875,-0.5889537346541881,0.90715751452744,-0.33228944224044676
1783696080238196200,9.4171962890625,-0.5686544584691524,0.9051333152234554,-0.3549233719181269
1783696080248160000,9.427159912109374,-0.4992950910389423,0.8308405830442905,-0.3830211199596524
1783696080258123300,9.437123291015626,-0.373407780700922,0.7384709269046783,-0.4148042054504156
1783696080268087000,9.447087158203125,-0.26947628158330916,0.6442237864553928,-0.4139570871017873
1783696080278051000,9.457051025390625,-0.20237375316917894,0.5713134485453367,-0.3594464023005217
1783696080288014000,9.46701416015625,-0.1441349146902561,0.5178448932081461,-0.22296616708189249
1783696080297978000,9.47697802734375,-0.018717559951543807,0.4453612562775612,-0.16082243011891842
1783696080307941000,9.486941162109375,0.09542845918834209,0.331881592091918,-0.15432393494509158
1783696080317905200,9.4969052734375,0.173654439163208,0.1767266862154007,-0.18250709624774752
1783696080327869200,9.506869140625,0.22319442287981509,0.05839899747669697,-0.28491887498479335
1783696080337832200,9.516832275390625,0.2210544882416725,0.02332885313928127,-0.44227140050344166
1783696080347796200,9.526796142578124,0.1867991674184799,0.012900398105382918,-0.5870954665016382
1783696080357759200,9.53675927734375,0.10089432337880135,0.11788228305876254,-0.7180942746344954
1783696080367723300,9.54672314453125,0.00017068039178848266,0.28298808958530425,-0.8191202615689486
1783696080377687300,9.556687255859375,-0.0904477481663227,0.474026794269681,-0.8741748439885675
1783696080387650300,9.566650390625,-0.2106418152987957,0.6017939270049333,-0.8851168745677918
1783696080397614300,9.5766142578125,-0.3312275120973587,0.6881050137579441,-0.8715474180944264
1783696080407577300,9.586577392578125,-0.3791518773108721,0.7192062544643879,-0.9291334917530417
1783696080417541400,9.596541259765624,-0.3797545193791389,0.6289823781818151,-1.0372744983244686
1783696080427505200,9.606505126953126,-0.37860710290968413,0.47442836080789563,-1.0968858672656119
1783696080437468400,9.616468505859375,-0.37269934017062184,0.3389624902635813,-1.1636883898198604
1783696080447432200,9.62643212890625,-0.2589303376495838,0.21245967837572097,-1.170559736894071
1783696080457395200,9.636395263671876,-0.10720248361229896,0.09547522093951702,-1.0885923784337936
1783696080467359200,9.646359130859375,0.059140171232819554,0.004577390918135643,-0.9578780863307416
1783696080477323300,9.6563232421875,0.26863983075916764,-0.06539338640868664,-0.8588270527310669
1783696080487286300,9.666286376953124,0.5018780932694673,-0.14616788182258605,-0.7650890308476984
1783696080497250300,9.676250244140626,0.6977589772880077,-0.23317688771188258,-0.7189097557358444
1783696080507213000,9.686213134765625,0.8975538198798895,-0.3308680311352014,-0.709800712737441
1783696080517177000,9.696177001953124,1.0021347228169442,-0.4018804264694452,-0.6926145270716398
1783696080527141400,9.706141357421876,0.9960334833323955,-0.4609954632610082,-0.6491887153863907
1783696080537104100,9.716104248046875,0.9232353736251592,-0.49783027918338774,-0.6136075527869165
1783696080547068200,9.726068115234375,0.7683423335552215,-0.5373831218928098,-0.5906812890991568
1783696080557031200,9.73603125,0.5498509737998247,-0.6069423958092928,-0.6173066265005618
1783696080566995200,9.7459951171875,0.2500654786705971,-0.6940443406790494,-0.7036572415463626
1783696080576959200,9.755959228515625,0.15206746125519274,-0.7182558218717575,-0.7810900253169238
1783696080586922200,9.765922119140624,0.3365507529467344,-0.6325473771870136,-0.6817999953296036
1783696080596886300,9.77588623046875,0.3985392993479967,-0.47469431826770303,-0.4598166287399828
1783696080606849300,9.785849365234375,0.6635586015224456,-0.3902864347875118,-0.1498798150178045
1783696080616813000,9.79581298828125,0.9065729926377535,-0.5745446855515242,0.37459377561509605
1783696080626777000,9.805777099609376,0.4521306042820215,-0.5737339536905288,-0.06337503232359885
1783696080636740000,9.815739990234375,-0.025313304954767225,-0.6787830586612225,-0.45981319467388093
1783696080646704000,9.8257041015625,-0.12207856570482253,-0.8878016566723584,-0.5786899686627089
1783696080656667100,9.835667236328124,-0.25679917083978654,-0.9676251349717379,-0.6563816956304014
1783696080666631200,9.845631103515625,-0.40597266421914097,-0.822756645309925,-0.6623628158666193
