time,seconds_elapsed,z,y,x
1783696038417418200,0.052418212890625,0.3560486435890198,0.31824541091918945,-0.16317906975746155
1783696038427382300,0.06238232421875,0.3817490339279175,0.45698726177215576,-0.12734684348106384
1783696038437346300,0.07234619140625,0.416117399930954,0.507320761680603,-0.1098078042268753
1783696038447309300,0.082309326171875,0.460581511259079,0.4605180025100708,-0.12106551229953766
1783696038457273300,0.0922734375,0.5039209723472595,0.37684494256973267,-0.1536405086517334
1783696038467237000,0.102237060546875,0.5435789823532104,0.3194141685962677,-0.1995696723461151
1783696038477201200,0.112201171875,0.5691975355148315,0.298471063375473,-0.23995891213417053
1783696038487164200,0.1221640625,0.5802980065345764,0.2936542332172394,-0.2618170380592346
1783696038497128200,0.132128173828125,0.5766095519065857,0.2899574935436249,-0.26212969422340393
1783696038507092200,0.14209228515625,0.5698549151420593,0.26963117718696594,-0.24913033843040466
1783696038517055200,0.15205517578125,0.5553135275840759,0.2391369491815567,-0.218412384390831
1783696038527019300,0.162019287109375,0.5449673533439636,0.22077971696853638,-0.17091608047485352
1783696038536983300,0.1719833984375,0.5442970395088196,0.19634121656417847,-0.13003282248973846
1783696038546947300,0.181947265625,0.5452628135681152,0.16152560710906982,-0.10419949889183044
1783696038556910300,0.191910400390625,0.5470939874649048,0.1199166476726532,-0.09452130645513535
1783696038566874400,0.201874267578125,0.5472234487533569,0.10565073043107986,-0.08390136808156967
1783696038576838100,0.211838134765625,0.5409170985221863,0.126027911901474,-0.05790971964597702
1783696038586801400,0.221801513671875,0.5246842503547668,0.15899525582790375,-0.0323701873421669
1783696038596765200,0.23176513671875,0.493789404630661,0.17941157519817352,-0.01865464262664318
1783696038606729200,0.241729248046875,0.45403289794921875,0.186541348695755,-0.013637912459671497
1783696038616693200,0.251693359375,0.41893404722213745,0.20519785583019257,-0.006919556763023138
1783696038626656300,0.26165625,0.3880839943885803,0.23004001379013062,0.0009792190976440907
1783696038636620300,0.271620361328125,0.3695444166660309,0.24264422059059143,0.0039041689597070217
1783696038646584300,0.281584228515625,0.34927093982696533,0.23443572223186493,0.0021359650418162346
1783696038656547300,0.29154736328125,0.33036676049232483,0.2222520262002945,0.009186416864395142
1783696038666511400,0.301511474609375,0.3206535577774048,0.2172529697418213,0.03036259487271309
1783696038676475400,0.311475341796875,0.31704655289649963,0.2059587836265564,0.05792657658457756
1783696038686439200,0.321439208984375,0.3139456510543823,0.19711218774318695,0.08435211330652237
1783696038696402400,0.33140234375,0.3092347979545593,0.19647596776485443,0.11766133457422256
1783696038706366200,0.3413662109375,0.30350029468536377,0.2021021991968155,0.1527019739151001
1783696038716330200,0.351330322265625,0.30146804451942444,0.2061680555343628,0.18537896871566772
1783696038726293200,0.361293212890625,0.29850849509239197,0.20784121751785278,0.2053571492433548
1783696038736257300,0.37125732421875,0.3054391145706177,0.21976792812347412,0.21276766061782837
1783696038746221300,0.38122119140625,0.3214420676231384,0.25976625084877014,0.21238429844379425
1783696038756185300,0.391185302734375,0.34969502687454224,0.29516178369522095,0.19607536494731903
1783696038766148400,0.4011484375,0.3677211403846741,0.2693057358264923,0.15597164630889893
1783696038776112400,0.4111123046875,0.36486726999282837,0.2308131903409958,0.10443922132253647
1783696038786076400,0.421076416015625,0.3534156382083893,0.22557561099529266,0.05387796089053154
1783696038796039200,0.4310390625,0.34521549940109253,0.19826915860176086,0.006229748949408531
1783696038806003200,0.441003173828125,0.3334023654460907,0.16767391562461853,-0.03973742574453354
1783696038815967200,0.45096728515625,0.3048596680164337,0.16551490128040314,-0.08469877392053604
1783696038825931300,0.46093115234375,0.2565024793148041,0.21546253561973572,-0.13097792863845825
1783696038835894000,0.47089404296875,0.2108127474784851,0.2877143919467926,-0.16905127465724945
1783696038845858000,0.480858154296875,0.18984591960906982,0.3543100655078888,-0.18834510445594788
1783696038855822300,0.490822265625,0.19062009453773499,0.3987233340740204,-0.18411122262477875
1783696038865786400,0.500786376953125,0.20676614344120026,0.40302494168281555,-0.15295584499835968
1783696038875749000,0.5107490234375,0.2200145721435547,0.36458754539489746,-0.10311932861804962
1783696038885713200,0.520713134765625,0.22162936627864838,0.30424419045448303,-0.04753473401069641
1783696038895677400,0.530677490234375,0.2084304690361023,0.23171935975551605,0.010732034221291542
1783696038905640200,0.54064013671875,0.17883771657943726,0.14116321504116058,0.0644805058836937
1783696038915604200,0.550604248046875,0.1447330117225647,0.06829327344894409,0.12953834235668182
1783696038925568000,0.560568115234375,0.1089690774679184,0.03201198950409889,0.2058531492948532
1783696038935532000,0.570531982421875,0.08709173649549484,0.03399018570780754,0.27899765968322754
1783696038945495000,0.5804951171875,0.07191197574138641,0.059806257486343384,0.33639582991600037
1783696038955459000,0.590458984375,0.06496965140104294,0.09338898211717606,0.36826851963996887
1783696038965423000,0.600423095703125,0.05777416750788689,0.13025273382663727,0.361328125
1783696038975386000,0.61038623046875,0.05124116688966751,0.15791605412960052,0.31774869561195374
1783696038985350100,0.62035009765625,0.04004049301147461,0.17443490028381348,0.2644151747226715
1783696038995314200,0.630314208984375,0.024186428636312485,0.18310695886611938,0.20643575489521027
1783696039005277200,0.640277099609375,0.0022378070279955864,0.17640908062458038,0.16347679495811462
1783696039015241200,0.6502412109375,-0.023020144551992416,0.15659703314304352,0.13359372317790985
1783696039025205200,0.660205322265625,-0.05310233682394028,0.1237821877002716,0.10680059343576431
1783696039035169000,0.6701689453125,-0.08553671091794968,0.07530439645051956,0.083950936794281
1783696039045132300,0.68013232421875,-0.10478190332651138,0.028540724888443947,0.05463392660021782
1783696039055096000,0.690095947265625,-0.11074818670749664,-0.016344724223017693,0.02134574204683304
1783696039065060000,0.70006005859375,-0.10824966430664062,-0.056342869997024536,-0.025269348174333572
1783696039075023000,0.710023193359375,-0.0948164090514183,-0.10052870213985443,-0.08923474699258804
1783696039084987100,0.719987060546875,-0.07522626966238022,-0.1501159816980362,-0.16589513421058655
1783696039094951200,0.729951171875,-0.05589597672224045,-0.18744604289531708,-0.25100257992744446
1783696039104915200,0.739915283203125,-0.0429455041885376,-0.19447007775306702,-0.32923293113708496
1783696039114878200,0.749878173828125,-0.025805668905377388,-0.16588743031024933,-0.385832279920578
1783696039124842200,0.75984228515625,-0.0046945917420089245,-0.11376139521598816,-0.39950546622276306
1783696039134806300,0.76980615234375,0.028381600975990295,-0.039487965404987335,-0.36567771434783936
1783696039144769300,0.779769287109375,0.07265538722276688,0.02509903907775879,-0.29177477955818176
1783696039154733000,0.789733154296875,0.11418445408344269,0.049317024648189545,-0.204036682844162
1783696039164697000,0.799697021484375,0.14521999657154083,0.034398678690195084,-0.11291565746068954
1783696039174661000,0.8096611328125,0.16383762657642365,-0.01598593033850193,-0.02882128767669201
1783696039184624000,0.8196240234375,0.16226239502429962,-0.05795104801654816,0.03963281959295273
1783696039194588200,0.829588134765625,0.15473949909210205,-0.07984808832406998,0.07051056623458862
1783696039204552200,0.83955224609375,0.14802365005016327,-0.08861619979143143,0.07334974408149719
1783696039214515200,0.84951513671875,0.12072865664958954,-0.06786644458770752,0.053207725286483765
1783696039224479200,0.859479248046875,0.06563737243413925,-0.019456135109066963,0.012899581342935562
1783696039234443300,0.869443359375,0.025831367820501328,0.009832510724663734,-0.038159340620040894
1783696039244406800,0.87940673828125,0.003475019708275795,0.054687388241291046,-0.07978817075490952
1783696039254369800,0.889369873046875,-0.01892695762217045,0.11544021964073181,-0.09638871997594833
1783696039264333800,0.899333740234375,-0.040743570774793625,0.14582322537899017,-0.09330061823129654
1783696039274297600,0.909297607421875,-0.05770337954163551,0.16790243983268738,-0.06231128051877022
1783696039284260900,0.9192607421875,-0.072435162961483,0.19023644924163818,-0.005731121636927128
1783696039294224600,0.929224609375,-0.09165679663419724,0.20062464475631714,0.04887726530432701
1783696039304188700,0.939188720703125,-0.1007164791226387,0.19338294863700867,0.08481454104185104
1783696039314152700,0.949152587890625,-0.10738875716924667,0.1886981874704361,0.09060399234294891
1783696039324115700,0.95911572265625,-0.11188700795173645,0.2023608535528183,0.07931618392467499
1783696039334079700,0.969079833984375,-0.09950810670852661,0.22888566553592682,0.0659303367137909
1783696039344043800,0.979043701171875,-0.06977410614490509,0.2505784034729004,0.0629173144698143
1783696039354006800,0.9890068359375,-0.023167461156845093,0.2693270444869995,0.07664031535387039
1783696039363970800,0.998970703125,0.03781389072537422,0.27729740738868713,0.11715618520975113
1783696039373934800,1.008934814453125,0.11238080263137817,0.2759399712085724,0.18602392077445984
1783696039383898600,1.018898681640625,0.18978622555732727,0.2615220844745636,0.27943530678749084
1783696039393862000,1.02886181640625,0.26545727252960205,0.2515229880809784,0.3854983448982239
1783696039403825700,1.03882568359375,0.33687838912010193,0.24157366156578064,0.49080297350883484
1783696039413789700,1.048789794921875,0.3889123201370239,0.23246724903583527,0.573173463344574
1783696039423752700,1.058752685546875,0.4233261048793793,0.21586497128009796,0.63114994764328
1783696039433716700,1.068716796875,0.43939030170440674,0.15290172398090363,0.652819812297821
1783696039443680800,1.0786806640625,0.42920127511024475,0.060701385140419006,0.6387563943862915
1783696039453643800,1.088643798828125,0.40251240134239197,-0.013028762303292751,0.6120930910110474
1783696039463607800,1.09860791015625,0.37582746148109436,-0.031166771426796913,0.5708234906196594
1783696039473571800,1.10857177734375,0.34279733896255493,0.019735289737582207,0.5165615677833557
1783696039483536000,1.118535888671875,0.2913016974925995,0.11753914505243301,0.45195725560188293
1783696039493499000,1.128498779296875,0.2362525761127472,0.24745027720928192,0.3954564332962036
1783696039503463000,1.138462890625,0.1997905820608139,0.3757086396217346,0.3477199971675873
1783696039513426700,1.1484267578125,0.1857043206691742,0.4864617586135864,0.3110719621181488
1783696039523389700,1.1583896484375,0.18777328729629517,0.521446704864502,0.2780449390411377
1783696039533353700,1.168353759765625,0.20205210149288177,0.4516889154911041,0.24083738029003143
1783696039543317800,1.17831787109375,0.21064874529838562,0.340596079826355,0.20177677273750305
1783696039553281800,1.18828173828125,0.201597198843956,0.2167726755142212,0.14719687402248383
1783696039563244800,1.198244873046875,0.1591862589120865,0.1151600331068039,0.07168500125408173
1783696039573208800,1.208208740234375,0.10036048293113708,0.05701204016804695,-0.013817383907735348
1783696039583172900,1.2181728515625,0.03286859765648842,0.08372950553894043,-0.0889522135257721
1783696039593135600,1.228135498046875,-0.023412249982357025,0.1930466741323471,-0.14083805680274963
1783696039603100000,1.238099853515625,-0.04830761253833771,0.3423500955104828,-0.16509273648262024
1783696039613064000,1.24806396484375,-0.03744804114103317,0.4737049341201782,-0.15035027265548706
1783696039623027700,1.25802783203125,0.02411516197025776,0.602554202079773,-0.10188566893339157
1783696039632990700,1.26799072265625,0.11415717005729675,0.7024815678596497,-0.054856374859809875
1783696039642954800,1.277954833984375,0.21351273357868195,0.7579057812690735,-0.013078142888844013
1783696039652918800,1.287918701171875,0.3146910071372986,0.7702226042747498,0.019627338275313377
1783696039662881500,1.297881591796875,0.39628103375434875,0.7197961807250977,0.03298799321055412
1783696039672845600,1.307845458984375,0.443439781665802,0.6346256136894226,0.03905467316508293
1783696039682809900,1.317809814453125,0.44668295979499817,0.5169852375984192,0.03521090745925903
1783696039692774000,1.32777392578125,0.43475812673568726,0.42448005080223083,0.026501569896936417
1783696039702736600,1.337736572265625,0.4110984206199646,0.3571135699748993,0.007092558778822422
1783696039712700700,1.34770068359375,0.38866475224494934,0.26162832975387573,-0.015433257445693016
1783696039722664700,1.357664794921875,0.388609379529953,0.17584922909736633,-0.0384732186794281
1783696039732627700,1.367627685546875,0.4013049304485321,0.10975463688373566,-0.061430469155311584
1783696039742591700,1.377591796875,0.4010387361049652,0.06886926293373108,-0.09602324664592743
1783696039752555500,1.387555419921875,0.4060042202472687,0.022849570959806442,-0.1346673220396042
1783696039762518500,1.3975185546875,0.4062401056289673,-0.012215573340654373,-0.15204058587551117
1783696039772482600,1.407482666015625,0.40060698986053467,-0.011502113193273544,-0.15463583171367645
1783696039782446600,1.417446533203125,0.40562379360198975,0.0250648595392704,-0.16074171662330627
1783696039792410600,1.42741064453125,0.41264256834983826,0.08721984922885895,-0.1677522212266922
1783696039802373600,1.43737353515625,0.4131549298763275,0.17030905187129974,-0.17202195525169373
1783696039812337700,1.447337646484375,0.40322133898735046,0.24911971390247345,-0.17469869554042816
1783696039822301700,1.4573017578125,0.3890838921070099,0.3130206763744354,-0.18327802419662476
1783696039832264700,1.4672646484375,0.37591642141342163,0.3469024896621704,-0.1804462969303131
1783696039842228700,1.477228759765625,0.35684728622436523,0.3565908372402191,-0.17087402939796448
1783696039852192800,1.48719287109375,0.33695825934410095,0.34720611572265625,-0.15800590813159943
1783696039862156500,1.497156494140625,0.3139558732509613,0.306675523519516,-0.1373014748096466
1783696039872119600,1.50711962890625,0.28489944338798523,0.26371848583221436,-0.09601102769374847
1783696039882083600,1.51708349609375,0.2584439814090729,0.2275286167860031,-0.058814097195863724
1783696039892047600,1.527047607421875,0.23966124653816223,0.17495861649513245,-0.027859646826982498
1783696039902010600,1.5370107421875,0.22157390415668488,0.13647106289863586,-0.0028947200626134872
1783696039911974700,1.546974609375,0.19927231967449188,0.09812208265066147,0.022151244804263115
1783696039921938700,1.556938720703125,0.18101458251476288,0.07837005704641342,0.038459934294223785
1783696039931901700,1.566901611328125,0.17373350262641907,0.09302330017089844,0.048218291252851486
1783696039941865700,1.57686572265625,0.17130786180496216,0.10385780781507492,0.04081190750002861
1783696039951829800,1.586829833984375,0.16636663675308228,0.10005028545856476,0.015913480892777443
1783696039961793500,1.59679345703125,0.15632827579975128,0.09551358968019485,-0.019598521292209625
1783696039971756800,1.6067568359375,0.15139158070087433,0.08717896044254303,-0.0503804013133049
1783696039981720600,1.616720458984375,0.1464689075946808,0.1280933916568756,-0.0676746517419815
1783696039991684600,1.6266845703125,0.14139531552791595,0.17695334553718567,-0.09894868731498718
1783696040001647600,1.636647705078125,0.1394723653793335,0.19027723371982574,-0.13767878711223602
1783696040011611600,1.646611572265625,0.13489171862602234,0.18455356359481812,-0.1787061244249344
1783696040021575700,1.65657568359375,0.14342600107192993,0.17243772745132446,-0.2007039338350296
1783696040031539700,1.666539794921875,0.15216410160064697,0.17462125420570374,-0.18999136984348297
1783696040041502700,1.676502685546875,0.155513197183609,0.17646551132202148,-0.14999224245548248
1783696040051466800,1.686466796875,0.15017169713974,0.16388554871082306,-0.09569091349840164
1783696040061430800,1.6964306640625,0.14477364718914032,0.13049113750457764,-0.03817057982087135
1783696040071393800,1.706393798828125,0.14117544889450073,0.10477270931005478,0.015794649720191956
1783696040081357800,1.71635791015625,0.13912050426006317,0.09042965620756149,0.07082168012857437
1783696040091321600,1.726321533203125,0.14217302203178406,0.06711501628160477,0.11564002186059952
1783696040101285600,1.73628564453125,0.13551829755306244,0.04242375120520592,0.162184476852417
1783696040111248600,1.74624853515625,0.12005225569009781,0.019955459982156754,0.20245361328125
1783696040121212700,1.756212646484375,0.11099805682897568,-0.03371971845626831,0.23386146128177643
1783696040131176700,1.7661767578125,0.10419181734323502,-0.10050487518310547,0.2547084391117096
1783696040141139700,1.7761396484375,0.10444065183401108,-0.16109199821949005,0.2631174623966217
1783696040151103700,1.786103759765625,0.07971799373626709,-0.20201413333415985,0.2319459617137909
1783696040161067800,1.79606787109375,0.0670483335852623,-0.2237517088651657,0.16278748214244843
1783696040171030800,1.80603076171875,0.064332976937294,-0.214298814535141,0.07754635810852051
1783696040180994800,1.815994873046875,0.05104856938123703,-0.15559986233711243,-0.003523599822074175
1783696040190958800,1.825958740234375,0.04609695449471474,-0.08752892911434174,-0.06713134050369263
1783696040200922600,1.835922607421875,0.05907410383224487,-0.006611576769500971,-0.10092631727457047
1783696040210886000,1.845885986328125,0.0718492940068245,0.06785333901643753,-0.10780792683362961
1783696040220849700,1.855849609375,0.07948637008666992,0.09758944809436798,-0.10296398401260376
1783696040230813700,1.865813720703125,0.08582895249128342,0.0917893499135971,-0.09570074826478958
1783696040240777000,1.87577685546875,0.07767071574926376,0.058397550135850906,-0.08528011292219162
1783696040250741000,1.885740966796875,0.057336416095495224,0.05114150047302246,-0.07605412602424622
1783696040260705000,1.895705078125,0.032887015491724014,0.06471976637840271,-0.07570597529411316
1783696040270669000,1.9056689453125,0.013911991380155087,0.0824926346540451,-0.09331505745649338
1783696040280632000,1.915632080078125,-0.016422946006059647,0.09673702716827393,-0.12597624957561493
1783696040290596000,1.92559619140625,-0.04179221764206886,0.08279191702604294,-0.16250310838222504
1783696040300560000,1.935559814453125,-0.05059909075498581,0.04547550156712532,-0.17358806729316711
1783696040310523100,1.945523193359375,-0.06118568778038025,0.0030822374392300844,-0.15560320019721985
1783696040320487000,1.95548681640625,-0.07972227782011032,-0.05793540179729462,-0.10373304784297943
1783696040330451000,1.965450927734375,-0.10159268975257874,-0.11084255576133728,-0.03451456502079964
1783696040340414000,1.9754140625,-0.14001619815826416,-0.1622394472360611,0.028948672115802765
1783696040350378000,1.9853779296875,-0.19116593897342682,-0.21899433434009552,0.07832474261522293
1783696040360342000,1.995342041015625,-0.24667653441429138,-0.26047632098197937,0.10714608430862427
1783696040370306000,2.00530615234375,-0.30182021856307983,-0.2832745611667633,0.12097268551588058
1783696040380269000,2.01526904296875,-0.35242968797683716,-0.2866882383823395,0.12620092928409576
1783696040390233000,2.025233154296875,-0.38269945979118347,-0.27820339798927307,0.13865973055362701
1783696040400197000,2.035197021484375,-0.3959530293941498,-0.25516390800476074,0.1604916751384735
1783696040410160000,2.04516015625,-0.401797354221344,-0.20816178619861603,0.18582020699977875
1783696040420124200,2.055124267578125,-0.4042946994304657,-0.14541397988796234,0.1921861320734024
1783696040430088000,2.065087890625,-0.4006403088569641,-0.08784336596727371,0.17350858449935913
1783696040440052000,2.075052001953125,-0.39673709869384766,-0.03596581518650055,0.13346977531909943
1783696040450015000,2.085014892578125,-0.3966532051563263,-0.005620426964014769,0.07398860901594162
1783696040459979000,2.09497900390625,-0.38785842061042786,0.016580183058977127,0.00986701250076294
1783696040469943000,2.104943115234375,-0.3796904981136322,0.0008843105752021074,-0.05709497630596161
1783696040479905800,2.11490576171875,-0.3696107864379883,-0.030405987054109573,-0.11005270481109619
1783696040489870000,2.1248701171875,-0.36637982726097107,-0.06967056542634964,-0.15686894953250885
1783696040499834000,2.134834228515625,-0.3743687570095062,-0.12967710196971893,-0.20193427801132202
1783696040509796900,2.144796875,-0.37243184447288513,-0.18439680337905884,-0.24457068741321564
1783696040519761000,2.154760986328125,-0.36994796991348267,-0.22791101038455963,-0.28375425934791565
1783696040529725200,2.16472509765625,-0.36873623728752136,-0.2635883092880249,-0.3174520432949066
1783696040539689000,2.17468896484375,-0.35798391699790955,-0.3007667362689972,-0.3347904086112976
1783696040549652000,2.18465185546875,-0.3421548902988434,-0.3239485025405884,-0.3215039074420929
1783696040559615700,2.19461572265625,-0.3305590748786926,-0.33693045377731323,-0.2836396396160126
1783696040569580000,2.204580078125,-0.31469541788101196,-0.33837682008743286,-0.21813732385635376
1783696040579542800,2.214542724609375,-0.30194422602653503,-0.323609322309494,-0.14073024690151215
1783696040589506800,2.2245068359375,-0.290816992521286,-0.2914988100528717,-0.06096537411212921
1783696040599470800,2.234470947265625,-0.28150269389152527,-0.25954142212867737,0.014177339151501656
1783696040609435000,2.244434814453125,-0.27592045068740845,-0.2519996166229248,0.0661659687757492
1783696040619398000,2.25439794921875,-0.26399728655815125,-0.2592567503452301,0.09723401069641113
1783696040629362000,2.26436181640625,-0.25609835982322693,-0.2744485139846802,0.11924317479133606
1783696040639326000,2.274325927734375,-0.2553986608982086,-0.27189305424690247,0.13706469535827637
1783696040649289000,2.2842890625,-0.26626864075660706,-0.24744364619255066,0.15086546540260315
1783696040659253000,2.2942529296875,-0.2785920202732086,-0.21981342136859894,0.1526281237602234
1783696040669216800,2.304216796875,-0.29322555661201477,-0.20167064666748047,0.14709727466106415
1783696040679180000,2.314179931640625,-0.3115041255950928,-0.18868526816368103,0.13606379926204681
1783696040689143800,2.324143798828125,-0.33467498421669006,-0.18141642212867737,0.12018896639347076
1783696040699107800,2.33410791015625,-0.3641009032726288,-0.1815325915813446,0.09743470698595047
1783696040709072000,2.34407177734375,-0.39469635486602783,-0.18584184348583221,0.07025155425071716
1783696040719035000,2.354034912109375,-0.42941462993621826,-0.20235665142536163,0.0407523587346077
1783696040728999000,2.3639990234375,-0.46715614199638367,-0.20839697122573853,0.023644210770726204
1783696040738963000,2.373962890625,-0.49191516637802124,-0.19567157328128815,0.019160592928528786
1783696040748926000,2.383926025390625,-0.5086070895195007,-0.16988472640514374,0.031903818249702454
1783696040758890000,2.393889892578125,-0.5122731328010559,-0.14600571990013123,0.059572864323854446
1783696040768854000,2.40385400390625,-0.4975128471851349,-0.12827172875404358,0.09322376549243927
1783696040778817000,2.413817138671875,-0.46690669655799866,-0.12322140485048294,0.13092555105686188
1783696040788780800,2.42378076171875,-0.4287577271461487,-0.1399466097354889,0.16479456424713135
1783696040798744800,2.433744873046875,-0.3930283188819885,-0.16295570135116577,0.19640584290027618
1783696040808708900,2.443708984375,-0.36260250210762024,-0.19049811363220215,0.23594792187213898
1783696040818671900,2.453671875,-0.34673672914505005,-0.23537877202033997,0.2795731723308563
1783696040828636000,2.463635986328125,-0.33328378200531006,-0.302771657705307,0.3276591897010803
1783696040838600000,2.473599853515625,-0.3229617178440094,-0.37578538060188293,0.3811405897140503
1783696040848563000,2.48356298828125,-0.3197302222251892,-0.4516045153141022,0.43712475895881653
1783696040858527000,2.49352685546875,-0.3214847445487976,-0.5150899291038513,0.4987056255340576
1783696040868491000,2.503490966796875,-0.3235047459602356,-0.5191869139671326,0.5508458018302917
1783696040878455000,2.513455078125,-0.3158479928970337,-0.4562525153160095,0.559079110622406
1783696040888418000,2.52341796875,-0.2905042767524719,-0.344662070274353,0.509466826915741
1783696040898381800,2.5333818359375,-0.2580396234989166,-0.26648208498954773,0.40313583612442017
1783696040908345900,2.543345947265625,-0.24648095667362213,-0.2445826530456543,0.2670981287956238
1783696040918308900,2.553308837890625,-0.26894253492355347,-0.25975656509399414,0.14847010374069214
1783696040928273000,2.56327294921875,-0.30237826704978943,-0.2771874666213989,0.07880927622318268
1783696040938237000,2.57323681640625,-0.3288649022579193,-0.28357869386672974,0.07837195694446564
1783696040948201000,2.583200927734375,-0.36340048909187317,-0.28474941849708557,0.1327238827943802
1783696040958164000,2.5931640625,-0.3831816017627716,-0.2603459656238556,0.21915988624095917
1783696040968128000,2.6031279296875,-0.3853161036968231,-0.22775261104106903,0.2958213686943054
1783696040978092000,2.613092041015625,-0.3770967125892639,-0.24292047321796417,0.3346974551677704
1783696040988055000,2.623054931640625,-0.3713781237602234,-0.30958500504493713,0.3242836892604828
1783696040998019000,2.63301904296875,-0.37734949588775635,-0.36942049860954285,0.2865574359893799
1783696041007982800,2.64298291015625,-0.40454035997390747,-0.3856343626976013,0.23502419888973236
1783696041017946000,2.652946044921875,-0.4462937116622925,-0.34495076537132263,0.18277807533740997
1783696041027910000,2.662909912109375,-0.48634472489356995,-0.24485962092876434,0.14408767223358154
1783696041037874000,2.6728740234375,-0.5202627182006836,-0.1193922832608223,0.12350592762231827
1783696041047838000,2.682837890625,-0.5396947264671326,-0.028093259781599045,0.13093215227127075
1783696041057801000,2.692801025390625,-0.5407110452651978,0.014628604985773563,0.1678687334060669
1783696041067765000,2.702764892578125,-0.5142155289649963,0.017125317826867104,0.22211386263370514
1783696041077729000,2.71272900390625,-0.4650762677192688,0.01405746303498745,0.2900148332118988
1783696041087692000,2.722692138671875,-0.40491652488708496,0.024146581068634987,0.3449941873550415
1783696041097656000,2.732656005859375,-0.3773970603942871,-0.03782398998737335,0.4047047793865204
1783696041107620000,2.7426201171875,-0.35697701573371887,-0.18157929182052612,0.41827675700187683
1783696041117584000,2.752583984375,-0.33703741431236267,-0.32110872864723206,0.4073454439640045
1783696041127547100,2.762547119140625,-0.33115077018737793,-0.4515056312084198,0.3837895095348358
1783696041137511000,2.772510986328125,-0.34372082352638245,-0.553487241268158,0.35127004981040955
1783696041147475000,2.782474853515625,-0.3834759593009949,-0.6348944902420044,0.29631757736206055
1783696041157438000,2.79243798828125,-0.4149612486362457,-0.7030556797981262,0.237092524766922
1783696041167402000,2.802402099609375,-0.4502473473548889,-0.7486947774887085,0.1753159761428833
1783696041177366000,2.812365966796875,-0.48375558853149414,-0.7621557116508484,0.12092722207307816
1783696041187329000,2.8223291015625,-0.5160919427871704,-0.7484670877456665,0.06420588493347168
1783696041197293000,2.83229296875,-0.5388354659080505,-0.7085703015327454,0.0003752674674615264
1783696041207257000,2.842257080078125,-0.5544368028640747,-0.6448680758476257,-0.07434611022472382
1783696041217221000,2.85222119140625,-0.5716880559921265,-0.575960099697113,-0.1471565067768097
1783696041227184000,2.86218408203125,-0.5858305096626282,-0.5211346745491028,-0.19894219934940338
1783696041237148200,2.872148193359375,-0.6083552241325378,-0.47987592220306396,-0.22988173365592957
1783696041247111700,2.882111572265625,-0.6396204829216003,-0.45982471108436584,-0.2421586513519287
1783696041257074700,2.89207470703125,-0.6745409965515137,-0.44609740376472473,-0.2292993664741516
1783696041267038500,2.90203857421875,-0.7084510326385498,-0.4465053975582123,-0.213468998670578
1783696041277002500,2.91200244140625,-0.7506542205810547,-0.4573844373226166,-0.20000162720680237
1783696041286966500,2.921966552734375,-0.7931268811225891,-0.4827675521373749,-0.1819523274898529
1783696041296929500,2.931929443359375,-0.8364290595054626,-0.5166395902633667,-0.15861065685749054
1783696041306893600,2.9418935546875,-0.8836115002632141,-0.5679874420166016,-0.1271454095840454
1783696041316857600,2.951857666015625,-0.9370272159576416,-0.6086441874504089,-0.0900687426328659
1783696041326820600,2.961820556640625,-0.9964689612388611,-0.6713365912437439,-0.06888782232999802
1783696041336784600,2.97178466796875,-1.0510709285736084,-0.7609696388244629,-0.044390153139829636
1783696041346748700,2.981748779296875,-1.1016206741333008,-0.8668209314346313,-0.0020203259773552418
1783696041356711700,2.991711669921875,-1.1499747037887573,-0.9400431513786316,0.05236898735165596
1783696041366675700,3.00167578125,-1.1916917562484741,-1.01456880569458,0.0972464457154274
1783696041376639500,3.011639404296875,-1.2380105257034302,-1.093430757522583,0.11321601271629333
1783696041386603500,3.021603515625,-1.2911163568496704,-1.163322925567627,0.10308587551116943
1783696041396566500,3.03156640625,-1.349853754043579,-1.231246829032898,0.07618419826030731
1783696041406530600,3.041530517578125,-1.4133304357528687,-1.2973999977111816,0.059592705219984055
1783696041416494600,3.05149462890625,-1.4773229360580444,-1.3708010911941528,0.0650084838271141
1783696041426457600,3.06145751953125,-1.5400704145431519,-1.4791264533996582,0.09716774523258209
1783696041436421600,3.071421630859375,-1.6008528470993042,-1.6144980192184448,0.15711143612861633
1783696041446385700,3.0813857421875,-1.653978943824768,-1.7381731271743774,0.2205527275800705
1783696041456349700,3.091349609375,-1.6874715089797974,-1.8083608150482178,0.26695823669433594
1783696041466312700,3.101312744140625,-1.718958854675293,-1.8322765827178955,0.2937358021736145
1783696041476276700,3.11127685546875,-1.740342140197754,-1.8096604347229004,0.30015504360198975
1783696041486240500,3.121240478515625,-1.7451300621032715,-1.7431371212005615,0.2879423201084137
1783696041496203800,3.131203857421875,-1.7403737306594849,-1.6643438339233398,0.2635093927383423
1783696041506167600,3.14116748046875,-1.749090313911438,-1.5977931022644043,0.22228071093559265
1783696041516131600,3.151131591796875,-1.767533779144287,-1.5493882894515991,0.16127406060695648
1783696041526095600,3.161095703125,-1.7908649444580078,-1.5054000616073608,0.08895885199308395
1783696041536058600,3.17105859375,-1.808502197265625,-1.4447709321975708,0.02143312245607376
1783696041546022700,3.181022705078125,-1.8278332948684692,-1.3624347448349,-0.032704684883356094
1783696041555986700,3.190986572265625,-1.8514227867126465,-1.2790627479553223,-0.06428607553243637
1783696041565949700,3.20094970703125,-1.870964527130127,-1.2183568477630615,-0.06375903636217117
1783696041575913700,3.210913818359375,-1.880882740020752,-1.1950342655181885,-0.04200361296534538
1783696041585877800,3.220877685546875,-1.899324893951416,-1.2208653688430786,-0.008682675659656525
1783696041595840800,3.2308408203125,-1.9232226610183716,-1.288191318511963,0.02341558039188385
1783696041605804800,3.2408046875,-1.9403119087219238,-1.3668197393417358,0.048771269619464874
1783696041615768600,3.2507685546875,-1.9603567123413086,-1.425276756286621,0.0692584291100502
1783696041625732600,3.260732666015625,-1.9791862964630127,-1.4775135517120361,0.07685163617134094
1783696041635695600,3.270695556640625,-1.9974644184112549,-1.5008412599563599,0.07947107404470444
1783696041645659600,3.28065966796875,-2.0078394412994385,-1.4892109632492065,0.08312546461820602
1783696041655623700,3.290623779296875,-2.0089809894561768,-1.4490242004394531,0.08338386565446854
1783696041665586700,3.300586669921875,-2.0000369548797607,-1.3939846754074097,0.0810682475566864
1783696041675550700,3.31055078125,-1.9782363176345825,-1.350403904914856,0.07897556573152542
1783696041685514800,3.3205146484375,-1.948090672492981,-1.3307468891143799,0.08344461768865585
1783696041695477800,3.330477783203125,-1.9166443347930908,-1.3222322463989258,0.09552300721406937
1783696041705441800,3.34044189453125,-1.8979140520095825,-1.3272168636322021,0.10335376858711243
1783696041715405800,3.35040576171875,-1.8844753503799438,-1.334488868713379,0.10514505952596664
1783696041725369600,3.36036962890625,-1.880359411239624,-1.3247734308242798,0.10617437213659286
1783696041735332600,3.37033251953125,-1.8815555572509766,-1.3027151823043823,0.10314998775720596
1783696041745296600,3.380296630859375,-1.883934497833252,-1.2815489768981934,0.0928877592086792
1783696041755260700,3.3902607421875,-1.8859292268753052,-1.2655291557312012,0.08181782811880112
1783696041765223700,3.4002236328125,-1.8824162483215332,-1.2532479763031006,0.07413167506456375
1783696041775187700,3.410187744140625,-1.874443531036377,-1.2533268928527832,0.07273244857788086
1783696041785151700,3.42015185546875,-1.8570644855499268,-1.2594777345657349,0.07180220633745193
1783696041795115800,3.43011572265625,-1.823610782623291,-1.2697131633758545,0.07291479408740997
1783696041805078800,3.440078857421875,-1.7954894304275513,-1.2882936000823975,0.0736096128821373
1783696041815042800,3.450042724609375,-1.7733906507492065,-1.2754119634628296,0.06875312328338623
1783696041825006800,3.4600068359375,-1.7490230798721313,-1.2472172975540161,0.05792658030986786
1783696041834969600,3.469969482421875,-1.7279243469238281,-1.2215739488601685,0.030757516622543335
1783696041844933600,3.47993359375,-1.7013750076293945,-1.1895408630371094,0.0031226924620568752
1783696041854897700,3.489897705078125,-1.676883578300476,-1.1583260297775269,-0.025911036878824234
1783696041864860400,3.4998603515625,-1.655076503753662,-1.1268987655639648,-0.044035978615283966
1783696041874824400,3.509824462890625,-1.6360951662063599,-1.1162961721420288,-0.05996905639767647
1783696041884788500,3.51978857421875,-1.6148319244384766,-1.1271837949752808,-0.06318535655736923
1783696041894752800,3.529752685546875,-1.5944879055023193,-1.1299054622650146,-0.04498782008886337
1783696041904715500,3.539715576171875,-1.573821783065796,-1.1231144666671753,-0.016547657549381256
1783696041914679600,3.549679443359375,-1.553012728691101,-1.1125764846801758,0.007696297485381365
1783696041924643600,3.5596435546875,-1.5340454578399658,-1.1014792919158936,0.018747882917523384
1783696041934606600,3.569606689453125,-1.5172319412231445,-1.0915008783340454,0.014257766306400299
1783696041944570600,3.579570556640625,-1.5056562423706055,-1.0721641778945923,-0.006150036118924618
1783696041954534700,3.58953466796875,-1.4947034120559692,-1.0472739934921265,-0.033251214772462845
1783696041964498400,3.59949853515625,-1.4856340885162354,-1.031830906867981,-0.06475693732500076
1783696041974461400,3.60946142578125,-1.4815083742141724,-0.9966830015182495,-0.08377926796674728
1783696041984425500,3.619425537109375,-1.4845370054244995,-0.9575273394584656,-0.08512922376394272
1783696041994389500,3.629389404296875,-1.475624918937683,-0.9336521029472351,-0.06961279362440109
1783696042004352500,3.6393525390625,-1.4575928449630737,-0.9164771437644958,-0.03565802052617073
1783696042014316500,3.649316650390625,-1.4369728565216064,-0.9101634621620178,0.0014794152230024338
1783696042024280600,3.659280517578125,-1.4113491773605347,-0.9014224410057068,0.03880734741687775
1783696042034243600,3.66924365234375,-1.3840891122817993,-0.8790375590324402,0.0784989669919014
1783696042044207600,3.67920751953125,-1.3580505847930908,-0.8597067594528198,0.1063510999083519
1783696042054171600,3.689171630859375,-1.3373770713806152,-0.836712658405304,0.12466605752706528
1783696042064135400,3.699135498046875,-1.3243510723114014,-0.8139764666557312,0.13775736093521118
1783696042074098700,3.7090986328125,-1.3137731552124023,-0.7867050766944885,0.15552754700183868
1783696042084062500,3.7190625,-1.3069645166397095,-0.7459784150123596,0.18092398345470428
1783696042094026500,3.729026611328125,-1.3038649559020996,-0.7283959984779358,0.20720221102237701
1783696042103989500,3.738989501953125,-1.302707314491272,-0.7287286520004272,0.22934825718402863
1783696042113953500,3.74895361328125,-1.297745704650879,-0.7280835509300232,0.24386456608772278
1783696042123917600,3.75891748046875,-1.2930055856704712,-0.7161299586296082,0.24868835508823395
1783696042133881600,3.768881591796875,-1.2760785818099976,-0.6748436093330383,0.22942639887332916
1783696042143844600,3.7788447265625,-1.247955083847046,-0.6442020535469055,0.2103797346353531
1783696042153808600,3.78880859375,-1.2228213548660278,-0.612599790096283,0.20883974432945251
1783696042163772700,3.798772705078125,-1.1933425664901733,-0.5766095519065857,0.2263825237751007
1783696042173735700,3.808735595703125,-1.1647005081176758,-0.5481293201446533,0.2658127248287201
1783696042183699700,3.81869970703125,-1.138983130455017,-0.5388535261154175,0.31344547867774963
1783696042193663500,3.82866357421875,-1.1143662929534912,-0.5325207710266113,0.36521291732788086
1783696042203627500,3.83862744140625,-1.0892186164855957,-0.5183980464935303,0.3995557129383087
1783696042213590500,3.848590576171875,-1.0543187856674194,-0.5015221834182739,0.40216779708862305
1783696042223554600,3.858554443359375,-1.0154192447662354,-0.47786107659339905,0.38104549050331116
1783696042233518600,3.8685185546875,-0.9684479832649231,-0.4666122496128082,0.3368700444698334
1783696042243481000,3.878481201171875,-0.9273567199707031,-0.5007668137550354,0.27875667810440063
1783696042253445000,3.888445068359375,-0.90183424949646,-0.5916723012924194,0.2142842561006546
1783696042263409200,3.8984091796875,-0.90355384349823,-0.701830267906189,0.1623384952545166
1783696042273372200,3.9083720703125,-0.9191579818725586,-0.7676488757133484,0.13172738254070282
1783696042283336200,3.918336181640625,-0.9325909614562988,-0.7753558158874512,0.12749162316322327
1783696042293300200,3.92830029296875,-0.9285140037536621,-0.7630541324615479,0.15638670325279236
1783696042303264300,3.93826416015625,-0.9215807318687439,-0.7541844844818115,0.22884786128997803
1783696042313227300,3.948227294921875,-0.9094693660736084,-0.7973228693008423,0.3120811879634857
1783696042323191000,3.95819091796875,-0.8580277562141418,-0.8341701030731201,0.39679285883903503
1783696042333155000,3.968155029296875,-0.7823562026023865,-0.7924132943153381,0.4775945544242859
1783696042343118000,3.9781181640625,-0.7130762338638306,-0.7270997762680054,0.5135205984115601
1783696042353082000,3.98808203125,-0.6503559350967407,-0.6936609148979187,0.4874976873397827
1783696042363046100,3.998046142578125,-0.6007865071296692,-0.674450695514679,0.4159875512123108
1783696042373009200,4.008009033203125,-0.5732681751251221,-0.6403611302375793,0.32777705788612366
1783696042382973200,4.01797314453125,-0.5594383478164673,-0.6216058135032654,0.24608513712882996
1783696042392937200,4.027937255859375,-0.5689033269882202,-0.6399031281471252,0.17884021997451782
1783696042402901200,4.0379013671875,-0.595070481300354,-0.6529741883277893,0.1455983817577362
1783696042412864300,4.0478642578125,-0.6236413717269897,-0.6390467286109924,0.14663416147232056
1783696042422828300,4.057828369140625,-0.6410917043685913,-0.6429170966148376,0.15467983484268188
1783696042432792000,4.0677919921875,-0.6404584050178528,-0.6574182510375977,0.16198594868183136
1783696042442755300,4.07775537109375,-0.6290489435195923,-0.6548155546188354,0.17230117321014404
1783696042452719000,4.087718994140625,-0.6033869981765747,-0.6289825439453125,0.1772666573524475
1783696042462683100,4.09768310546875,-0.5709525942802429,-0.5703192353248596,0.17214886844158173
1783696042472647200,4.107647216796875,-0.5425818562507629,-0.48452869057655334,0.14643828570842743
1783696042482610200,4.117610107421875,-0.5188714861869812,-0.3778032958507538,0.11144807189702988
1783696042492574200,4.12757421875,-0.5015037059783936,-0.2887153625488281,0.06737672537565231
1783696042502538200,4.137538330078125,-0.48319312930107117,-0.20523163676261902,0.03822682797908783
1783696042512501200,4.147501220703125,-0.4701784551143646,-0.13737604022026062,0.02405761368572712
1783696042522465300,4.15746533203125,-0.45795774459838867,-0.10808075219392776,0.014057709835469723
1783696042532429300,4.16742919921875,-0.44310811161994934,-0.1158195436000824,0.0037339404225349426
1783696042542392300,4.177392333984375,-0.43578600883483887,-0.14937910437583923,-0.009584528394043446
1783696042552356400,4.1873564453125,-0.4291861653327942,-0.1976310908794403,-0.0233345627784729
1783696042562320100,4.197320068359375,-0.4283049404621124,-0.2478838711977005,-0.032678261399269104
1783696042572284200,4.2072841796875,-0.43125206232070923,-0.28356873989105225,-0.03575194999575615
1783696042582247200,4.2172470703125,-0.43329256772994995,-0.3082368075847626,-0.03021204099059105
1783696042592211200,4.227211181640625,-0.435783714056015,-0.32465046644210815,-0.025521041825413704
1783696042602175200,4.23717529296875,-0.42758888006210327,-0.3348735570907593,-0.012697922997176647
1783696042612138200,4.24713818359375,-0.41729190945625305,-0.33981871604919434,0.0018689818680286407
1783696042622102300,4.257102294921875,-0.4041798412799835,-0.35240909457206726,0.01052665151655674
1783696042632066300,4.26706640625,-0.3935619294643402,-0.37904393672943115,0.009684987366199493
1783696042642029300,4.277029296875,-0.38838791847229004,-0.40391600131988525,-0.005953627172857523
1783696042651993300,4.286993408203125,-0.38864511251449585,-0.4175957143306732,-0.023954305797815323
1783696042661957400,4.296957275390625,-0.39747536182403564,-0.4088589549064636,-0.03912820294499397
1783696042671921200,4.306921142578125,-0.4046997129917145,-0.3754241168498993,-0.04496004432439804
1783696042681884400,4.316884521484375,-0.4182029962539673,-0.33309558033943176,-0.04411342367529869
1783696042691848200,4.32684814453125,-0.4322528541088104,-0.2935042083263397,-0.039519283920526505
1783696042701812200,4.336812255859375,-0.4396423399448395,-0.2589278519153595,-0.03190717101097107
1783696042711775200,4.346775146484375,-0.4451325535774231,-0.24364574253559113,-0.027025490999221802
1783696042721739300,4.3567392578125,-0.4490777850151062,-0.241543710231781,-0.02737569622695446
1783696042731703300,4.366703369140625,-0.4530951976776123,-0.2269384264945984,-0.029657360166311264
1783696042741667300,4.376667236328125,-0.46050330996513367,-0.20630718767642975,-0.03377700224518776
1783696042751630300,4.38663037109375,-0.46794894337654114,-0.18910889327526093,-0.0409991517663002
1783696042761594400,4.396594482421875,-0.47839173674583435,-0.1689053624868393,-0.05319136753678322
1783696042771558400,4.406558349609375,-0.48595869541168213,-0.14992469549179077,-0.06356550008058548
1783696042781521400,4.416521484375,-0.49973201751708984,-0.13805712759494781,-0.07770981639623642
1783696042791485200,4.426485107421875,-0.5129159092903137,-0.14714697003364563,-0.09982608258724213
1783696042801449200,4.43644921875,-0.5341543555259705,-0.17000968754291534,-0.11523354053497314
1783696042811412200,4.446412109375,-0.5503870844841003,-0.19766785204410553,-0.12333988398313522
1783696042821376300,4.456376220703125,-0.5607273578643799,-0.23368896543979645,-0.11300548166036606
1783696042831340300,4.46634033203125,-0.5637797117233276,-0.2797972559928894,-0.09765824675559998
1783696042841304300,4.47630419921875,-0.5583812594413757,-0.32648754119873047,-0.07372388243675232
1783696042851267000,4.48626708984375,-0.5437136888504028,-0.36892169713974,-0.04942243546247482
1783696042861231400,4.4962314453125,-0.5318770408630371,-0.39834776520729065,-0.029159775003790855
1783696042871195400,4.5061953125,-0.5221572518348694,-0.4053001403808594,-0.01949862577021122
1783696042881158100,4.516158203125,-0.5157986879348755,-0.3831181526184082,-0.017196590080857277
1783696042891122200,4.5261220703125,-0.5108217597007751,-0.35579714179039,-0.011496811173856258
1783696042901086200,4.536086181640625,-0.5057665705680847,-0.317129909992218,-0.005048233084380627
1783696042911050200,4.54605029296875,-0.5002904534339905,-0.28079184889793396,0.00717192143201828
1783696042921013000,4.556012939453125,-0.4899270534515381,-0.267153799533844,0.023922137916088104
1783696042930977000,4.56597705078125,-0.47500479221343994,-0.2748607397079468,0.04043956845998764
1783696042940941000,4.575941162109375,-0.4633696973323822,-0.2985290288925171,0.05926172435283661
1783696042950904000,4.585904052734375,-0.4516980051994324,-0.3211921751499176,0.07669102400541306
1783696042960868000,4.5958681640625,-0.4473096430301666,-0.3505311608314514,0.09290382266044617
1783696042970832100,4.60583203125,-0.44672712683677673,-0.3738999664783478,0.1203935518860817
1783696042980795100,4.615795166015625,-0.4502432942390442,-0.3770632743835449,0.1635921597480774
1783696042990759200,4.62575927734375,-0.4471149444580078,-0.3714207708835602,0.219272643327713
1783696043000723200,4.63572314453125,-0.4422152638435364,-0.36571040749549866,0.2709587514400482
1783696043010687200,4.645687255859375,-0.4320922791957855,-0.37736794352531433,0.3072730600833893
1783696043020650200,4.655650146484375,-0.43316659331321716,-0.4234693646430969,0.3097982704639435
1783696043030614000,4.665614013671875,-0.4464711844921112,-0.44074535369873047,0.28635480999946594
1783696043040578000,4.675578125,-0.4601329267024994,-0.4042757749557495,0.2570302188396454
1783696043050541000,4.685541015625,-0.46860966086387634,-0.3486638367176056,0.21596994996070862
1783696043060505000,4.695505126953125,-0.47943541407585144,-0.2800304591655731,0.16623035073280334
1783696043070469000,4.70546923828125,-0.49258196353912354,-0.2111743539571762,0.11826105415821075
1783696043080432000,4.71543212890625,-0.494827538728714,-0.1442757546901703,0.07202937453985214
1783696043090396200,4.725396240234375,-0.483353853225708,-0.10381735116243362,0.03609837591648102
1783696043100360200,4.735360107421875,-0.4712095558643341,-0.10805471241474152,0.016339587047696114
1783696043110324200,4.74532421875,-0.46441715955734253,-0.13630756735801697,0.014796178787946701
1783696043120287200,4.755287353515625,-0.4639604389667511,-0.18650895357131958,0.02940255217254162
1783696043130251300,4.765251220703125,-0.46854546666145325,-0.24960865080356598,0.051230382174253464
1783696043140215000,4.775215087890625,-0.4880800247192383,-0.3178976774215698,0.0709601417183876
1783696043150178300,4.78517822265625,-0.5184047818183899,-0.39151719212532043,0.08948412537574768
1783696043160142000,4.79514208984375,-0.5454196333885193,-0.46102702617645264,0.10836141556501389
1783696043170106000,4.805106201171875,-0.5680392384529114,-0.5308871269226074,0.1270139515399933
1783696043180070100,4.815070068359375,-0.5776122808456421,-0.5844675302505493,0.1519286185503006
1783696043190033200,4.825033203125,-0.5818939805030823,-0.6220143437385559,0.185341015458107
1783696043199997200,4.8349970703125,-0.5838615298271179,-0.6473236680030823,0.2237270176410675
1783696043209961200,4.844961181640625,-0.5934892892837524,-0.661309540271759,0.26461902260780334
1783696043219924200,4.85492431640625,-0.6023610830307007,-0.6630091667175293,0.302712082862854
1783696043229888300,4.86488818359375,-0.6161053776741028,-0.657652735710144,0.33297333121299744
1783696043239852300,4.874852294921875,-0.6360908150672913,-0.6384114027023315,0.354933500289917
1783696043249816000,4.884816162109375,-0.660848081111908,-0.6073426604270935,0.36023372411727905
1783696043259779800,4.89477978515625,-0.6875303387641907,-0.5725743174552917,0.35355451703071594
1783696043269743900,4.904743896484375,-0.7121896147727966,-0.5365984439849854,0.3234076499938965
1783696043279708000,4.9147080078125,-0.7355591058731079,-0.5007006525993347,0.28533297777175903
1783696043289671000,4.9246708984375,-0.7567488551139832,-0.4704943597316742,0.23600511252880096
1783696043299635000,4.934635009765625,-0.7706329822540283,-0.44323742389678955,0.188036248087883
1783696043309599000,4.944598876953125,-0.7769949436187744,-0.4249417781829834,0.13054004311561584
1783696043319562000,4.95456201171875,-0.7805215120315552,-0.4110107719898224,0.06288482248783112
1783696043329526000,4.964526123046875,-0.7814632058143616,-0.3874955177307129,-0.014085270464420319
1783696043339490000,4.974489990234375,-0.7752223610877991,-0.3597885072231293,-0.0938570648431778
1783696043349453800,4.984453857421875,-0.7722532153129578,-0.35068240761756897,-0.1749693900346756
1783696043359417000,4.9944169921875,-0.7678725719451904,-0.35382652282714844,-0.2565697133541107
1783696043369380900,5.004380859375,-0.7614746689796448,-0.3695653975009918,-0.3258574306964874
1783696043379345000,5.014344970703125,-0.7521301507949829,-0.39241451025009155,-0.38163065910339355
1783696043389308000,5.024307861328125,-0.7414350509643555,-0.40499013662338257,-0.41912537813186646
1783696043399272000,5.03427197265625,-0.7181289196014404,-0.394307404756546,-0.4299444556236267
1783696043409236000,5.044236083984375,-0.6882836818695068,-0.36790135502815247,-0.41045090556144714
1783696043419200000,5.054199951171875,-0.6477418541908264,-0.33289703726768494,-0.3711458444595337
1783696043429163000,5.0641630859375,-0.608380138874054,-0.31327930092811584,-0.3200949728488922
1783696043439127000,5.074126953125,-0.5635077357292175,-0.3121948838233948,-0.26757851243019104
1783696043449091000,5.084091064453125,-0.5267872214317322,-0.3273637890815735,-0.21986258029937744
1783696043459054000,5.09405419921875,-0.5002703666687012,-0.36846089363098145,-0.1810709834098816
1783696043469017900,5.104017822265625,-0.4807799458503723,-0.4210277199745178,-0.15755878388881683
1783696043478982000,5.11398193359375,-0.4683126211166382,-0.48450151085853577,-0.14046049118041992
1783696043488946000,5.12394580078125,-0.4557444155216217,-0.5368298292160034,-0.12008975446224213
1783696043498909000,5.133908935546875,-0.4464521110057831,-0.5675355195999146,-0.09586884081363678
1783696043508873000,5.143873046875,-0.4383946359157562,-0.5799044370651245,-0.07691909372806549
1783696043518837000,5.1538369140625,-0.43075641989707947,-0.5841822624206543,-0.0671042799949646
1783696043528800000,5.163800048828125,-0.4236932396888733,-0.5720711946487427,-0.064305379986763
1783696043538764000,5.173763916015625,-0.41636741161346436,-0.5404400825500488,-0.0732986107468605
1783696043548728000,5.18372802734375,-0.41020986437797546,-0.48242637515068054,-0.09324347227811813
1783696043558692000,5.193692138671875,-0.40240252017974854,-0.4118901491165161,-0.11502999067306519
1783696043568655000,5.203655029296875,-0.39811551570892334,-0.3373246490955353,-0.13557039201259613
1783696043578619000,5.213618896484375,-0.3961820602416992,-0.2821601927280426,-0.14799483120441437
1783696043588583000,5.2235830078125,-0.38719481229782104,-0.24151530861854553,-0.1421869397163391
1783696043598546000,5.2335458984375,-0.3721884489059448,-0.22315707802772522,-0.1182219535112381
1783696043608510000,5.243510009765625,-0.3530021607875824,-0.21049237251281738,-0.07199323177337646
1783696043618474000,5.253473876953125,-0.3325355052947998,-0.19372831284999847,-0.022406769916415215
1783696043628438000,5.26343798828125,-0.30970561504364014,-0.1713491827249527,0.025516200810670853
1783696043638401000,5.273401123046875,-0.27896448969841003,-0.1429566890001297,0.059577763080596924
1783696043648365000,5.283364990234375,-0.25033271312713623,-0.11205149441957474,0.07694084942340851
1783696043658329000,5.2933291015625,-0.22049733996391296,-0.06829522550106049,0.08590371906757355
1783696043668292000,5.3032919921875,-0.19546961784362793,-0.02754931151866913,0.09289662539958954
1783696043678256000,5.313256103515625,-0.17684480547904968,-0.0015134491259232163,0.09610892832279205
1783696043688220000,5.323219970703125,-0.1642579883337021,0.005897043272852898,0.10357779264450073
1783696043698184000,5.333183837890625,-0.1570671796798706,-0.0011142604053020477,0.12541517615318298
1783696043708147000,5.34314697265625,-0.15532366931438446,-0.008693947456777096,0.16552026569843292
1783696043718111000,5.353111083984375,-0.1498125195503235,-0.0002261610934510827,0.22456786036491394
1783696043728075000,5.363074951171875,-0.14078965783119202,0.027906160801649094,0.28913670778274536
1783696043738038000,5.3730380859375,-0.1317804455757141,0.0672152116894722,0.34487664699554443
1783696043748002000,5.383001953125,-0.11864441633224487,0.12475566565990448,0.3850071430206299
1783696043757966000,5.392966064453125,-0.10303056985139847,0.19887222349643707,0.39751601219177246
1783696043767930000,5.40293017578125,-0.078868068754673,0.2307347059249878,0.379172146320343
1783696043777893000,5.41289306640625,-0.06577757000923157,0.16740792989730835,0.3361474573612213
1783696043787857200,5.422857177734375,-0.08443830162286758,0.04486594721674919,0.28969305753707886
1783696043797821000,5.432821044921875,-0.11886738240718842,-0.024619119241833687,0.23634569346904755
1783696043807784200,5.4427841796875,-0.1423160433769226,-0.04385773465037346,0.18394125998020172
1783696043817748000,5.452748046875,-0.17233678698539734,-0.048043958842754364,0.14265747368335724
1783696043827712000,5.4627119140625,-0.2197147160768509,-0.06810630857944489,0.12655682861804962
1783696043837676000,5.472676025390625,-0.260408878326416,-0.06847675144672394,0.14524875581264496
1783696043847639000,5.48263916015625,-0.26561808586120605,-0.027809813618659973,0.1839817762374878
1783696043857603000,5.49260302734375,-0.24058330059051514,0.020398462191224098,0.22056613862514496
1783696043867567000,5.502567138671875,-0.20434610545635223,0.04044370353221893,0.22986967861652374
1783696043877530000,5.512530029296875,-0.16992715001106262,0.024458613246679306,0.20952153205871582
1783696043887494100,5.522494140625,-0.15019544959068298,0.0010926688555628061,0.16759313642978668
1783696043897458200,5.532458251953125,-0.1442270427942276,-0.003851489629596472,0.12380596250295639
1783696043907422000,5.542421875,-0.15798921883106232,0.013392445631325245,0.08382672071456909
1783696043917385200,5.55238525390625,-0.17679886519908905,0.05538250505924225,0.05988810211420059
1783696043927349000,5.562348876953125,-0.190464586019516,0.09664227813482285,0.038371067494153976
1783696043937313000,5.57231298828125,-0.19149309396743774,0.11417067050933838,0.0315171554684639
1783696043947276000,5.582276123046875,-0.171318918466568,0.14413875341415405,0.05039968714118004
1783696043957240000,5.592239990234375,-0.1376006305217743,0.18490056693553925,0.08176106959581375
1783696043967204000,5.6022041015625,-0.09156826883554459,0.20687030255794525,0.11255671828985214
1783696043977168100,5.612168212890625,-0.04142094403505325,0.2072993516921997,0.12291508167982101
1783696043987131100,5.622131103515625,0.0006345577421598136,0.17124724388122559,0.11340504884719849
1783696043997095200,5.63209521484375,0.03606019169092178,0.08662369847297668,0.08186336606740952
1783696044007059200,5.64205908203125,0.06593471765518188,-0.023500824347138405,0.050737082958221436
1783696044017022000,5.65202197265625,0.08069156110286713,-0.12647435069084167,0.025227194651961327
1783696044026986000,5.661986083984375,0.08773321658372879,-0.19796006381511688,0.008189993910491467
1783696044036950000,5.671949951171875,0.09604467451572418,-0.24531692266464233,-0.0051140934228897095
1783696044046914000,5.6819140625,0.09934680908918381,-0.2697446644306183,-0.022623443976044655
1783696044056876800,5.691876708984375,0.09935959428548813,-0.296066552400589,-0.05201568827033043
1783696044066840800,5.7018408203125,0.09839385747909546,-0.33349117636680603,-0.09333327412605286
1783696044076805000,5.71180517578125,0.09031462669372559,-0.37085798382759094,-0.14214235544204712
1783696044086767900,5.721767822265625,0.07401232421398163,-0.41581884026527405,-0.20310065150260925
1783696044096732000,5.73173193359375,0.04715168476104736,-0.4599492847919464,-0.2740454077720642
1783696044106696000,5.741696044921875,0.019163619726896286,-0.4666649103164673,-0.34263235330581665
1783696044116660200,5.75166015625,-0.008409949950873852,-0.4148981273174286,-0.39312082529067993
1783696044126623000,5.761623046875,-0.015285621397197247,-0.3025677502155304,-0.4199109971523285
1783696044136587000,5.7715869140625,-0.008067389018833637,-0.15448108315467834,-0.43389660120010376
1783696044146550800,5.78155078125,0.0036924935411661863,-0.04534459486603737,-0.45070120692253113
1783696044156514000,5.79151416015625,0.03228552266955376,0.027702447026968002,-0.4451442360877991
1783696044166477800,5.801477783203125,0.06338585168123245,0.09386501461267471,-0.3958800733089447
1783696044176441900,5.81144189453125,0.0777946189045906,0.1163167953491211,-0.31660470366477966
1783696044186406000,5.821406005859375,0.08225338160991669,0.09038463979959488,-0.22174927592277527
1783696044196369000,5.831368896484375,0.072804756462574,0.037425559014081955,-0.12814395129680634
1783696044206333000,5.8413330078125,0.051651448011398315,-0.02668362855911255,-0.05231571942567825
1783696044216297000,5.851296875,0.01911773905158043,-0.09204772114753723,-0.014157149940729141
1783696044226260000,5.861260009765625,-0.008262953720986843,-0.14542418718338013,-0.013588751666247845
1783696044236224000,5.87122412109375,-0.03368229418992996,-0.17726680636405945,-0.03392171859741211
1783696044246187800,5.881187744140625,-0.05648691579699516,-0.17954403162002563,-0.06454713642597198
1783696044256151600,5.891151611328125,-0.07349520176649094,-0.15580354630947113,-0.09596551209688187
1783696044266114800,5.90111474609375,-0.08005496114492416,-0.11981215327978134,-0.124507836997509
1783696044276078600,5.91107861328125,-0.0834888368844986,-0.08479690551757812,-0.13866360485553741
1783696044286042600,5.921042724609375,-0.08385613560676575,-0.05685090273618698,-0.1317771077156067
1783696044296005600,5.931005615234375,-0.08493445068597794,-0.03933848813176155,-0.11357519030570984
1783696044305969700,5.9409697265625,-0.09035199880599976,-0.04670436307787895,-0.09663228690624237
1783696044315933700,5.95093359375,-0.10084778815507889,-0.06941872835159302,-0.08531918376684189
1783696044325897700,5.960897705078125,-0.11884095519781113,-0.0978505089879036,-0.07656313478946686
1783696044335860700,5.97086083984375,-0.134586900472641,-0.11857949197292328,-0.07273350656032562
1783696044345824800,5.98082470703125,-0.14877794682979584,-0.1288542002439499,-0.06603039056062698
1783696044355788800,5.990788818359375,-0.16345462203025818,-0.12494388222694397,-0.06096985191106796
1783696044365751800,6.000751708984375,-0.1765463948249817,-0.0845680832862854,-0.049438998103141785
1783696044375715800,6.0107158203125,-0.18637053668498993,-0.01728917844593525,-0.0377487875521183
1783696044385679600,6.0206796875,-0.19287307560443878,0.052229829132556915,-0.043368831276893616
1783696044395643600,6.0306435546875,-0.1910480111837387,0.1151595264673233,-0.06329832971096039
1783696044405606700,6.040606689453125,-0.1759367436170578,0.15975292026996613,-0.09445326775312424
1783696044415570700,6.05057080078125,-0.16217726469039917,0.17255181074142456,-0.12683650851249695
1783696044425534700,6.06053466796875,-0.14762280881404877,0.1482686549425125,-0.14847053587436676
1783696044435497700,6.070497802734375,-0.1383611261844635,0.11870834976434708,-0.15291881561279297
1783696044445461800,6.080461669921875,-0.13496147096157074,0.09379097819328308,-0.13923490047454834
1783696044455425800,6.09042578125,-0.13657376170158386,0.060317713767290115,-0.12301066517829895
1783696044465389800,6.100389892578125,-0.13650836050510406,0.02950885146856308,-0.10472430288791656
1783696044475352800,6.110352783203125,-0.13991667330265045,-0.006069649010896683,-0.07993293553590775
1783696044485316900,6.12031689453125,-0.13962893187999725,-0.04603375867009163,-0.051065098494291306
1783696044495280600,6.13028076171875,-0.13384801149368286,-0.09665459394454956,-0.012733422219753265
1783696044505244000,6.140243896484375,-0.13393406569957733,-0.14407387375831604,0.040510062128305435
1783696044515207700,6.150207763671875,-0.1268836110830307,-0.17893971502780914,0.09184196591377258
1783696044525171700,6.160171630859375,-0.0983167365193367,-0.1768123209476471,0.1331547051668167
1783696044535135700,6.1701357421875,-0.07074955850839615,-0.20417258143424988,0.1366085559129715
1783696044545098800,6.1800986328125,-0.06498566269874573,-0.2557354271411896,0.10816889256238937
1783696044555062800,6.190062744140625,-0.07048135995864868,-0.21249154210090637,0.08221825212240219
1783696044565026800,6.20002685546875,-0.07065454870462418,-0.12456531077623367,0.060817573219537735
1783696044574990800,6.209990966796875,-0.07194005697965622,-0.05184610188007355,0.027006348595023155
1783696044584953900,6.219953857421875,-0.08733054995536804,-0.0048894877545535564,-0.024538015946745872
1783696044594918000,6.22991796875,-0.09009943902492523,0.05794300138950348,-0.07319663465023041
1783696044604881700,6.239881591796875,-0.07484453916549683,0.17147541046142578,-0.09712609648704529
1783696044614844700,6.2498447265625,-0.05566098913550377,0.25980180501937866,-0.11502387374639511
1783696044624808700,6.25980859375,-0.033742308616638184,0.2686714828014374,-0.13975852727890015
1783696044634772700,6.269772705078125,-0.01603441871702671,0.22593441605567932,-0.15722887217998505
1783696044644736800,6.27973681640625,-0.0037988757248967886,0.15880891680717468,-0.16165366768836975
1783696044654699800,6.28969970703125,-0.0010875114239752293,0.08276742696762085,-0.14389170706272125
1783696044664663800,6.299663818359375,-0.022697389125823975,-0.015774428844451904,-0.11728587746620178
1783696044674627800,6.3096279296875,-0.05812195688486099,-0.13126027584075928,-0.07579755783081055
1783696044684590800,6.3195908203125,-0.08085016906261444,-0.19949623942375183,-0.007914218120276928
1783696044694555000,6.329554931640625,-0.07674197852611542,-0.22189049422740936,0.07843025773763657
1783696044704519000,6.339518798828125,-0.06497959047555923,-0.22521758079528809,0.15869900584220886
1783696044714482700,6.349482666015625,-0.04230277240276337,-0.2181660681962967,0.20625905692577362
1783696044724445700,6.35944580078125,-0.0023771601263433695,-0.19255800545215607,0.22342868149280548
1783696044734409700,6.36940966796875,0.03953487053513527,-0.1489330232143402,0.22499141097068787
1783696044744373800,6.379373779296875,0.08022846281528473,-0.10045861452817917,0.21096539497375488
1783696044754336500,6.38933642578125,0.1060321033000946,-0.05551217868924141,0.19685277342796326
1783696044764300800,6.39930078125,0.10766349732875824,-0.023195315152406693,0.18314920365810394
1783696044774264800,6.409264892578125,0.09095456451177597,-0.006681319326162338,0.17359405755996704
1783696044784228900,6.419228759765625,0.0623692087829113,-0.016615845263004303,0.1692127138376236
1783696044794191600,6.429191650390625,0.02643837220966816,-0.05033412575721741,0.16653196513652802
1783696044804156000,6.439156005859375,-0.006012244615703821,-0.10020734369754791,0.1567370444536209
1783696044814120000,6.449119873046875,-0.04950885474681854,-0.16238416731357574,0.13491801917552948
1783696044824082700,6.459082763671875,-0.09536494314670563,-0.21162238717079163,0.08913754671812057
1783696044834046700,6.469046630859375,-0.1359027773141861,-0.23236948251724243,0.021943330764770508
1783696044844010800,6.4790107421875,-0.16724438965320587,-0.2131696492433548,-0.06413701176643372
1783696044853974800,6.488974853515625,-0.18962693214416504,-0.1568155735731125,-0.15656600892543793
1783696044863937500,6.4989375,-0.19732911884784698,-0.07875818759202957,-0.24916589260101318
1783696044873901600,6.508901611328125,-0.19434744119644165,0.002969697117805481,-0.33103492856025696
1783696044883865600,6.518865478515625,-0.1811092495918274,0.08047311753034592,-0.3863465189933777
1783696044893830000,6.528829833984375,-0.16412948071956635,0.14107388257980347,-0.4041004776954651
1783696044903792600,6.538792724609375,-0.1485435962677002,0.1760510355234146,-0.3821925222873688
1783696044913756700,6.548756591796875,-0.13370339572429657,0.18824246525764465,-0.32829520106315613
1783696044923720700,6.558720703125,-0.1184319257736206,0.16669254004955292,-0.25964874029159546
1783696044933683700,6.56868359375,-0.10984376072883606,0.11124607175588608,-0.18604376912117004
1783696044943647700,6.578647705078125,-0.10600488632917404,0.030895285308361053,-0.11673098057508469
1783696044953611500,6.588611572265625,-0.10707920789718628,-0.062111351639032364,-0.05609985813498497
1783696044963575600,6.598575439453125,-0.11116697639226913,-0.13556203246116638,-0.010641882196068764
1783696044973538600,6.60853857421875,-0.12047312408685684,-0.1792282909154892,0.022195959463715553
1783696044983502600,6.618502685546875,-0.12286611646413803,-0.18976032733917236,0.046934112906455994
1783696044993466600,6.628466552734375,-0.1250554919242859,-0.17622029781341553,0.055967554450035095
1783696045003429600,6.6384296875,-0.12392710894346237,-0.1496405154466629,0.04689326137304306
1783696045013393700,6.6483935546875,-0.11970706284046173,-0.11780083924531937,0.017624592408537865
1783696045023357700,6.658357666015625,-0.12095990031957626,-0.09540150314569473,-0.020379461348056793
1783696045033321700,6.66832177734375,-0.12760688364505768,-0.07239019125699997,-0.05122978612780571
1783696045043284700,6.67828466796875,-0.14088240265846252,-0.04460233449935913,-0.06789526343345642
1783696045053248800,6.688248779296875,-0.15683233737945557,-0.006501556374132633,-0.06498789042234421
1783696045063212500,6.698212646484375,-0.17538195848464966,0.03220168128609657,-0.04663221538066864
1783696045073176600,6.708176513671875,-0.19001390039920807,0.0740940049290657,-0.023894408717751503
1783696045083139600,6.7181396484375,-0.1977931708097458,0.12432332336902618,0.0008034254424273968
1783696045093103600,6.728103515625,-0.18702813982963562,0.16914112865924835,0.021493524312973022
1783696045103067600,6.738067626953125,-0.1574505865573883,0.1954430490732193,0.03401773050427437
1783696045113030700,6.74803076171875,-0.12151708453893661,0.21366627514362335,0.039716627448797226
1783696045122994700,6.75799462890625,-0.07979261130094528,0.2227279245853424,0.046101849526166916
1783696045132958700,6.767958740234375,-0.03717270866036415,0.22861510515213013,0.04951096326112747
1783696045142922800,6.7779228515625,0.004883307497948408,0.23010794818401337,0.052787166088819504
1783696045152885800,6.7878857421875,0.04069829359650612,0.2343655377626419,0.06141474097967148
1783696045162849800,6.797849853515625,0.08001667261123657,0.23953275382518768,0.08609539270401001
1783696045172813600,6.8078134765625,0.11893584579229355,0.24693767726421356,0.11850499361753464
1783696045182776600,6.817776611328125,0.15671266615390778,0.23496535420417786,0.1525556743144989
1783696045192740600,6.82774072265625,0.20923179388046265,0.22642140090465546,0.188882514834404
1783696045202704600,6.83770458984375,0.27635085582733154,0.20839399099349976,0.21483014523983002
1783696045212668700,6.847668701171875,0.33700329065322876,0.0843769758939743,0.1997782289981842
1783696045222631700,6.857631591796875,0.351995587348938,-0.11454279720783234,0.1617124378681183
1783696045232595700,6.867595703125,0.3190978169441223,-0.2554943263530731,0.13898129761219025
1783696045242559700,6.877559814453125,0.2745421826839447,-0.30193114280700684,0.12488696724176407
1783696045252524000,6.88752392578125,0.23127619922161102,-0.22779086232185364,0.13281705975532532
1783696045262488000,6.897488037109375,0.19881436228752136,-0.04813073202967644,0.1774061620235443
1783696045272452000,6.9074521484375,0.20037417113780975,0.1853262186050415,0.25107479095458984
1783696045282416000,6.917416015625,0.22646497189998627,0.3475111722946167,0.3415308892726898
1783696045292379100,6.927379150390625,0.24355155229568481,0.4141775369644165,0.3974583148956299
1783696045302343200,6.93734326171875,0.28748005628585815,0.38814806938171387,0.3788597881793976
1783696045312307200,6.94730712890625,0.35248544812202454,0.35300740599632263,0.30504655838012695
1783696045322271200,6.957271240234375,0.3891889452934265,0.31349143385887146,0.189186230301857
1783696045332234200,6.967234130859375,0.39201828837394714,0.23843690752983093,0.05529819801449776
1783696045342198000,6.977197998046875,0.3768973648548126,0.167415589094162,-0.06310319900512695
1783696045352162000,6.987162109375,0.34863752126693726,0.14030221104621887,-0.13766664266586304
1783696045362125000,6.997125,0.3363743722438812,0.17134329676628113,-0.1613607108592987
1783696045372089000,7.007089111328125,0.3464299440383911,0.23466235399246216,-0.1504896879196167
1783696045382053000,7.01705322265625,0.38050854206085205,0.2756345570087433,-0.1171964481472969
1783696045392017200,7.02701708984375,0.41784924268722534,0.2905293405056,-0.060640763491392136
1783696045401980200,7.036980224609375,0.4621948301792145,0.2679039537906647,0.01074276864528656
1783696045411944200,7.046944091796875,0.5131198167800903,0.2623555362224579,0.08871293812990189
1783696045421908200,7.056908203125,0.5663290023803711,0.2914089858531952,0.153127983212471
1783696045431871200,7.066871337890625,0.6171746253967285,0.35693100094795227,0.1912066638469696
1783696045441835300,7.076835205078125,0.6634320020675659,0.4112696051597595,0.18881025910377502
1783696045451799000,7.086799072265625,0.7003852128982544,0.4466233253479004,0.15139231085777283
1783696045461763000,7.09676318359375,0.7349488139152527,0.45295101404190063,0.10438060015439987
1783696045471726000,7.10672607421875,0.7595548033714294,0.43527692556381226,0.06405128538608551
1783696045481690000,7.116690185546875,0.7730327844619751,0.3908413052558899,0.04191472381353378
1783696045491654100,7.126654052734375,0.7763582468032837,0.3074188530445099,0.045051127672195435
1783696045501617200,7.1366171875,0.7781028747558594,0.19785355031490326,0.07190820574760437
1783696045511581200,7.146581298828125,0.7753403782844543,0.06710352748632431,0.10916769504547119
1783696045521545200,7.156545166015625,0.7714931964874268,-0.07139059901237488,0.14042340219020844
1783696045531509200,7.16650927734375,0.7637601494789124,-0.20892421901226044,0.14714469015598297
1783696045541472300,7.17647216796875,0.7411891222000122,-0.31904616951942444,0.12192840874195099
1783696045551436300,7.186436279296875,0.7003822922706604,-0.37301114201545715,0.0745353251695633
1783696045561400000,7.196400146484375,0.6456072330474854,-0.35754692554473877,0.0012103825574740767
1783696045571363000,7.206363037109375,0.5830700993537903,-0.3010258674621582,-0.08723239600658417
1783696045581327000,7.2163271484375,0.5317330956459045,-0.1982446163892746,-0.1683187335729599
1783696045591291100,7.226291015625,0.49436017870903015,-0.04263744875788689,-0.2202913910150528
1783696045601255200,7.236255126953125,0.48049628734588623,0.13258177042007446,-0.24424704909324646
1783696045611218000,7.246218017578125,0.4819037914276123,0.27247360348701477,-0.24034711718559265
1783696045621182200,7.25618212890625,0.4887024164199829,0.36746594309806824,-0.2215336710214615
1783696045631146200,7.266146240234375,0.4920057952404022,0.41613680124282837,-0.18891766667366028
1783696045641110300,7.2761103515625,0.4796096682548523,0.4134135842323303,-0.1541275680065155
1783696045651073000,7.286072998046875,0.44802191853523254,0.3680325150489807,-0.12212275713682175
1783696045661037000,7.296037109375,0.3926290273666382,0.2975260317325592,-0.09812816232442856
1783696045671001000,7.3060009765625,0.3277408480644226,0.22844922542572021,-0.1016608476638794
1783696045680964000,7.315964111328125,0.2662917375564575,0.17465339601039886,-0.12440428882837296
1783696045690927900,7.325927978515625,0.20807795226573944,0.13157330453395844,-0.160796657204628
1783696045700892000,7.335891845703125,0.1557273417711258,0.07162447273731232,-0.19280356168746948
1783696045710856200,7.345856201171875,0.1074729785323143,0.002650732407346368,-0.2143317610025406
1783696045720819000,7.35581884765625,0.060966040939092636,-0.07204567641019821,-0.2169896811246872
1783696045730783000,7.365782958984375,0.023692704737186432,-0.14145830273628235,-0.20142030715942383
1783696045740747000,7.3757470703125,-0.003906382247805595,-0.17816218733787537,-0.16987568140029907
1783696045750711300,7.385711181640625,-0.029764344915747643,-0.186314657330513,-0.13336294889450073
1783696045760674000,7.395674072265625,-0.059436433017253876,-0.1865292489528656,-0.10243432968854904
1783696045770638000,7.40563818359375,-0.09573585540056229,-0.17411333322525024,-0.08180096000432968
1783696045780601900,7.415601806640625,-0.13627804815769196,-0.15189889073371887,-0.07598099112510681
1783696045790565000,7.425565185546875,-0.17616315186023712,-0.12720179557800293,-0.08110252022743225
1783696045800529000,7.43552880859375,-0.21849647164344788,-0.1138753890991211,-0.08827603608369827
1783696045810493000,7.445492919921875,-0.2624298632144928,-0.12455413490533829,-0.09194027632474899
1783696045820457000,7.45545703125,-0.3040992021560669,-0.14988650381565094,-0.08933873474597931
1783696045830420000,7.465419921875,-0.34124627709388733,-0.17532475292682648,-0.07837476581335068
1783696045840384000,7.475384033203125,-0.37705984711647034,-0.19525380432605743,-0.04780975729227066
1783696045850348000,7.48534814453125,-0.4056427478790283,-0.21393294632434845,-0.00560291251167655
1783696045860311000,7.49531103515625,-0.4218282103538513,-0.22215820848941803,0.0362786203622818
1783696045870275000,7.505275146484375,-0.44103145599365234,-0.22337792813777924,0.07648516446352005
1783696045880239000,7.515239013671875,-0.4516734182834625,-0.2266150861978531,0.10872254520654678
1783696045890203000,7.525202880859375,-0.45624181628227234,-0.22516685724258423,0.1359959840774536
1783696045900166100,7.535166259765625,-0.4520953893661499,-0.2272680103778839,0.15927131474018097
1783696045910130000,7.5451298828125,-0.44071251153945923,-0.261403888463974,0.1656130999326706
1783696045920094000,7.555093994140625,-0.44025903940200806,-0.3370288610458374,0.15426525473594666
1783696045930058000,7.56505810546875,-0.4655201733112335,-0.40668782591819763,0.1332574486732483
1783696045940021000,7.57502099609375,-0.499393105506897,-0.41757798194885254,0.11309929192066193
1783696045949985000,7.584985107421875,-0.5353835821151733,-0.39718297123908997,0.08749432861804962
1783696045959949000,7.594948974609375,-0.5814871191978455,-0.37271827459335327,0.05549711361527443
1783696045969912000,7.604912109375,-0.6218438148498535,-0.32732975482940674,0.030488435178995132
1783696045979876000,7.6148759765625,-0.6442537307739258,-0.26482242345809937,0.023872584104537964
1783696045989840100,7.624840087890625,-0.6492292881011963,-0.20966142416000366,0.03198936581611633
1783696045999804000,7.634803955078125,-0.6464846730232239,-0.19005310535430908,0.04725780338048935
1783696046009767200,7.64476708984375,-0.6414885520935059,-0.20101787149906158,0.05670510232448578
1783696046019731000,7.65473095703125,-0.6497030258178711,-0.23720546066761017,0.047993313521146774
1783696046029695000,7.664695068359375,-0.6710304021835327,-0.2929328978061676,0.012330389581620693
1783696046039659000,7.674658935546875,-0.7088378667831421,-0.3409557640552521,-0.03385377302765846
1783696046049622000,7.6846220703125,-0.7575729489326477,-0.3792709410190582,-0.08501283824443817
1783696046059586000,7.6945859375,-0.804103672504425,-0.4171440005302429,-0.1317547708749771
1783696046069550000,7.704550048828125,-0.84744793176651,-0.44686755537986755,-0.16566213965415955
1783696046079513000,7.71451318359375,-0.8786909580230713,-0.4769744575023651,-0.18353579938411713
1783696046089477000,7.72447705078125,-0.9009392261505127,-0.5146605372428894,-0.17903877794742584
1783696046099441200,7.734441162109375,-0.9133120775222778,-0.5650822520256042,-0.15531080961227417
1783696046109405000,7.744405029296875,-0.9252699613571167,-0.6156183481216431,-0.11660842597484589
1783696046119368200,7.7543681640625,-0.9419066309928894,-0.6613005995750427,-0.07836385816335678
1783696046129332000,7.76433203125,-0.9663986563682556,-0.6870632171630859,-0.04314861074090004
1783696046139296000,7.7742958984375,-0.9962759017944336,-0.6946970224380493,-0.028000153601169586
1783696046149259000,7.784259033203125,-1.0339229106903076,-0.705636203289032,-0.03327321261167526
1783696046159223000,7.79422314453125,-1.0670232772827148,-0.7211204767227173,-0.03847726434469223
1783696046169187000,7.80418701171875,-1.0913912057876587,-0.7131219506263733,-0.019413558766245842
1783696046179151000,7.814151123046875,-1.1055794954299927,-0.7022461295127869,0.019713202491402626
1783696046189114000,7.824114013671875,-1.1105215549468994,-0.6932260394096375,0.07352983206510544
1783696046199078100,7.834078125,-1.1129618883132935,-0.6751446723937988,0.1272704154253006
1783696046209042200,7.844042236328125,-1.1113262176513672,-0.6740109324455261,0.1704152226448059
1783696046219006000,7.854005859375,-1.1124913692474365,-0.7072468400001526,0.1838000863790512
1783696046228969200,7.86396923828125,-1.1225810050964355,-0.7559384703636169,0.16830848157405853
1783696046238933000,7.87393310546875,-1.138708233833313,-0.8135856986045837,0.13278159499168396
1783696046248895500,7.8838955078125,-1.1554845571517944,-0.872876763343811,0.08535096049308777
1783696046258858500,7.8938583984375,-1.1710680723190308,-0.9231476783752441,0.03168373554944992
1783696046268822500,7.903822509765625,-1.1822549104690552,-0.9515156745910645,-0.028449906036257744
1783696046278786300,7.913786376953125,-1.194326639175415,-0.9476997256278992,-0.09446695446968079
1783696046288750300,7.923750244140625,-1.2217705249786377,-0.9136351943016052,-0.16509611904621124
1783696046298713300,7.93371337890625,-1.242985725402832,-0.8683691024780273,-0.22240865230560303
1783696046308677400,7.943677490234375,-1.265243649482727,-0.8214130401611328,-0.24919471144676208
1783696046318641400,7.953641357421875,-1.2958446741104126,-0.7824936509132385,-0.2485657036304474
1783696046328605400,7.96360546875,-1.3282524347305298,-0.7652139663696289,-0.22689956426620483
1783696046338568400,7.973568359375,-1.3489933013916016,-0.7740064263343811,-0.1922294646501541
1783696046348532500,7.983532470703125,-1.3651323318481445,-0.7875840067863464,-0.15599529445171356
1783696046358496500,7.99349658203125,-1.3801733255386353,-0.8141220808029175,-0.11901059001684189
1783696046368459500,8.00345947265625,-1.4030754566192627,-0.8874138593673706,-0.09286074340343475
1783696046378423600,8.013423583984375,-1.4145246744155884,-0.9574394226074219,-0.06791926175355911
1783696046388387300,8.02338720703125,-1.416790246963501,-0.9774016737937927,-0.04269486293196678
1783696046398351400,8.033351318359376,-1.4212212562561035,-0.9827309846878052,-0.024302296340465546
1783696046408314400,8.043314453125,-1.4244937896728516,-0.9862362742424011,-0.00967541616410017
1783696046418278400,8.0532783203125,-1.4143688678741455,-0.979586660861969,-0.011349854059517384
1783696046428242400,8.063242431640624,-1.3997441530227661,-0.9581863284111023,-0.029553623870015144
1783696046438206500,8.07320654296875,-1.3777642250061035,-0.9277892708778381,-0.062425825744867325
1783696046448169500,8.08316943359375,-1.34260892868042,-0.8955761790275574,-0.10484171658754349
1783696046458133500,8.093133544921875,-1.2978566884994507,-0.8471957445144653,-0.1445871889591217
1783696046468097500,8.10309765625,-1.2621945142745972,-0.7989197969436646,-0.17642581462860107
1783696046478060500,8.113060546875,-1.2375966310501099,-0.7514517903327942,-0.20350420475006104
1783696046488024600,8.123024658203125,-1.2208735942840576,-0.7049066424369812,-0.21157224476337433
1783696046497988400,8.13298828125,-1.2108739614486694,-0.663263201713562,-0.20639438927173615
1783696046507952400,8.142952392578126,-1.2048296928405762,-0.6326909065246582,-0.1852313131093979
1783696046517915400,8.152915283203125,-1.1877715587615967,-0.6063044667243958,-0.14463236927986145
1783696046527879400,8.16287939453125,-1.1669000387191772,-0.5827250480651855,-0.08509552478790283
1783696046537843500,8.172843505859374,-1.1438448429107666,-0.5750325918197632,-0.00766531890258193
1783696046547807500,8.182807373046876,-1.1245646476745605,-0.572719931602478,0.07657898962497711
1783696046557770500,8.1927705078125,-1.1006981134414673,-0.5790289044380188,0.1539216935634613
1783696046567734500,8.202734619140625,-1.0759632587432861,-0.6064951419830322,0.217118501663208
1783696046577698600,8.212698486328126,-1.0671937465667725,-0.6535835266113281,0.2668290138244629
1783696046587661600,8.22266162109375,-1.062958836555481,-0.7065660357475281,0.30180591344833374
1783696046597625600,8.23262548828125,-1.0439993143081665,-0.7291361093521118,0.32768216729164124
1783696046607589400,8.24258935546875,-1.0380250215530396,-0.7237793803215027,0.33852866291999817
1783696046617553400,8.252553466796876,-1.0357930660247803,-0.7209190130233765,0.31275835633277893
1783696046627516400,8.262516357421875,-1.0211528539657593,-0.7358172535896301,0.26095640659332275
1783696046637480400,8.27248046875,-1.0004745721817017,-0.7525466680526733,0.19843685626983643
1783696046647444500,8.282444580078124,-1.0001366138458252,-0.7531253695487976,0.12377698719501495
1783696046657408500,8.292408447265625,-1.0234695672988892,-0.7660978436470032,0.041036225855350494
1783696046667371500,8.30237158203125,-1.0459401607513428,-0.7662432193756104,-0.030132757499814034
1783696046677335600,8.31233544921875,-1.0771921873092651,-0.7528712749481201,-0.0834452211856842
1783696046687299600,8.322299560546876,-1.093768835067749,-0.7598511576652527,-0.10541683435440063
1783696046697262600,8.3322626953125,-1.096569299697876,-0.7285655736923218,-0.10402533411979675
1783696046707226600,8.3422265625,-1.0904173851013184,-0.6626347899436951,-0.07702486217021942
1783696046717190400,8.3521904296875,-1.0796836614608765,-0.5686887502670288,-0.011739744804799557
1783696046727154400,8.362154541015625,-1.0450836420059204,-0.4652555584907532,0.06547115743160248
1783696046737117400,8.372117431640625,-0.9930335283279419,-0.37523019313812256,0.14089824259281158
1783696046747081500,8.38208154296875,-0.9304092526435852,-0.2914727032184601,0.22244717180728912
1783696046757045500,8.39204541015625,-0.8930360078811646,-0.2113528996706009,0.2957673668861389
1783696046767008500,8.402008544921875,-0.8623175024986267,-0.1726611703634262,0.337379515171051
1783696046776972500,8.41197265625,-0.8434440493583679,-0.19184288382530212,0.3377625048160553
1783696046786936600,8.4219365234375,-0.827684223651886,-0.24419823288917542,0.3096030354499817
1783696046796900600,8.431900634765626,-0.8173280358314514,-0.27591246366500854,0.2887648642063141
1783696046806863600,8.441863525390625,-0.803693413734436,-0.2922714650630951,0.29665929079055786
1783696046816827600,8.45182763671875,-0.8063626885414124,-0.29835209250450134,0.3307809829711914
1783696046826791400,8.46179150390625,-0.8098646998405457,-0.3397618532180786,0.3677437901496887
1783696046836755500,8.47175537109375,-0.8179743885993958,-0.4172559976577759,0.39803576469421387
1783696046846718500,8.481718505859375,-0.8240125775337219,-0.48179343342781067,0.4156768023967743
1783696046856682500,8.4916826171875,-0.8447184562683105,-0.513023316860199,0.4128265678882599
1783696046866646500,8.501646484375,-0.8604865074157715,-0.5191605687141418,0.3709483742713928
1783696046876609500,8.511609619140625,-0.86978679895401,-0.5125175714492798,0.28576475381851196
1783696046886573600,8.521573486328125,-0.8576382398605347,-0.48186320066452026,0.17003045976161957
1783696046896537600,8.53153759765625,-0.841725766658783,-0.44309619069099426,0.049838852137327194
1783696046906501600,8.541501708984375,-0.808617889881134,-0.40010637044906616,-0.053966373205184937
1783696046916464600,8.551464599609375,-0.7570117712020874,-0.3625212013721466,-0.12536035478115082
1783696046926428700,8.5614287109375,-0.6907486319541931,-0.33042478561401367,-0.15030404925346375
1783696046936392400,8.571392333984376,-0.6135879755020142,-0.28179216384887695,-0.13459938764572144
1783696046946355500,8.58135546875,-0.5533124208450317,-0.27299708127975464,-0.09045402705669403
1783696046956319500,8.591319580078125,-0.49196285009384155,-0.2988579571247101,-0.04993876442313194
1783696046966283500,8.601283447265626,-0.43736138939857483,-0.34652695059776306,-0.01033223420381546
1783696046976247600,8.61124755859375,-0.40410974621772766,-0.41888126730918884,0.02436894364655018
1783696046986210300,8.621210205078125,-0.3909912705421448,-0.4868592321872711,0.06092216074466705
1783696046996174600,8.631174560546874,-0.39764633774757385,-0.5448163151741028,0.09857941418886185
1783696047006138600,8.641138671875,-0.42154526710510254,-0.5732490420341492,0.12365786731243134
1783696047016102700,8.6511025390625,-0.4608440399169922,-0.6029888391494751,0.12126851081848145
1783696047026065400,8.6610654296875,-0.511078417301178,-0.6111815571784973,0.0865909531712532
1783696047036029700,8.67102978515625,-0.5592858195304871,-0.645093560218811,0.03456198051571846
1783696047045993500,8.680993408203125,-0.6178069114685059,-0.6561741828918457,-0.01587110012769699
1783696047055956500,8.69095654296875,-0.6753400564193726,-0.6536338925361633,-0.0682244822382927
1783696047065920300,8.700920166015624,-0.7199721932411194,-0.6533403992652893,-0.12359852343797684
1783696047075884300,8.71088427734375,-0.7730942964553833,-0.6094884872436523,-0.18370208144187927
1783696047085848600,8.7208486328125,-0.8094951510429382,-0.551897406578064,-0.23313434422016144
1783696047095811300,8.730811279296875,-0.8424652814865112,-0.43965500593185425,-0.27239537239074707
1783696047105775400,8.740775390625,-0.8671354651451111,-0.33516401052474976,-0.2971787750720978
1783696047115739400,8.750739501953126,-0.8868257999420166,-0.2411813586950302,-0.3161199390888214
1783696047125703700,8.76070361328125,-0.8916967511177063,-0.18866275250911713,-0.3232542872428894
1783696047135666400,8.77066650390625,-0.893149197101593,-0.17194078862667084,-0.297122061252594
1783696047145630500,8.78063037109375,-0.8947598338127136,-0.17676083743572235,-0.24136345088481903
1783696047155594200,8.79059423828125,-0.9017050862312317,-0.17866143584251404,-0.17139846086502075
1783696047165558500,8.80055859375,-0.904005765914917,-0.19933955371379852,-0.10420556366443634
1783696047175521300,8.810521240234374,-0.9209451675415039,-0.25195807218551636,-0.04775997996330261
1783696047185485300,8.8204853515625,-0.9560525417327881,-0.3463972210884094,-0.00892603024840355
1783696047195449300,8.830449462890625,-0.9959942102432251,-0.4454021751880646,0.021404443308711052
1783696047205412400,8.840412353515624,-1.0438708066940308,-0.535743236541748,0.03602652996778488
1783696047215376400,8.85037646484375,-1.0904968976974487,-0.6471351385116577,0.03350196033716202
1783696047225340400,8.86034033203125,-1.1230216026306152,-0.7607669234275818,0.021948369219899178
1783696047235304400,8.870304443359375,-1.1515201330184937,-0.8386140465736389,0.010468494147062302
1783696047245267500,8.880267333984374,-1.169588327407837,-0.8747773766517639,-0.01192975603044033
1783696047255231000,8.89023095703125,-1.185486078262329,-0.8670850396156311,-0.039340320974588394
1783696047265195000,8.900195068359375,-1.2081170082092285,-0.8474228978157043,-0.07279468327760696
1783696047275158800,8.91015869140625,-1.2338985204696655,-0.8262314200401306,-0.11450356245040894
1783696047285121800,8.920121826171876,-1.2671626806259155,-0.8214377164840698,-0.14131972193717957
1783696047295085800,8.9300859375,-1.311557650566101,-0.8127133250236511,-0.14672918617725372
1783696047305049900,8.9400498046875,-1.3592114448547363,-0.8159434795379639,-0.11516378819942474
1783696047315012900,8.950012939453124,-1.3898276090621948,-0.8143391609191895,-0.06586689502000809
1783696047324977000,8.959976806640626,-1.400202751159668,-0.8167868852615356,-0.015347794629633427
1783696047334941000,8.96994091796875,-1.4103702306747437,-0.8167253136634827,0.05232422426342964
1783696047344905000,8.979905029296875,-1.4372156858444214,-0.8285614848136902,0.12057144939899445
1783696047354868000,8.989867919921876,-1.4479867219924927,-0.8512682914733887,0.18083564937114716
1783696047364832000,8.99983203125,-1.4566049575805664,-0.892349898815155,0.21771058440208435
1783696047374796000,9.009796142578125,-1.467856764793396,-0.9415037631988525,0.2215736210346222
1783696047384759800,9.019759765625,-1.4740707874298096,-0.9481714963912964,0.19914500415325165
1783696047394722800,9.029722900390626,-1.4837474822998047,-0.900175929069519,0.17576126754283905
1783696047404686800,9.039686767578125,-1.4879279136657715,-0.8204872608184814,0.136167511343956
1783696047414651000,9.04965087890625,-1.4887032508850098,-0.7468529939651489,0.08679991215467453
1783696047424614000,9.05961376953125,-1.4949076175689697,-0.7216852903366089,0.023162344470620155
1783696047434578000,9.069577880859375,-1.5114246606826782,-0.721821665763855,-0.052161384373903275
1783696047444542000,9.0795419921875,-1.5180459022521973,-0.6999017000198364,-0.11253044754266739
1783696047454506000,9.089506103515625,-1.5194787979125977,-0.6554328799247742,-0.14353571832180023
1783696047464469000,9.099468994140626,-1.522292137145996,-0.5983911752700806,-0.138360396027565
1783696047474433000,9.10943310546875,-1.5254325866699219,-0.5433188676834106,-0.08990887552499771
1783696047484397000,9.11939697265625,-1.5228146314620972,-0.47787564992904663,-0.02327125519514084
1783696047494360800,9.12936083984375,-1.513959288597107,-0.4263940751552582,0.047129273414611816
1783696047504323800,9.13932373046875,-1.5013610124588013,-0.42071834206581116,0.10591935366392136
1783696047514287900,9.149287841796875,-1.4806822538375854,-0.4683922529220581,0.16311798989772797
1783696047524252000,9.159251953125,-1.4643850326538086,-0.5587003231048584,0.21737723052501678
1783696047534215000,9.16921484375,-1.4357311725616455,-0.6656962037086487,0.2569586932659149
1783696047544179000,9.179178955078125,-1.4058082103729248,-0.7666395902633667,0.2755499482154846
1783696047554143000,9.18914306640625,-1.3854048252105713,-0.8731926679611206,0.26458075642585754
1783696047564107000,9.19910693359375,-1.3870187997817993,-0.9799843430519104,0.23595018684864044
1783696047574070000,9.209070068359376,-1.400485634803772,-1.050946831703186,0.18466447293758392
1783696047584034000,9.219033935546875,-1.4184130430221558,-1.0885546207427979,0.12133529782295227
1783696047593998000,9.228998046875,-1.4342548847198486,-1.1135350465774536,0.061807792633771896
1783696047603961900,9.2389619140625,-1.4459093809127808,-1.1331090927124023,0.02157089114189148
1783696047613924900,9.2489248046875,-1.4610625505447388,-1.1320563554763794,0.015360246412456036
1783696047623889000,9.258888916015625,-1.4722659587860107,-1.1067163944244385,0.03124813176691532
1783696047633853000,9.26885302734375,-1.4880313873291016,-1.0647556781768799,0.06372961401939392
1783696047643816000,9.27881591796875,-1.4918978214263916,-1.001099705696106,0.09402813017368317
1783696047653780000,9.288780029296875,-1.494335651397705,-0.9482948780059814,0.13002102077007294
1783696047663744000,9.298743896484375,-1.5084240436553955,-0.9189052581787109,0.2119763344526291
1783696047673708000,9.3087080078125,-1.50767183303833,-1.0171809196472168,0.2438611090183258
1783696047683671000,9.318671142578125,-1.5075680017471313,-1.1082897186279297,0.2571215331554413
1783696047693635000,9.328635009765625,-1.5308393239974976,-1.1593742370605469,0.26057183742523193
1783696047703599000,9.33859912109375,-1.5697046518325806,-1.1468243598937988,0.2295827716588974
1783696047713563000,9.34856298828125,-1.6075540781021118,-1.073479413986206,0.17857590317726135
1783696047723526000,9.35852587890625,-1.621964693069458,-0.9555524587631226,0.13929881155490875
