time,seconds_elapsed,z,y,x
1783696070882363600,0.06136376953125,-0.4833822548389435,-0.005263170227408409,-0.003223943756893277
1783696070892327400,0.071327392578125,-0.5028917193412781,0.049818262457847595,0.021727845072746277
1783696070902290700,0.081290771484375,-0.5180211067199707,0.0727989450097084,0.0633234903216362
1783696070912254500,0.09125439453125,-0.5172535181045532,0.059024568647146225,0.11066754162311554
1783696070922218500,0.101218505859375,-0.4911276698112488,0.0276970062404871,0.13515236973762512
1783696070932181500,0.111181396484375,-0.44472599029541016,-0.0003085378557443619,0.1380828619003296
1783696070942145500,0.1211455078125,-0.3981150686740875,-0.010559044778347015,0.12401764839887619
1783696070952109600,0.131109619140625,-0.3604101836681366,-0.013399633578956127,0.09188496321439743
1783696070962072600,0.141072509765625,-0.3367519974708557,-0.014370888471603394,0.04296775907278061
1783696070972036600,0.15103662109375,-0.3262903690338135,-0.01619713380932808,-0.008583812043070793
1783696070981999400,0.160999267578125,-0.3309197425842285,-0.026295041665434837,-0.054567284882068634
1783696070991963600,0.170963623046875,-0.34827110171318054,-0.03904645889997482,-0.07070202380418777
1783696071001927700,0.180927734375,-0.36436325311660767,-0.049282319843769073,-0.05682668834924698
1783696071011890400,0.190890380859375,-0.37389540672302246,-0.08334292471408844,-0.02538079023361206
1783696071021854500,0.2008544921875,-0.36810487508773804,-0.13976599276065826,0.007902862504124641
1783696071031818800,0.21081884765625,-0.3442574441432953,-0.201719269156456,0.028463708236813545
1783696071041781500,0.220781494140625,-0.3101053237915039,-0.24230477213859558,0.034662749618291855
1783696071051745500,0.23074560546875,-0.273526668548584,-0.26314571499824524,0.03174705058336258
1783696071061708500,0.24070849609375,-0.23269402980804443,-0.26918336749076843,0.02742261067032814
1783696071071672300,0.25067236328125,-0.20590555667877197,-0.26198944449424744,0.03535310924053192
1783696071081636400,0.26063623046875,-0.18492916226387024,-0.26092419028282166,0.060038480907678604
1783696071091599400,0.270599365234375,-0.15636293590068817,-0.26108527183532715,0.09949755668640137
1783696071101563400,0.2805634765625,-0.13207224011421204,-0.28574639558792114,0.1527402698993683
1783696071111527400,0.29052734375,-0.11382802575826645,-0.3171447515487671,0.2029869556427002
1783696071121490400,0.300490478515625,-0.08559931814670563,-0.33246511220932007,0.24483053386211395
1783696071131454500,0.310454345703125,-0.046994898468256,-0.3386213481426239,0.2717526853084564
1783696071141418500,0.32041845703125,-0.009150315076112747,-0.3635770380496979,0.27218863368034363
1783696071151381500,0.330381591796875,0.01803569495677948,-0.38567230105400085,0.24604614078998566
1783696071161345500,0.340345458984375,0.029497673735022545,-0.36943528056144714,0.20029570162296295
1783696071171308500,0.35030859375,0.026296623051166534,-0.3165154755115509,0.14786694943904877
1783696071181272600,0.3602724609375,0.012526214122772217,-0.2607637941837311,0.09507083892822266
1783696071191236600,0.370236572265625,-0.0071417102590203285,-0.19335205852985382,0.041616518050432205
1783696071201199600,0.38019970703125,-0.019650312140583992,-0.09196577966213226,0.02660827338695526
1783696071211163600,0.39016357421875,-0.022204222157597542,-0.0020009768195450306,0.05083288997411728
1783696071221127400,0.40012744140625,0.0035690509248524904,0.04807710275053978,0.097299724817276
1783696071231090400,0.41009033203125,0.05534190684556961,0.05216928943991661,0.16424256563186646
1783696071241054500,0.420054443359375,0.10917851328849792,0.046175844967365265,0.21301676332950592
1783696071251017500,0.430017578125,0.16767776012420654,0.008887863717973232,0.22898134589195251
1783696071260981500,0.4399814453125,0.20344534516334534,-0.0567563958466053,0.23312629759311676
1783696071270945500,0.449945556640625,0.19772914052009583,-0.09954273700714111,0.21957559883594513
1783696071280908500,0.459908447265625,0.17940819263458252,-0.14597362279891968,0.1886938512325287
1783696071290872600,0.46987255859375,0.16656970977783203,-0.1911572813987732,0.16369566321372986
1783696071300836600,0.479836669921875,0.13129933178424835,-0.17335164546966553,0.13713382184505463
1783696071310799600,0.489799560546875,0.13239316642284393,-0.14832599461078644,0.11489491909742355
1783696071320763600,0.499763671875,0.1264878809452057,-0.15117743611335754,0.07576802372932434
1783696071330727700,0.509727783203125,0.12155063450336456,-0.1792360246181488,0.028689593076705933
1783696071340690700,0.519690673828125,0.1301390677690506,-0.18765054643154144,-0.004954120609909296
1783696071350654700,0.52965478515625,0.12041959166526794,-0.1545274704694748,-0.04015764966607094
1783696071360617700,0.53961767578125,0.11540219187736511,-0.07309067249298096,-0.0761697068810463
1783696071370581500,0.54958154296875,0.14577840268611908,0.008862366899847984,-0.0877528265118599
1783696071380545500,0.559545654296875,0.1545652449131012,0.14156848192214966,-0.08555571734905243
1783696071390508500,0.569508544921875,0.14705702662467957,0.17770516872406006,-0.06978277117013931
1783696071400472600,0.57947265625,0.14239384233951569,0.1697649508714676,-0.03791112080216408
1783696071410436600,0.5894365234375,0.1364428997039795,0.19847998023033142,0.005876355338841677
1783696071420399600,0.599399658203125,0.12055449187755585,0.24637587368488312,0.05704207345843315
1783696071430363600,0.60936376953125,0.10683117806911469,0.3225215971469879,0.09901963174343109
1783696071440326700,0.61932666015625,0.1026095375418663,0.4095126688480377,0.11796322464942932
1783696071450290700,0.629290771484375,0.14311690628528595,0.4956064522266388,0.10893703997135162
1783696071460254700,0.639254638671875,0.19349698722362518,0.5217595100402832,0.05838251858949661
1783696071470217700,0.6492177734375,0.257428914308548,0.5378299951553345,-0.013410751707851887
1783696071480181800,0.659181640625,0.28980815410614014,0.6054338216781616,-0.11870202422142029
1783696071490145800,0.669145751953125,0.2168024182319641,0.687909722328186,-0.26424404978752136
1783696071500108500,0.679108642578125,0.16558502614498138,0.6383996605873108,-0.41397523880004883
1783696071510072800,0.68907275390625,0.16024036705493927,0.48735570907592773,-0.5548504590988159
1783696071520036600,0.69903662109375,0.13688924908638,0.37548401951789856,-0.6687179207801819
1783696071529999600,0.70899951171875,0.06481703370809555,0.2987746298313141,-0.7501907348632812
1783696071539963400,0.71896337890625,-0.0062142652459442616,0.22841764986515045,-0.7942546010017395
1783696071549926400,0.728926513671875,-0.05423019453883171,0.15495525300502777,-0.8065868020057678
1783696071559890400,0.738890380859375,-0.07124166935682297,0.06978576630353928,-0.7946438193321228
1783696071569854500,0.7488544921875,-0.06961044669151306,0.011592970229685307,-0.7423969507217407
1783696071579817500,0.7588173828125,-0.06549133360385895,-0.012899589724838734,-0.667063295841217
1783696071589781500,0.768781494140625,-0.046333231031894684,-0.025978587567806244,-0.5783976912498474
1783696071599745500,0.77874560546875,-0.017096253111958504,-0.03517341613769531,-0.48395583033561707
1783696071609708500,0.78870849609375,0.02299385890364647,-0.044298719614744186,-0.39590170979499817
1783696071619672600,0.798672607421875,0.06534796953201294,-0.05949791148304939,-0.32436999678611755
1783696071629635600,0.808635498046875,0.11166340857744217,-0.10004151612520218,-0.27308759093284607
1783696071639599600,0.818599609375,0.14404398202896118,-0.1598273515701294,-0.23435376584529877
1783696071649563600,0.828563720703125,0.1569095402956009,-0.15508589148521423,-0.2618650496006012
1783696071659526700,0.838526611328125,0.15899346768856049,-0.23630325496196747,-0.25651076436042786
1783696071669490700,0.84849072265625,0.16352401673793793,-0.2599804401397705,-0.22153255343437195
1783696071679454500,0.858454345703125,0.13790413737297058,-0.25314196944236755,-0.1846807897090912
1783696071689417700,0.868417724609375,0.11800019443035126,-0.26114916801452637,-0.15581610798835754
1783696071699381500,0.878381591796875,0.1111111268401146,-0.2554452121257782,-0.13323889672756195
1783696071709344500,0.888344482421875,0.09752428531646729,-0.2331210970878601,-0.10428345203399658
1783696071719308500,0.89830859375,0.08752890676259995,-0.20953720808029175,-0.06991828233003616
1783696071729272600,0.9082724609375,0.09024683386087418,-0.1747235357761383,-0.026292461901903152
1783696071739235600,0.918235595703125,0.07734275609254837,-0.10827953368425369,0.0028318678960204124
1783696071749199600,0.92819970703125,0.06266529858112335,-0.08225849270820618,-0.009115082211792469
1783696071759163600,0.93816357421875,0.0635201707482338,-0.06880207359790802,-0.04784596711397171
1783696071769126700,0.948126708984375,0.06968487054109573,-0.01876142993569374,-0.10248685628175735
1783696071779090700,0.958090576171875,0.08626731485128403,0.0655428022146225,-0.1423804759979248
1783696071789053700,0.9680537109375,0.0985325425863266,0.1624235212802887,-0.16505371034145355
1783696071799017700,0.978017822265625,0.11725936830043793,0.21404436230659485,-0.1717614084482193
1783696071808981800,0.987981689453125,0.13352914154529572,0.22566792368888855,-0.1514831781387329
1783696071818944800,0.99794482421875,0.14189812541007996,0.21293136477470398,-0.10618413984775543
1783696071828908800,1.00790869140625,0.15012797713279724,0.19634142518043518,-0.040286820381879807
1783696071838872600,1.01787255859375,0.1529402732849121,0.15359263122081757,0.029385467991232872
1783696071848835600,1.027835693359375,0.15334250032901764,0.08718346804380417,0.09522807598114014
1783696071858799600,1.037799560546875,0.16230936348438263,0.031149227172136307,0.1566687971353531
1783696071868762400,1.047762451171875,0.18205930292606354,0.012120071798563004,0.21020783483982086
1783696071878726400,1.057726318359375,0.20929917693138123,0.03261496126651764,0.25377899408340454
1783696071888690700,1.067690673828125,0.24265342950820923,0.07433852553367615,0.28335821628570557
1783696071898653400,1.0776533203125,0.28229111433029175,0.11496398597955704,0.3090824782848358
1783696071908617500,1.087617431640625,0.3170272707939148,0.1609821915626526,0.3285919725894928
1783696071918581500,1.09758154296875,0.35237887501716614,0.2144472748041153,0.35507631301879883
1783696071928544500,1.10754443359375,0.382713258266449,0.27878159284591675,0.39596641063690186
1783696071938508500,1.117508544921875,0.41522806882858276,0.36915943026542664,0.44550201296806335
1783696071948471600,1.127471435546875,0.45953384041786194,0.4380922019481659,0.495607852935791
1783696071958435600,1.137435546875,0.47011804580688477,0.4135405123233795,0.5245332717895508
1783696071968399600,1.147399658203125,0.45618483424186707,0.3442184031009674,0.5397698879241943
1783696071978362600,1.157362548828125,0.4373895525932312,0.26272088289260864,0.5425931215286255
1783696071988326700,1.16732666015625,0.4053689241409302,0.1590476930141449,0.5209957361221313
1783696071998290400,1.17729052734375,0.37000346183776855,0.06464635580778122,0.4929353594779968
1783696072008253700,1.187253662109375,0.33544060587882996,-0.010995322838425636,0.47360071539878845
1783696072018217500,1.197217529296875,0.2972373068332672,-0.025261078029870987,0.4562044143676758
1783696072028180500,1.207180419921875,0.27286678552627563,0.0012415118981152773,0.43415555357933044
1783696072038144500,1.21714453125,0.2606916129589081,0.04658102989196777,0.4057782292366028
1783696072048108500,1.227108642578125,0.25840261578559875,0.11155542731285095,0.3730244040489197
1783696072058071600,1.237071533203125,0.2610900104045868,0.16888342797756195,0.3370403051376343
1783696072068035600,1.24703564453125,0.27689504623413086,0.2059508115053177,0.2999941408634186
1783696072077999600,1.25699951171875,0.29497233033180237,0.21346226334571838,0.2633455693721771
1783696072087962600,1.266962646484375,0.3021579682826996,0.19191627204418182,0.22717006504535675
1783696072097926700,1.2769267578125,0.2967304587364197,0.15910719335079193,0.1760711818933487
1783696072107889700,1.2868896484375,0.28982779383659363,0.12397605180740356,0.10349459201097488
1783696072117853700,1.296853759765625,0.2908778786659241,0.12194113433361053,0.03018682263791561
1783696072127817700,1.306817626953125,0.295181542634964,0.15845903754234314,-0.03385299816727638
1783696072137780700,1.31678076171875,0.2961826026439667,0.21643204987049103,-0.07504597306251526
1783696072147744800,1.326744873046875,0.3107190430164337,0.28311610221862793,-0.08595887571573257
1783696072157708500,1.33670849609375,0.3387208580970764,0.34555256366729736,-0.0644352063536644
1783696072167671800,1.346671875,0.3710203170776367,0.367449015378952,-0.01797720417380333
1783696072177635600,1.356635498046875,0.40836796164512634,0.3681797683238983,0.03106517344713211
1783696072187598600,1.3665986328125,0.4480908513069153,0.35236117243766785,0.07373034209012985
1783696072197562600,1.376562744140625,0.5039477348327637,0.32730722427368164,0.1094108447432518
1783696072207526700,1.386526611328125,0.5523610711097717,0.3276306390762329,0.11705517023801804
1783696072217489400,1.396489501953125,0.5964545011520386,0.26129448413848877,0.09452509880065918
1783696072227453700,1.40645361328125,0.6225846409797668,0.17586638033390045,0.05496996268630028
1783696072237417700,1.416417724609375,0.6329701542854309,0.06984727829694748,-0.0020957202650606632
1783696072247380500,1.42638037109375,0.6458364129066467,-0.00961047038435936,-0.06202055513858795
1783696072257344500,1.436344482421875,0.6514772772789001,-0.05714549869298935,-0.11295776814222336
1783696072267307500,1.4463076171875,0.655367910861969,-0.08650901168584824,-0.13971726596355438
1783696072277271800,1.456271728515625,0.6504671573638916,-0.11086921393871307,-0.15850293636322021
1783696072287235800,1.46623583984375,0.6391990184783936,-0.14027999341487885,-0.17399249970912933
1783696072297198800,1.47619873046875,0.6203073859214783,-0.17325632274150848,-0.18528883159160614
1783696072307163000,1.486162841796875,0.5948326587677002,-0.19634215533733368,-0.19231785833835602
1783696072317126000,1.4961259765625,0.5580559968948364,-0.21897156536579132,-0.20605364441871643
1783696072327089700,1.506089599609375,0.5177314877510071,-0.21749526262283325,-0.23083306849002838
1783696072337053700,1.5160537109375,0.48698028922080994,-0.18640124797821045,-0.2535620629787445
1783696072347016700,1.5260166015625,0.4545784294605255,-0.11301228404045105,-0.2808378040790558
1783696072356980700,1.535980712890625,0.44543659687042236,-0.01773769222199917,-0.30818021297454834
1783696072366944800,1.54594482421875,0.4568527042865753,0.10150181502103806,-0.3210228681564331
1783696072376907800,1.55590771484375,0.47458934783935547,0.2231840342283249,-0.32917773723602295
1783696072386871800,1.565871826171875,0.49285638332366943,0.33288997411727905,-0.3245192766189575
1783696072396834800,1.575834716796875,0.500204861164093,0.4145587384700775,-0.3094004988670349
1783696072406798800,1.585798828125,0.4933495819568634,0.44546034932136536,-0.28673940896987915
1783696072416763000,1.595762939453125,0.48324820399284363,0.46214693784713745,-0.24616186320781708
1783696072426726000,1.605725830078125,0.46608802676200867,0.46138349175453186,-0.20576857030391693
1783696072436690000,1.61568994140625,0.443309485912323,0.41923123598098755,-0.1890345960855484
1783696072446654000,1.625654052734375,0.41468286514282227,0.3181271553039551,-0.19681288301944733
1783696072456616700,1.63561669921875,0.3870682716369629,0.22326643764972687,-0.21661214530467987
1783696072466581000,1.6455810546875,0.36489492654800415,0.1486455500125885,-0.2473159283399582
1783696072476543700,1.655543701171875,0.34922489523887634,0.07872852683067322,-0.286577045917511
1783696072486507800,1.6655078125,0.3349890410900116,0.02740214206278324,-0.3211738169193268
1783696072496471600,1.675471435546875,0.3175991177558899,-0.013743164017796516,-0.34484854340553284
1783696072506434600,1.6854345703125,0.2961195409297943,-0.0448596328496933,-0.35306552052497864
1783696072516398600,1.695398681640625,0.2701457440853119,-0.07174717634916306,-0.3388271927833557
1783696072526362600,1.705362548828125,0.24048453569412231,-0.08175309002399445,-0.29909735918045044
1783696072536325600,1.71532568359375,0.22563768923282623,-0.0783706083893776,-0.2459593117237091
1783696072546289700,1.72528955078125,0.2129344493150711,-0.09458610415458679,-0.19094973802566528
1783696072556252700,1.735252685546875,0.20400753617286682,-0.10135985910892487,-0.13734909892082214
1783696072566216700,1.745216796875,0.19932541251182556,-0.09573375433683395,-0.09391133487224579
1783696072576180700,1.7551806640625,0.1870913803577423,-0.08575089275836945,-0.06069159507751465
1783696072586143700,1.765143798828125,0.16970627009868622,-0.07538560032844543,-0.03633059561252594
1783696072596107800,1.775107666015625,0.15515582263469696,-0.03727470338344574,-0.008108546026051044
1783696072606071800,1.78507177734375,0.15422604978084564,0.04667290300130844,0.035432569682598114
1783696072616034800,1.795034912109375,0.1499096006155014,0.1417941004037857,0.07143238186836243
1783696072625998800,1.804998779296875,0.16073518991470337,0.20605850219726562,0.09464604407548904
1783696072635961900,1.8149619140625,0.16858752071857452,0.2579115927219391,0.10497484356164932
1783696072645926000,1.82492578125,0.17721101641654968,0.28636282682418823,0.11398036777973175
1783696072655889700,1.8348896484375,0.1831333488225937,0.2918052673339844,0.11959484219551086
1783696072665852700,1.844852783203125,0.1894993633031845,0.277785062789917,0.1328776329755783
1783696072675816700,1.854816650390625,0.19419638812541962,0.2599741220474243,0.15574033558368683
1783696072685779700,1.86477978515625,0.19359059631824493,0.25572702288627625,0.19069720804691315
1783696072695743700,1.87474365234375,0.20001360774040222,0.26332902908325195,0.22081756591796875
1783696072705707800,1.884707763671875,0.21204786002635956,0.24627737700939178,0.22273452579975128
1783696072715670800,1.8946708984375,0.21742479503154755,0.1942988634109497,0.18887190520763397
1783696072725634800,1.904634765625,0.21123115718364716,0.14607872068881989,0.13425016403198242
1783696072735598800,1.914598876953125,0.19287532567977905,0.0999051034450531,0.06807326525449753
1783696072745561900,1.924561767578125,0.16082057356834412,0.07237670570611954,-0.0021327876020222902
1783696072755526000,1.93452587890625,0.11356278508901596,0.06959636509418488,-0.06211942806839943
1783696072765489000,1.944489013671875,0.056081146001815796,0.0791972279548645,-0.11275425553321838
1783696072775453000,1.954452880859375,0.007416407112032175,0.10260694473981857,-0.1558987945318222
1783696072785417000,1.9644169921875,-0.018304431810975075,0.15192639827728271,-0.1843406856060028
1783696072795380000,1.9743798828125,-0.018119074404239655,0.217338427901268,-0.19397678971290588
1783696072805343700,1.98434375,0.01018250547349453,0.28107085824012756,-0.19361001253128052
1783696072815306800,1.994306640625,0.05645333230495453,0.32972386479377747,-0.1811746507883072
1783696072825270500,2.0042705078125,0.1107175424695015,0.36759617924690247,-0.15843839943408966
1783696072835234600,2.014234619140625,0.1535899043083191,0.4036649763584137,-0.12681415677070618
1783696072845197600,2.024197509765625,0.1897607296705246,0.4316352903842926,-0.10317277163267136
1783696072855161600,2.03416162109375,0.21943047642707825,0.43014073371887207,-0.09446583688259125
1783696072865125600,2.044125732421875,0.22698843479156494,0.4032772183418274,-0.09678979218006134
1783696072875088600,2.054088623046875,0.21476133167743683,0.35210591554641724,-0.10308390855789185
1783696072885052700,2.064052734375,0.19712035357952118,0.2881941497325897,-0.10565190017223358
1783696072895015700,2.074015625,0.1755431592464447,0.21261335909366608,-0.09196751564741135
1783696072904979700,2.083979736328125,0.14776311814785004,0.12486264109611511,-0.051034558564424515
1783696072914943700,2.09394384765625,0.12509669363498688,0.03242858499288559,0.018277669325470924
1783696072924906800,2.10390673828125,0.1017780750989914,-0.05042863264679909,0.11443960666656494
1783696072934870800,2.113870849609375,0.06897538900375366,-0.12698732316493988,0.21923500299453735
1783696072944834800,2.123834716796875,0.03070768341422081,-0.19182275235652924,0.30556055903434753
1783696072954797800,2.1337978515625,-0.0071914950385689735,-0.23636066913604736,0.355770468711853
1783696072964761900,2.143761962890625,-0.03299034386873245,-0.22713951766490936,0.37262144684791565
1783696072974724900,2.153724853515625,-0.0504460334777832,-0.14080382883548737,0.3652048110961914
1783696072984688600,2.163688720703125,-0.054441358894109726,-0.022023623809218407,0.32824885845184326
1783696072994652700,2.173652587890625,-0.050707340240478516,0.08272462338209152,0.2684374451637268
1783696073004615700,2.18361572265625,-0.03362662345170975,0.1607658863067627,0.20449572801589966
1783696073014579700,2.193579833984375,-0.014056118205189705,0.21882759034633636,0.15599104762077332
1783696073024542700,2.203542724609375,0.008012431673705578,0.2645213007926941,0.1344500631093979
1783696073034506800,2.2135068359375,0.0221926998347044,0.296502947807312,0.13733907043933868
1783696073044470800,2.223470703125,0.032297782599925995,0.2837721109390259,0.15658360719680786
1783696073054433800,2.233433837890625,0.027042297646403313,0.20858684182167053,0.17961250245571136
1783696073064397800,2.243397705078125,0.012097969651222229,0.09481365978717804,0.20463448762893677
1783696073074361900,2.25336181640625,-0.009538349695503712,-0.025891181081533432,0.21856015920639038
1783696073084324900,2.263324951171875,-0.029086830094456673,-0.1272227019071579,0.21473270654678345
1783696073094289000,2.273288818359375,-0.04826851561665535,-0.20611166954040527,0.18403445184230804
1783696073104252000,2.283251953125,-0.06264853477478027,-0.25613048672676086,0.14483699202537537
1783696073114216000,2.2932158203125,-0.07415126264095306,-0.2630206346511841,0.09996006637811661
1783696073124180000,2.303179931640625,-0.07523908466100693,-0.2346772402524948,0.052254289388656616
1783696073134143000,2.31314306640625,-0.05576898157596588,-0.17125724256038666,0.008113990537822247
1783696073144106800,2.323106689453125,-0.02808769978582859,-0.10399986803531647,-0.03608096018433571
1783696073154070800,2.33307080078125,0.002348501468077302,-0.0298318974673748,-0.07020590454339981
1783696073164033500,2.343033447265625,0.032114025205373764,0.05530833080410957,-0.09214390814304352
1783696073173997600,2.35299755859375,0.05363130196928978,0.13358396291732788,-0.09400492906570435
1783696073183960600,2.362960693359375,0.05932769179344177,0.18200288712978363,-0.08264555782079697
1783696073193924600,2.372924560546875,0.056026969105005264,0.18954096734523773,-0.05491646006703377
1783696073203888600,2.382888671875,0.06358492374420166,0.1861337423324585,-0.012261360883712769
1783696073213851600,2.3928515625,0.0761510506272316,0.17634077370166779,0.04283171892166138
1783696073223815700,2.402815673828125,0.09936591237783432,0.1593572050333023,0.10307597368955612
1783696073233779700,2.41277978515625,0.11485245823860168,0.1288754642009735,0.15798316895961761
1783696073243742700,2.42274267578125,0.14680787920951843,0.11123700439929962,0.1968374103307724
1783696073253706800,2.432706787109375,0.1734357625246048,0.09860456734895706,0.2183043509721756
1783696073263669800,2.442669677734375,0.18730393052101135,0.08157267421483994,0.21844123303890228
1783696073273633800,2.4526337890625,0.18435446918010712,0.05633043870329857,0.20483700931072235
1783696073283598300,2.462598388671875,0.17746777832508087,0.050485774874687195,0.18499140441417694
1783696073293561300,2.472561279296875,0.17111560702323914,0.07122061401605606,0.15917019546031952
1783696073303525400,2.482525390625,0.1670331060886383,0.10517657548189163,0.12851302325725555
1783696073313488100,2.492488037109375,0.17227686941623688,0.13776753842830658,0.09433001279830933
1783696073323452200,2.5024521484375,0.18035995960235596,0.1718941330909729,0.06412278115749359
1783696073333416200,2.512416259765625,0.1947559416294098,0.20644758641719818,0.042664628475904465
1783696073343379200,2.522379150390625,0.21095959842205048,0.2297292947769165,0.028854984790086746
1783696073353343200,2.53234326171875,0.22684136033058167,0.22378751635551453,0.025489814579486847
1783696073363307300,2.542307373046875,0.24455676972866058,0.2079835832118988,0.039191875606775284
1783696073373270300,2.552270263671875,0.2686415910720825,0.18817873299121857,0.06635292619466782
1783696073383234300,2.562234375,0.29030174016952515,0.16995088756084442,0.09980455785989761
1783696073393197300,2.572197265625,0.3045286238193512,0.16556546092033386,0.12341028451919556
1783696073403161300,2.582161376953125,0.3194648027420044,0.18772079050540924,0.136078879237175
1783696073413125400,2.59212548828125,0.3333907425403595,0.2234383076429367,0.14660902321338654
1783696073423088400,2.60208837890625,0.3499043881893158,0.25923824310302734,0.1503095179796219
1783696073433052400,2.612052490234375,0.38560566306114197,0.35352852940559387,0.15922871232032776
1783696073443015400,2.622015380859375,0.42999905347824097,0.4431741237640381,0.1697569489479065
1783696073452979200,2.631979248046875,0.4869888126850128,0.4851303696632385,0.1695210039615631
1783696073462943200,2.641943115234375,0.5359781384468079,0.4359448254108429,0.15567484498023987
1783696073472906200,2.65190625,0.5619279742240906,0.34795451164245605,0.1383880078792572
1783696073482870300,2.661870361328125,0.5587460398674011,0.2672252058982849,0.12290332466363907
1783696073492834300,2.671834228515625,0.5285857319831848,0.20456953346729279,0.11546192318201065
1783696073502797300,2.68179736328125,0.4719443619251251,0.16313289105892181,0.11704128980636597
1783696073512761300,2.69176123046875,0.4175460934638977,0.1603941023349762,0.13608235120773315
1783696073522724400,2.701724365234375,0.39388641715049744,0.24129618704319,0.18975085020065308
1783696073532688400,2.7116884765625,0.3794318437576294,0.3177765905857086,0.2928679287433624
1783696073542652400,2.72165234375,0.3788650333881378,0.42250922322273254,0.40714699029922485
1783696073552615400,2.731615478515625,0.40323933959007263,0.5363167524337769,0.4932461977005005
1783696073562579500,2.741579345703125,0.42813044786453247,0.6605426669120789,0.5228782892227173
1783696073572543500,2.75154345703125,0.4573240280151367,0.7585640549659729,0.47627538442611694
1783696073582506500,2.761506591796875,0.47671815752983093,0.7970916032791138,0.3675626814365387
1783696073592470500,2.771470458984375,0.4788326919078827,0.7337757349014282,0.23132014274597168
1783696073602433500,2.78143359375,0.43965551257133484,0.5798681378364563,0.10008180886507034
1783696073612397300,2.791397216796875,0.38992950320243835,0.4122576117515564,0.006789413746446371
1783696073622361300,2.801361328125,0.3229050934314728,0.22456412017345428,-0.046744197607040405
1783696073632324400,2.811324462890625,0.2579495310783386,0.04774380475282669,-0.06528458744287491
1783696073642288400,2.821288330078125,0.21169413626194,-0.07606904208660126,-0.05864665284752846
1783696073652252400,2.83125244140625,0.18625694513320923,-0.12436892837285995,-0.04999377951025963
1783696073662215200,2.841215087890625,0.19807258248329163,-0.11105716973543167,-0.05237290635704994
1783696073672179500,2.851179443359375,0.24362541735172272,-0.0664135292172432,-0.06241542473435402
1783696073682142200,2.86114208984375,0.3201031982898712,0.023436954244971275,-0.0648379921913147
1783696073692106200,2.871106201171875,0.43771612644195557,0.1576557457447052,-0.05090699344873428
1783696073702070300,2.8810703125,0.5536559224128723,0.2686716914176941,-0.025560298934578896
1783696073712033300,2.891033203125,0.6370192766189575,0.3119443356990814,-0.009325137361884117
1783696073721997300,2.900997314453125,0.684163510799408,0.303060919046402,-0.006540358066558838
1783696073731960300,2.910960205078125,0.7047702074050903,0.29690369963645935,-0.01227361150085926
1783696073741924400,2.92092431640625,0.6961541771888733,0.26737990975379944,-0.029829198494553566
1783696073751888400,2.930888427734375,0.6779075264930725,0.20938453078269958,-0.05254090204834938
1783696073761851400,2.940851318359375,0.660567581653595,0.1461542695760727,-0.06960636377334595
1783696073771815400,2.9508154296875,0.6428058743476868,0.06344979256391525,-0.0884237289428711
1783696073781779200,2.960779296875,0.6223546266555786,-0.003251119051128626,-0.1082213819026947
1783696073791742200,2.9707421875,0.594836950302124,-0.04720046743750572,-0.13658298552036285
1783696073801706200,2.980706298828125,0.5742471814155579,-0.05488835647702217,-0.17833971977233887
1783696073811669200,2.990669189453125,0.5576980710029602,-0.03328585624694824,-0.23482456803321838
1783696073821633300,3.00063330078125,0.5416595935821533,0.024868711829185486,-0.28697532415390015
1783696073831597300,3.010597412109375,0.5315172076225281,0.11131145805120468,-0.33186477422714233
1783696073841560300,3.020560302734375,0.5350990891456604,0.20287950336933136,-0.36754271388053894
1783696073851524400,3.0305244140625,0.5525595545768738,0.29019469022750854,-0.3762054443359375
1783696073861488400,3.04048828125,0.5724838376045227,0.34035956859588623,-0.3533080518245697
1783696073871451400,3.050451416015625,0.6058671474456787,0.39451149106025696,-0.2961238622665405
1783696073881415400,3.06041552734375,0.655023455619812,0.4562761187553406,-0.21735140681266785
1783696073891378400,3.07037841796875,0.6967261433601379,0.49540194869041443,-0.13729119300842285
1783696073901342500,3.080342529296875,0.7255917191505432,0.49175140261650085,-0.06193508207798004
1783696073911306500,3.090306396484375,0.7495095729827881,0.48409268260002136,0.005129702389240265
1783696073921269500,3.10026953125,0.7669454216957092,0.49609336256980896,0.06257440894842148
1783696073931233300,3.1102333984375,0.7788026332855225,0.49513593316078186,0.10071886330842972
1783696073941196500,3.120196533203125,0.7822842001914978,0.4694727063179016,0.12340673804283142
1783696073951160300,3.130160400390625,0.7819424867630005,0.43084728717803955,0.1289977729320526
1783696073961124400,3.140124267578125,0.7778345942497253,0.39302071928977966,0.13099965453147888
1783696073971087400,3.15008740234375,0.7697601318359375,0.36330145597457886,0.1237766221165657
1783696073981051400,3.160051513671875,0.7553777694702148,0.3424818217754364,0.1148233488202095
1783696073991015400,3.170015380859375,0.7404957413673401,0.34060484170913696,0.10391637682914734
1783696074000978200,3.179978271484375,0.7303065657615662,0.36082923412323,0.10840443521738052
1783696074010942500,3.1899423828125,0.7173609733581543,0.39044544100761414,0.12312345951795578
1783696074020905200,3.1999052734375,0.7041985988616943,0.4007643461227417,0.14187392592430115
1783696074030869200,3.209869140625,0.6949387788772583,0.383518248796463,0.15922708809375763
1783696074040833300,3.219833251953125,0.6830683350563049,0.36158615350723267,0.17800554633140564
1783696074050796300,3.22979638671875,0.674842119216919,0.35275617241859436,0.18833968043327332
1783696074060760300,3.23976025390625,0.6681181788444519,0.35671329498291016,0.19510595500469208
1783696074070724400,3.249724365234375,0.6541035771369934,0.3445088267326355,0.1965525895357132
1783696074080687400,3.259687255859375,0.6499374508857727,0.3514567017555237,0.18952739238739014
1783696074090651400,3.2696513671875,0.6746038794517517,0.4226912260055542,0.1903468370437622
1783696074100614400,3.279614501953125,0.6896956562995911,0.5111796259880066,0.18961693346500397
1783696074110578200,3.289578125,0.7113961577415466,0.5790795683860779,0.1763237714767456
1783696074120542200,3.299542236328125,0.7482423186302185,0.6520042419433594,0.15260139107704163
1783696074130505200,3.309505126953125,0.7881553769111633,0.7119115591049194,0.10381920635700226
1783696074140469200,3.31946923828125,0.8083251118659973,0.7049615383148193,0.01841241493821144
1783696074150432300,3.329432373046875,0.8054632544517517,0.6437040567398071,-0.09716558456420898
1783696074160396300,3.339396240234375,0.7792605757713318,0.5794951915740967,-0.21091578900814056
1783696074170360300,3.3493603515625,0.7473873496055603,0.5437526106834412,-0.30244144797325134
1783696074180323300,3.3593232421875,0.7261807322502136,0.5310564041137695,-0.37015026807785034
1783696074190287400,3.369287353515625,0.731533944606781,0.5381947159767151,-0.40900763869285583
1783696074200251400,3.37925146484375,0.7670801877975464,0.561985969543457,-0.42027851939201355
1783696074210214400,3.38921435546875,0.8211783170700073,0.5709432363510132,-0.404107004404068
1783696074220178400,3.399178466796875,0.8934798240661621,0.5968896746635437,-0.36585772037506104
1783696074230141400,3.409141357421875,0.975737988948822,0.6152015924453735,-0.29991599917411804
1783696074240105500,3.41910546875,1.0457082986831665,0.6025877594947815,-0.21756869554519653
1783696074250069500,3.429069580078125,1.092375636100769,0.5416408181190491,-0.1287565380334854
1783696074260032500,3.439032470703125,1.1116749048233032,0.4553278386592865,-0.04304951801896095
1783696074269996300,3.448996337890625,1.1099106073379517,0.38639724254608154,0.04074764624238014
1783696074279958800,3.458958740234375,1.0922709703445435,0.34976476430892944,0.10384082049131393
1783696074289922800,3.4689228515625,1.05733323097229,0.3332664668560028,0.13968190550804138
1783696074299886600,3.478886474609375,1.0196151733398438,0.3346061706542969,0.14470739662647247
1783696074309849900,3.488849853515625,0.9835906028747559,0.3541465699672699,0.1192353293299675
1783696074319813600,3.498813720703125,0.9621540904045105,0.3564775884151459,0.07748199254274368
1783696074329777700,3.508777587890625,0.9577326774597168,0.32173824310302734,0.04945728927850723
1783696074339740700,3.51874072265625,0.968121349811554,0.2854156494140625,0.052619948983192444
1783696074349704700,3.52870458984375,0.9827050566673279,0.23600390553474426,0.07891067862510681
1783696074359667700,3.538667724609375,1.0034774541854858,0.16212467849254608,0.11770176887512207
1783696074369631700,3.5486318359375,1.0184822082519531,0.10925427824258804,0.158840149641037
1783696074379595800,3.558595703125,1.0323957204818726,0.11530151218175888,0.18126647174358368
1783696074389558800,3.568558837890625,1.0437532663345337,0.18222542107105255,0.1923883706331253
1783696074399522800,3.578522705078125,1.0409893989562988,0.29075634479522705,0.18328920006752014
1783696074409485800,3.58848583984375,1.028077244758606,0.40946248173713684,0.14589469134807587
1783696074419449900,3.598449951171875,1.0237681865692139,0.5280657410621643,0.08900615572929382
1783696074429414000,3.608413818359375,1.014926791191101,0.6270431876182556,0.017223304137587547
1783696074439377000,3.618376953125,1.000451922416687,0.6784312129020691,-0.05540122464299202
1783696074449341000,3.6283408203125,0.9869667291641235,0.6821947693824768,-0.12383168190717697
1783696074459304700,3.6383046875,0.9782060384750366,0.6542170643806458,-0.1731625199317932
1783696074469268000,3.64826806640625,0.9777845144271851,0.6173053979873657,-0.19967401027679443
1783696074479231700,3.658231689453125,0.9807354807853699,0.5830586552619934,-0.2047068327665329
1783696074489194800,3.66819482421875,0.9876711368560791,0.5526688098907471,-0.20395341515541077
1783696074499158800,3.67815869140625,0.9931021928787231,0.5177105665206909,-0.1984325796365738
1783696074509122800,3.688122802734375,0.9979813694953918,0.5002498030662537,-0.1863948255777359
1783696074519085600,3.69808544921875,1.0048151016235352,0.5109342932701111,-0.16360387206077576
1783696074529049900,3.7080498046875,1.0094910860061646,0.5579057931900024,-0.13821569085121155
1783696074539014000,3.718013916015625,1.0105541944503784,0.6119048595428467,-0.12068014591932297
1783696074548976600,3.7279765625,1.009345293045044,0.6740856766700745,-0.11011139303445816
1783696074558940700,3.737940673828125,1.0002259016036987,0.7435472011566162,-0.09954272210597992
1783696074568903700,3.747903564453125,0.9905878901481628,0.8020786643028259,-0.08918249607086182
1783696074578867700,3.75786767578125,0.9857524633407593,0.8333338499069214,-0.0757979154586792
1783696074588831700,3.767831787109375,0.977463960647583,0.8330976366996765,-0.053018033504486084
1783696074598794800,3.777794677734375,0.9744537472724915,0.8213290572166443,-0.018292533233761787
1783696074608758800,3.7877587890625,0.9719985723495483,0.8218814134597778,0.029091494157910347
1783696074618721800,3.7977216796875,0.9684349894523621,0.8157162070274353,0.06478210538625717
1783696074628685800,3.807685791015625,0.969398021697998,0.8114698529243469,0.076273113489151
1783696074638649600,3.817649658203125,0.971016526222229,0.8212596774101257,0.07134529948234558
1783696074648612900,3.82761279296875,0.9713819026947021,0.8441506028175354,0.045067086815834045
1783696074658576600,3.83757666015625,0.9811673164367676,0.860995352268219,0.001165734720416367
1783696074668539600,3.84753955078125,0.9964234828948975,0.8669872283935547,-0.05085831880569458
1783696074678503700,3.857503662109375,1.0206966400146484,0.8830015659332275,-0.09552544355392456
1783696074688467700,3.8674677734375,1.0520018339157104,0.9117045998573303,-0.1330411285161972
1783696074698430700,3.8774306640625,1.0899049043655396,0.9361234903335571,-0.16272450983524323
1783696074708394800,3.887394775390625,1.1342865228652954,0.9498329162597656,-0.1850402057170868
1783696074718358800,3.89735888671875,1.1802884340286255,0.9532760381698608,-0.19404692947864532
1783696074728321800,3.90732177734375,1.2262804508209229,0.9474780559539795,-0.18679620325565338
1783696074738285800,3.917285888671875,1.2717212438583374,0.922720193862915,-0.15285058319568634
1783696074748248800,3.927248779296875,1.3136844635009766,0.9059239029884338,-0.09523016959428787
1783696074758212900,3.937212890625,1.353118896484375,0.8976369500160217,-0.029163271188735962
1783696074768177000,3.947177001953125,1.397469162940979,0.8940363526344299,0.02843930572271347
1783696074778140000,3.957139892578125,1.4369670152664185,0.8760133385658264,0.07346859574317932
1783696074788104000,3.96710400390625,1.4729684591293335,0.8561943769454956,0.10123763978481293
1783696074798067700,3.977067626953125,1.5085182189941406,0.8562636971473694,0.11576502025127411
1783696074808030700,3.98703076171875,1.539672613143921,0.8502441644668579,0.12362826615571976
1783696074817994800,3.996994873046875,1.5705879926681519,0.8337214589118958,0.12599804997444153
1783696074827957800,4.006957763671875,1.596068024635315,0.8003422021865845,0.13299496471881866
1783696074837921800,4.016921875,1.6074005365371704,0.758215606212616,0.1432277113199234
1783696074847885800,4.0268857421875,1.6144474744796753,0.7489933371543884,0.16195398569107056
1783696074857848600,4.0368486328125,1.6233868598937988,0.7906445860862732,0.184983029961586
1783696074867812900,4.046812744140625,1.6361974477767944,0.8448028564453125,0.19623276591300964
1783696074877775600,4.056775634765625,1.6449570655822754,0.8863763213157654,0.18448340892791748
1783696074887739600,4.06673974609375,1.6449555158615112,0.9184754490852356,0.15533484518527985
1783696074897703700,4.07670361328125,1.6361546516418457,0.9395122528076172,0.09499118477106094
1783696074907666700,4.086666748046875,1.6179511547088623,0.9577053785324097,0.012351169250905514
1783696074917630700,4.096630615234375,1.5817420482635498,0.959165096282959,-0.08162782341241837
1783696074927593700,4.10659375,1.5366475582122803,0.9359822273254395,-0.16828948259353638
1783696074937557800,4.116557861328125,1.4870200157165527,0.910916805267334,-0.2269407957792282
1783696074947521800,4.126521728515625,1.4501054286956787,0.9034450054168701,-0.24708999693393707
1783696074957484800,4.13648486328125,1.4308195114135742,0.909953773021698,-0.2312975376844406
1783696074967448800,4.14644873046875,1.428755283355713,0.9257990717887878,-0.19433607161045074
1783696074977412600,4.15641259765625,1.437796950340271,0.9405579566955566,-0.1475062072277069
1783696074987375600,4.166375732421875,1.4536364078521729,0.9467631578445435,-0.1064692884683609
1783696074997339600,4.176339599609375,1.4714837074279785,0.9523910880088806,-0.06612380594015121
1783696075007302700,4.186302734375,1.4850754737854004,0.9733267426490784,-0.023679139092564583
1783696075017266700,4.1962666015625,1.498720645904541,1.0031137466430664,0.02426999993622303
1783696075027230700,4.206230712890625,1.5142842531204224,1.0248405933380127,0.07240770012140274
1783696075037193700,4.21619384765625,1.5263992547988892,1.037667989730835,0.10692606121301651
1783696075047157800,4.22615771484375,1.5351805686950684,1.0290603637695312,0.12975573539733887
1783696075057121800,4.236121826171875,1.53883957862854,1.0143376588821411,0.13351847231388092
1783696075067084800,4.246084716796875,1.5493770837783813,1.0182584524154663,0.12298114597797394
1783696075077048800,4.256048828125,1.5579818487167358,1.0389134883880615,0.10808750987052917
1783696075087011800,4.26601171875,1.555764079093933,1.0556973218917847,0.09608890116214752
1783696075096976000,4.275975830078125,1.549646019935608,1.0845110416412354,0.08462078124284744
1783696075106940000,4.28593994140625,1.5438021421432495,1.1015560626983643,0.06136605888605118
1783696075116903000,4.29590283203125,1.546078085899353,1.1249263286590576,0.030860494822263718
1783696075126867000,4.305866943359375,1.5590112209320068,1.1321601867675781,-0.004104414023458958
1783696075136830000,4.315829833984375,1.5746084451675415,1.1161423921585083,-0.03783462941646576
1783696075146793700,4.325793701171875,1.5915727615356445,1.0783931016921997,-0.06083235889673233
1783696075156757800,4.3357578125,1.6077690124511719,1.0286798477172852,-0.07898792624473572
1783696075166720800,4.345720703125,1.617453932762146,0.9684402942657471,-0.09624627977609634
1783696075176684800,4.355684814453125,1.609412670135498,0.9045559763908386,-0.11592243611812592
1783696075186647600,4.3656474609375,1.5912253856658936,0.8392254114151001,-0.12879349291324615
1783696075196611600,4.375611572265625,1.5654516220092773,0.7869895100593567,-0.14529778063297272
1783696075206575900,4.385575927734375,1.5333282947540283,0.7527164816856384,-0.15730677545070648
1783696075216538600,4.39553857421875,1.5032870769500732,0.7284864783287048,-0.17110463976860046
1783696075226502700,4.405502685546875,1.474001407623291,0.7232019305229187,-0.19281791150569916
1783696075236466700,4.415466796875,1.4461429119110107,0.721676766872406,-0.22962483763694763
1783696075246429700,4.4254296875,1.4187618494033813,0.7189467549324036,-0.28159427642822266
1783696075256393700,4.435393798828125,1.3905118703842163,0.7185566425323486,-0.33940181136131287
1783696075266356700,4.445356689453125,1.3528838157653809,0.7242118716239929,-0.40179914236068726
1783696075276320800,4.45532080078125,1.3119707107543945,0.7218009233474731,-0.45957842469215393
1783696075286285300,4.465285400390625,1.268679141998291,0.7204821109771729,-0.5191285014152527
1783696075296248300,4.475248291015625,1.2268853187561035,0.7279654145240784,-0.5730908513069153
1783696075306212400,4.48521240234375,1.1908018589019775,0.7516456842422485,-0.6163352131843567
1783696075316175400,4.49517529296875,1.1647636890411377,0.7767216563224792,-0.6361241936683655
1783696075326139400,4.505139404296875,1.1479160785675049,0.7933597564697266,-0.6302029490470886
1783696075336103400,4.515103515625,1.1353143453598022,0.769224226474762,-0.6056791543960571
1783696075346066400,4.52506640625,1.1386682987213135,0.7632654309272766,-0.5609196424484253
1783696075356030500,4.535030517578125,1.1455937623977661,0.7903448939323425,-0.5074684619903564
1783696075365993500,4.544993408203125,1.1400223970413208,0.8207398653030396,-0.4676182270050049
1783696075375957500,4.55495751953125,1.13442862033844,0.8242204189300537,-0.44562554359436035
1783696075385921500,4.564921630859375,1.1195639371871948,0.8145244121551514,-0.4331260025501251
1783696075395884300,4.57488427734375,1.1056822538375854,0.7962232232093811,-0.4104738235473633
1783696075405848600,4.5848486328125,1.0965420007705688,0.7674360275268555,-0.3683815002441406
1783696075415812600,4.5948125,1.094805121421814,0.7297983765602112,-0.3091195523738861
1783696075425775400,4.604775390625,1.0928207635879517,0.6903870701789856,-0.23729142546653748
1783696075435739400,4.614739501953125,1.0872728824615479,0.6529556512832642,-0.16973525285720825
1783696075445702400,4.624702392578125,1.085472583770752,0.6127621531486511,-0.10550114512443542
1783696075455666200,4.634666259765625,1.0759844779968262,0.5732632875442505,-0.050077300518751144
1783696075465630200,4.644630126953125,1.0675915479660034,0.5438864827156067,-0.0062243579886853695
1783696075475593200,4.65459326171875,1.0575058460235596,0.5199287533760071,0.03248859569430351
1783696075485557200,4.66455712890625,1.0388213396072388,0.470659464597702,0.06019319221377373
1783696075495520300,4.674520263671875,1.0164260864257812,0.40366843342781067,0.08996903896331787
1783696075505484300,4.684484375,0.9859872460365295,0.34141623973846436,0.12567484378814697
1783696075515448300,4.6944482421875,0.9496133923530579,0.28756240010261536,0.1657174974679947
1783696075525411300,4.704411376953125,0.9052081108093262,0.2539024353027344,0.20120598375797272
1783696075535375400,4.714375244140625,0.8526522517204285,0.24869100749492645,0.22286947071552277
1783696075545339400,4.72433935546875,0.8055766224861145,0.2786310613155365,0.2306102216243744
1783696075555302400,4.734302490234375,0.7558168768882751,0.3232141137123108,0.2189781218767166
1783696075565266400,4.744266357421875,0.7285317778587341,0.41423988342285156,0.19989605247974396
1783696075575229400,4.7542294921875,0.6990116834640503,0.5117046236991882,0.18558701872825623
1783696075585193500,4.764193359375,0.6774323582649231,0.576724112033844,0.16649028658866882
1783696075595157500,4.774157470703125,0.6633026003837585,0.6127656102180481,0.1604703813791275
1783696075605120500,4.78412060546875,0.6442596316337585,0.6303725838661194,0.1653444916009903
1783696075615084300,4.794084228515625,0.6194753646850586,0.6030279397964478,0.1747104972600937
1783696075625047600,4.804047607421875,0.5821647047996521,0.5443292260169983,0.19255314767360687
1783696075635011300,4.81401123046875,0.5255022048950195,0.45176708698272705,0.2319014072418213
1783696075644975400,4.823975341796875,0.5006210803985596,0.4132910668849945,0.28579097986221313
1783696075654938400,4.8339384765625,0.46720293164253235,0.40204158425331116,0.34555017948150635
1783696075664902400,4.84390234375,0.43267902731895447,0.3848080039024353,0.38564062118530273
1783696075674866400,4.853866455078125,0.41541844606399536,0.3693348169326782,0.38928893208503723
1783696075684829400,4.863829345703125,0.4105808138847351,0.37816157937049866,0.3633100688457489
1783696075694793500,4.87379345703125,0.39579111337661743,0.41709256172180176,0.2923785448074341
1783696075704756500,4.883756591796875,0.3657173812389374,0.48542848229408264,0.19712314009666443
1783696075714720500,4.893720458984375,0.3220043182373047,0.5763168931007385,0.10523712635040283
1783696075724684500,4.9036845703125,0.2689376473426819,0.6569350361824036,0.020357657223939896
1783696075734647300,4.913647216796875,0.23374757170677185,0.7152976393699646,-0.03848030045628548
1783696075744611600,4.923611572265625,0.2258230745792389,0.7615836262702942,-0.06566877663135529
1783696075754574300,4.93357421875,0.2459339052438736,0.7929201126098633,-0.06258628517389297
1783696075764538400,4.943538330078125,0.2778710424900055,0.7936689853668213,-0.045501042157411575
1783696075774502400,4.95350244140625,0.306960791349411,0.7602000832557678,-0.022266976535320282
1783696075784465400,4.96346533203125,0.326799213886261,0.7011045813560486,0.0032226715702563524
1783696075794429200,4.97342919921875,0.33076149225234985,0.6237508654594421,0.029673701152205467
1783696075804392400,4.983392333984375,0.31874531507492065,0.5456377267837524,0.05633673816919327
1783696075814356200,4.993356201171875,0.29650232195854187,0.46869274973869324,0.0746784657239914
1783696075824320300,5.0033203125,0.2784402072429657,0.3930935859680176,0.08213425427675247
1783696075834283300,5.013283203125,0.261130690574646,0.32285428047180176,0.08454418182373047
1783696075844247300,5.023247314453125,0.2492212951183319,0.2717948257923126,0.07630462944507599
1783696075854211300,5.03321142578125,0.2592213749885559,0.2322879284620285,0.06805287301540375
1783696075864174300,5.04317431640625,0.2855994403362274,0.19645695388317108,0.06625763326883316
1783696075874138400,5.053138427734375,0.3251589238643646,0.15427158772945404,0.07802996039390564
1783696075884101400,5.063101318359375,0.36891332268714905,0.13378708064556122,0.11310059577226639
1783696075894065400,5.0730654296875,0.4039534032344818,0.14493244886398315,0.16185638308525085
1783696075904029400,5.083029541015625,0.42950350046157837,0.16519005596637726,0.20765849947929382
1783696075913992400,5.092992431640625,0.436492383480072,0.18201416730880737,0.23734836280345917
1783696075923956500,5.10295654296875,0.4291769564151764,0.1902361512184143,0.24920262396335602
1783696075933919500,5.11291943359375,0.4042109251022339,0.19904038310050964,0.2296169400215149
1783696075943883500,5.122883544921875,0.3758178949356079,0.1956280767917633,0.17992714047431946
1783696075953847300,5.132847412109375,0.3461093604564667,0.1833394169807434,0.1280284821987152
1783696075963810600,5.142810546875,0.3180992901325226,0.16533592343330383,0.08971330523490906
1783696075973774300,5.1527744140625,0.2966281473636627,0.1580299288034439,0.08362208306789398
1783696075983737300,5.1627373046875,0.2854045331478119,0.170429065823555,0.1024961769580841
1783696075993701400,5.172701416015625,0.27911412715911865,0.18436864018440247,0.12725985050201416
1783696076003665400,5.18266552734375,0.2837323248386383,0.1872296780347824,0.14914438128471375
1783696076013628400,5.19262841796875,0.28320276737213135,0.20035851001739502,0.16081348061561584
1783696076023592400,5.202592529296875,0.27969589829444885,0.20432502031326294,0.1540037840604782
1783696076033556500,5.212556396484375,0.27718135714530945,0.1975472867488861,0.12936900556087494
1783696076043519500,5.22251953125,0.27407291531562805,0.2000567764043808,0.09866941720247269
1783696076053483500,5.2324833984375,0.27597129344940186,0.20352351665496826,0.062081146985292435
1783696076063446300,5.2424462890625,0.28381988406181335,0.20472939312458038,0.02708641067147255
1783696076073410300,5.252410400390625,0.30002039670944214,0.20667383074760437,0.0047310576774179935
1783696076083374600,5.26237451171875,0.3180451989173889,0.21472376585006714,0.001242050202563405
1783696076093337300,5.27233740234375,0.33377179503440857,0.22565238177776337,0.0027666501700878143
1783696076103301400,5.28230126953125,0.34568333625793457,0.22693867981433868,0.00794969405978918
1783696076113264400,5.292264404296875,0.3536253869533539,0.21801213920116425,0.0032107464503496885
1783696076123228400,5.302228515625,0.3597288131713867,0.19330012798309326,-0.007807016838341951
1783696076133192200,5.312192138671875,0.36878377199172974,0.1587556153535843,-0.018428461626172066
1783696076143155500,5.322155517578125,0.37266266345977783,0.1257673054933548,-0.02177552320063114
1783696076153119200,5.332119140625,0.37167903780937195,0.08935847133398056,-0.034312836825847626
1783696076163082200,5.342082275390625,0.3629843294620514,0.0472341887652874,-0.06383370608091354
1783696076173046300,5.35204638671875,0.3497548997402191,0.0016350371297448874,-0.10815247148275375
1783696076183010300,5.36201025390625,0.33296817541122437,-0.02358935959637165,-0.15762335062026978
1783696076192973300,5.371973388671875,0.3121658265590668,-0.030187971889972687,-0.20169660449028015
1783696076202937300,5.381937255859375,0.2919825315475464,-0.025505870580673218,-0.22952903807163239
1783696076212901400,5.3919013671875,0.28057241439819336,-0.01519935391843319,-0.24186646938323975
1783696076222864400,5.401864501953125,0.27276936173439026,-0.03242654353380203,-0.24178124964237213
1783696076232828400,5.411828369140625,0.27310246229171753,-0.06355040520429611,-0.22058379650115967
1783696076242791400,5.42179150390625,0.2800444960594177,-0.069957435131073,-0.17666800320148468
1783696076252755500,5.43175537109375,0.28971225023269653,-0.08356386423110962,-0.13817371428012848
1783696076262719500,5.441719482421875,0.3011108338832855,-0.1006523072719574,-0.10245219618082047
1783696076272682500,5.4516826171875,0.3088884651660919,-0.09758619964122772,-0.07701387256383896
1783696076282645800,5.461645751953125,0.308061808347702,-0.08108019083738327,-0.06667681783437729
1783696076292608800,5.47160888671875,0.30725276470184326,-0.049431249499320984,-0.06152601167559624
1783696076302572800,5.48157275390625,0.3010942041873932,-0.0031867902725934982,-0.06806300580501556
1783696076312536800,5.491536865234375,0.29206687211990356,0.04184182733297348,-0.08303768932819366
1783696076322499800,5.501499755859375,0.2782149910926819,0.07494997978210449,-0.09469274431467056
1783696076332463600,5.511463623046875,0.2656776010990143,0.10355334728956223,-0.09523855894804001
1783696076342427000,5.521427001953125,0.2522241175174713,0.12119200080633163,-0.08585970103740692
1783696076352390700,5.531390625,0.2392149716615677,0.12932434678077698,-0.06028609350323677
1783696076362354700,5.541354736328125,0.2270752191543579,0.1252632886171341,-0.027341991662979126
1783696076372317700,5.551317626953125,0.2199854552745819,0.12075024098157883,0.013023222796618938
1783696076382281700,5.56128173828125,0.22406302392482758,0.115871861577034,0.056206114590168
1783696076392244700,5.57124462890625,0.23727074265480042,0.11026588827371597,0.10246878862380981
1783696076402208800,5.581208740234375,0.2525634169578552,0.10021192580461502,0.14580215513706207
1783696076412172800,5.5911728515625,0.2686433494091034,0.11136750876903534,0.1770414113998413
1783696076422135800,5.6011357421875,0.2826334834098816,0.1464754343032837,0.19601617753505707
1783696076432099800,5.611099853515625,0.29175856709480286,0.1965019404888153,0.18679586052894592
1783696076442064000,5.62106396484375,0.2958664894104004,0.2574979066848755,0.16586369276046753
1783696076452026600,5.631026611328125,0.3007946014404297,0.32356032729148865,0.15426461398601532
1783696076461991000,5.640990966796875,0.30702531337738037,0.38192299008369446,0.15799809992313385
1783696076471953700,5.65095361328125,0.32209131121635437,0.42434000968933105,0.18278363347053528
1783696076481917700,5.660917724609375,0.34491804242134094,0.44828128814697266,0.2230500876903534
1783696076491881700,5.6708818359375,0.35971903800964355,0.4457332491874695,0.2559947669506073
1783696076501844700,5.6808447265625,0.3641950190067291,0.40829211473464966,0.27399906516075134
1783696076511808500,5.69080859375,0.35676613450050354,0.35741865634918213,0.2784731686115265
1783696076521771800,5.700771728515625,0.3457164168357849,0.31068310141563416,0.27160993218421936
1783696076531735600,5.710735595703125,0.34589558839797974,0.2841276526451111,0.2614048719406128
1783696076541699600,5.720699462890625,0.35054120421409607,0.28257957100868225,0.24326740205287933
1783696076551662600,5.73066259765625,0.3612406849861145,0.3170565962791443,0.21805675327777863
1783696076561626600,5.740626708984375,0.3788239359855652,0.378977507352829,0.16379590332508087
1783696076571589600,5.750589599609375,0.4016105532646179,0.4493824243545532,0.09588511288166046
1783696076581553700,5.7605537109375,0.42505648732185364,0.50924152135849,0.023233013227581978
1783696076591517700,5.770517578125,0.44346892833709717,0.5435580015182495,-0.05414240062236786
1783696076601480700,5.780480712890625,0.46570923924446106,0.5518620014190674,-0.11353195458650589
1783696076611444700,5.79044482421875,0.47545453906059265,0.5281445384025574,-0.14804835617542267
1783696076621408800,5.80040869140625,0.47999921441078186,0.4987354874610901,-0.15851937234401703
1783696076631371800,5.810371826171875,0.49440285563468933,0.4759717881679535,-0.13508953154087067
1783696076641335800,5.820335693359375,0.5052866339683533,0.4616341292858124,-0.08280395716428757
1783696076651298800,5.830298828125,0.5142323970794678,0.4733472466468811,-0.027554620057344437
1783696076661262800,5.840262939453125,0.531848132610321,0.519228994846344,0.025828709825873375
1783696076671226600,5.8502265625,0.5539043545722961,0.5820994973182678,0.06271206587553024
1783696076681190000,5.86018994140625,0.5809345841407776,0.6476010084152222,0.08935779333114624
1783696076691153700,5.870153564453125,0.6052203178405762,0.6877712607383728,0.10325213521718979
1783696076701117000,5.880116943359375,0.6205159425735474,0.6880639791488647,0.10098844766616821
1783696076711080700,5.890080810546875,0.6383938789367676,0.6700982451438904,0.10968852043151855
1783696076721044700,5.900044677734375,0.6430999636650085,0.6482046842575073,0.13502342998981476
1783696076731007700,5.9100078125,0.6447561383247375,0.5932806730270386,0.16168981790542603
1783696076740971800,5.9199716796875,0.6409091949462891,0.487379252910614,0.1820499449968338
1783696076750934500,5.9299345703125,0.6281060576438904,0.3542824387550354,0.19878605008125305
1783696076760898800,5.93989892578125,0.6228868365287781,0.24670803546905518,0.2183256596326828
1783696076770862800,5.94986279296875,0.6338703632354736,0.17539259791374207,0.24142466485500336
1783696076780825600,5.95982568359375,0.6546376943588257,0.12728391587734222,0.2655409276485443
1783696076790789600,5.96978955078125,0.6744126081466675,0.0891602486371994,0.28078606724739075
1783696076800752600,5.979752685546875,0.6834694743156433,0.07217354327440262,0.2751162052154541
1783696076810716700,5.989716552734375,0.6796927452087402,0.05248187109827995,0.2369992583990097
1783696076820680700,5.9996806640625,0.6618325114250183,0.039435580372810364,0.17438675463199615
1783696076830643700,6.009643798828125,0.6267264485359192,0.034466516226530075,0.09691367298364639
1783696076840607700,6.019607666015625,0.5782585144042969,0.0381440743803978,0.017699548974633217
1783696076850571500,6.029571533203125,0.5266107320785522,0.054240889847278595,-0.05496468394994736
1783696076860534800,6.03953466796875,0.4851970076560974,0.09312570840120316,-0.10965988785028458
1783696076870498600,6.04949853515625,0.4608847200870514,0.16281533241271973,-0.1289500594139099
1783696076880461600,6.059461669921875,0.4593659043312073,0.25153666734695435,-0.11244113743305206
1783696076890425600,6.069425537109375,0.47717881202697754,0.3317946195602417,-0.08031439781188965
1783696076900389600,6.0793896484375,0.49302569031715393,0.3863031268119812,-0.051285140216350555
1783696076910352600,6.0893525390625,0.5148124098777771,0.421030193567276,-0.04548211768269539
1783696076920316700,6.099316650390625,0.5310379862785339,0.4519052803516388,-0.05522822216153145
1783696076930279700,6.10927978515625,0.5292933583259583,0.4536789357662201,-0.08691676706075668
1783696076940243700,6.11924365234375,0.5090504288673401,0.41237837076187134,-0.12444789707660675
1783696076950207700,6.129207763671875,0.48438867926597595,0.3465384542942047,-0.15131421387195587
1783696076960170800,6.139170654296875,0.4513188600540161,0.2896610498428345,-0.15521147847175598
1783696076970134800,6.149134765625,0.4222773015499115,0.24367761611938477,-0.13549169898033142
1783696076980097800,6.159097900390625,0.3986723721027374,0.19841985404491425,-0.1086299866437912
1783696076990061800,6.169061767578125,0.3873509466648102,0.15500226616859436,-0.08354842662811279
1783696077000025900,6.17902587890625,0.3833724558353424,0.10488742589950562,-0.06182263046503067
1783696077009988900,6.18898876953125,0.3824012279510498,0.06497982889413834,-0.04084319248795509
1783696077019953000,6.198952880859375,0.3857613503932953,0.04212910681962967,-0.014411852695047855
1783696077029916000,6.208916015625,0.3854946494102478,0.0362379215657711,0.01087558176368475
1783696077039879700,6.218879638671875,0.37154605984687805,0.0489281490445137,0.033136945217847824
1783696077049843700,6.22884375,0.34491363167762756,0.07475630193948746,0.044068578630685806
1783696077059806700,6.238806640625,0.31525614857673645,0.11013213545084,0.0537441112101078
1783696077069770800,6.248770751953125,0.2789077162742615,0.14460276067256927,0.054469555616378784
1783696077079733500,6.2587333984375,0.23970304429531097,0.16997364163398743,0.04829182103276253
1783696077089697500,6.268697509765625,0.20281557738780975,0.17851030826568604,0.04330559819936752
1783696077099661800,6.278661865234375,0.1706581711769104,0.17009764909744263,0.04501268267631531
1783696077109624600,6.28862451171875,0.14513909816741943,0.14116595685482025,0.06499844044446945
1783696077119588600,6.298588623046875,0.1252141296863556,0.1078018844127655,0.10237564146518707
1783696077129552600,6.308552734375,0.11154618114233017,0.08372683078050613,0.14248009026050568
1783696077139515600,6.318515625,0.10841163992881775,0.06642374396324158,0.1799536943435669
1783696077149479700,6.328479736328125,0.10188508033752441,0.043926090002059937,0.192633256316185
1783696077159442700,6.338442626953125,0.09105746448040009,0.03443804383277893,0.19041404128074646
1783696077169406700,6.34840673828125,0.08449352532625198,0.04549950361251831,0.17794100940227509
1783696077179370800,6.358370849609375,0.08711913228034973,0.08181916177272797,0.1646702140569687
1783696077189333800,6.368333740234375,0.10495401918888092,0.12438026815652847,0.15236376225948334
1783696077199297800,6.3782978515625,0.12075455486774445,0.1350502222776413,0.12109372764825821
1783696077209260800,6.3882607421875,0.12829189002513885,0.126658096909523,0.06067616119980812
1783696077219224600,6.398224609375,0.12931481003761292,0.13651658594608307,-0.013022560626268387
1783696077229188600,6.408188720703125,0.12961529195308685,0.15243364870548248,-0.07923170924186707
1783696077239151600,6.418151611328125,0.12389642000198364,0.1588824838399887,-0.12612438201904297
1783696077249115600,6.42811572265625,0.11610595136880875,0.1515623778104782,-0.13263744115829468
1783696077259078700,6.43807861328125,0.11709718406200409,0.14283838868141174,-0.10069736838340759
1783696077269042700,6.448042724609375,0.12771032750606537,0.1425175815820694,-0.049477141350507736
1783696077279007200,6.45800732421875,0.1414908617734909,0.13360024988651276,0.0023652855306863785
1783696077288970000,6.467969970703125,0.14958298206329346,0.1103120744228363,0.03303378447890282
1783696077298934000,6.47793408203125,0.1502991020679474,0.08720994740724564,0.02463337406516075
1783696077308897000,6.48789697265625,0.1463554948568344,0.07744995504617691,-0.010863227769732475
1783696077318861000,6.497861083984375,0.13404875993728638,0.0891239196062088,-0.06768923252820969
1783696077328825000,6.5078251953125,0.11434394866228104,0.11636627465486526,-0.12291821092367172
1783696077338788000,6.5177880859375,0.08751792460680008,0.1587315797805786,-0.1608288437128067
1783696077348752100,6.527752197265625,0.0608743280172348,0.18863461911678314,-0.17483147978782654
1783696077358715100,6.537715087890625,0.03915092349052429,0.1906397044658661,-0.16445979475975037
1783696077368679200,6.54767919921875,0.015646662563085556,0.17491880059242249,-0.12606526911258698
1783696077378643000,6.557642822265625,-0.015154658816754818,0.13896799087524414,-0.07635417580604553
1783696077388606000,6.56760595703125,-0.045360829681158066,0.10012198239564896,-0.01743503287434578
1783696077398570000,6.577570068359375,-0.07997393608093262,0.06669291853904724,0.05585888773202896
1783696077408533000,6.587532958984375,-0.12644560635089874,0.04926867410540581,0.12423597276210785
1783696077418497000,6.5974970703125,-0.17544271051883698,0.02745126187801361,0.16954779624938965
1783696077428461000,6.6074609375,-0.2075580209493637,0.00469841668382287,0.22668176889419556
1783696077438424000,6.617424072265625,-0.25173240900039673,0.015451195649802685,0.28860771656036377
1783696077448388000,6.62738818359375,-0.287811279296875,0.02467654086649418,0.32636719942092896
1783696077458352000,6.63735205078125,-0.302194207906723,0.02846648544073105,0.3290750980377197
1783696077468315100,6.647315185546875,-0.3107965290546417,0.03644382953643799,0.2977207899093628
1783696077478279200,6.657279052734375,-0.3175242245197296,0.038167692720890045,0.23789261281490326
1783696077488242200,6.6672421875,-0.32383182644844055,0.02574116177856922,0.16133949160575867
1783696077498206200,6.677206298828125,-0.3339790105819702,0.011884467676281929,0.0760703980922699
1783696077508170200,6.687170166015625,-0.34549373388290405,-0.0006804338190704584,-0.010814957320690155
1783696077518133200,6.69713330078125,-0.35802924633026123,-0.017187772318720818,-0.10108812898397446
1783696077528097300,6.70709716796875,-0.3652360737323761,-0.04175519198179245,-0.1854378581047058
1783696077538060300,6.717060302734375,-0.35913529992103577,-0.062503881752491,-0.26720941066741943
1783696077548024000,6.727024169921875,-0.34389597177505493,-0.09063336998224258,-0.33708009123802185
1783696077557988000,6.736988037109375,-0.31877171993255615,-0.12459852546453476,-0.3975013494491577
1783696077567951000,6.746951171875,-0.2821895480155945,-0.15245918929576874,-0.43810081481933594
1783696077577915100,6.7569150390625,-0.24500299990177155,-0.15571065247058868,-0.46004873514175415
1783696077587878000,6.7668779296875,-0.20802979171276093,-0.11865642666816711,-0.4861273169517517
1783696077597842000,6.776842041015625,-0.16633720695972443,-0.05707907676696777,-0.49661779403686523
1783696077607806200,6.78680615234375,-0.13319383561611176,0.018600357696413994,-0.4839489161968231
1783696077617769000,6.79676904296875,-0.11784789711236954,0.06294624507427216,-0.45673513412475586
1783696077627733000,6.80673291015625,-0.11936508119106293,0.07565625011920929,-0.4175702929496765
1783696077637696000,6.816696044921875,-0.12782888114452362,0.056718774139881134,-0.3668346703052521
1783696077647660000,6.826659912109375,-0.1328856498003006,0.026193009689450264,-0.29138094186782837
1783696077657624000,6.8366240234375,-0.1351831555366516,-0.0007134387269616127,-0.20090004801750183
1783696077667587000,6.846587158203125,-0.14740099012851715,-0.048016708344221115,-0.10997864603996277
1783696077677551000,6.856551025390625,-0.1657261997461319,-0.11313045769929886,-0.03343167528510094
1783696077687514000,6.86651416015625,-0.18371102213859558,-0.18041907250881195,0.028264563530683517
1783696077697478100,6.87647802734375,-0.20676255226135254,-0.22461450099945068,0.06594802439212799
1783696077707442000,6.88644189453125,-0.23847517371177673,-0.266367107629776,0.07090695202350616
1783696077717405200,6.8964052734375,-0.28355103731155396,-0.30475685000419617,0.05427204445004463
1783696077727369000,6.906368896484375,-0.33081886172294617,-0.33754074573516846,0.01746605709195137
1783696077737333000,6.9163330078125,-0.3642119765281677,-0.3411591947078705,-0.024870745837688446
1783696077747296000,6.9262958984375,-0.37574705481529236,-0.3194662928581238,-0.055014729499816895
1783696077757260000,6.936260009765625,-0.3699363172054291,-0.30068808794021606,-0.08329138159751892
1783696077767223000,6.94622314453125,-0.35591036081314087,-0.27758052945137024,-0.10020583868026733
1783696077777187000,6.95618701171875,-0.3385673463344574,-0.24735738337039948,-0.10601978749036789
1783696077787151000,6.966151123046875,-0.315067857503891,-0.21633599698543549,-0.1014237105846405
1783696077797114000,6.976114013671875,-0.2920656204223633,-0.19802303612232208,-0.08967225253582001
1783696077807078100,6.986078125,-0.2724132835865021,-0.20356632769107819,-0.06536494195461273
1783696077817041200,6.996041259765625,-0.25012049078941345,-0.18691250681877136,-0.020520245656371117
1783696077827005200,7.006005126953125,-0.22904188930988312,-0.12464170902967453,0.025736231356859207
1783696077836969200,7.01596923828125,-0.19671697914600372,-0.05297790467739105,0.052311647683382034
1783696077846932200,7.02593212890625,-0.16202804446220398,-0.03241177648305893,0.06837534159421921
1783696077856896300,7.035896240234375,-0.12435923516750336,-0.040260378271341324,0.08735702186822891
1783696077866859300,7.045859375,-0.0842641070485115,-0.040727946907281876,0.1224009320139885
1783696077876823300,7.0558232421875,-0.041468437761068344,-0.037414442747831345,0.16613537073135376
1783696077886787000,7.065787109375,-0.01393431331962347,-0.043404608964920044,0.19967417418956757
1783696077896750000,7.07575,0.006834880914539099,-0.05620988830924034,0.22495156526565552
1783696077906714000,7.085714111328125,0.02158881537616253,-0.06725547462701797,0.2365867644548416
1783696077916677000,7.095677001953125,0.03476640209555626,-0.07247953116893768,0.23552842438220978
1783696077926641000,7.105640869140625,0.03944972902536392,-0.052300505340099335,0.24312475323677063
1783696077936605000,7.11560498046875,0.04189185053110123,0.0024604799691587687,0.2557404041290283
1783696077946568000,7.12556787109375,0.05069566145539284,0.06183185428380966,0.2676350474357605
1783696077956532000,7.135531982421875,0.054353248327970505,0.055282607674598694,0.2619965970516205
1783696077966495000,7.145494873046875,0.032972510904073715,-0.010054755955934525,0.23361334204673767
1783696077976459000,7.155458984375,-0.0006557555170729756,-0.05351328104734421,0.20454494655132294
1783696077986423000,7.165423095703125,-0.03983522951602936,-0.06898117065429688,0.17943590879440308
1783696077996386000,7.175385986328125,-0.07527603954076767,-0.06848395615816116,0.1543300300836563
1783696078006350000,7.18535009765625,-0.11933600902557373,-0.0696067065000534,0.12854401767253876
1783696078016313000,7.19531298828125,-0.16608913242816925,-0.06531688570976257,0.10544615983963013
1783696078026277000,7.205277099609375,-0.20782461762428284,-0.03276941925287247,0.09654801338911057
1783696078036241200,7.2152412109375,-0.23360827565193176,0.011035316623747349,0.10411804914474487
1783696078046204200,7.2252041015625,-0.24576283991336823,0.07262007892131805,0.11508942395448685
1783696078056168200,7.235168212890625,-0.24449092149734497,0.10370209813117981,0.11709398776292801
1783696078066131200,7.245131103515625,-0.2393590211868286,0.11129046976566315,0.10519112646579742
1783696078076095200,7.25509521484375,-0.2326582372188568,0.1076512560248375,0.07381989061832428
1783696078086059000,7.26505908203125,-0.2274753600358963,0.09437987208366394,0.025817956775426865
1783696078096022000,7.27502197265625,-0.23275667428970337,0.08532698452472687,-0.033940449357032776
1783696078105986000,7.284986083984375,-0.23475824296474457,0.08992417901754379,-0.0884639099240303
1783696078115950000,7.2949501953125,-0.2217329889535904,0.11354934424161911,-0.12401603907346725
1783696078125913000,7.3049130859375,-0.20923003554344177,0.14082685112953186,-0.14458920061588287
1783696078135877000,7.314877197265625,-0.18819691240787506,0.1609443724155426,-0.1485338807106018
1783696078145840000,7.324840087890625,-0.1497226357460022,0.15524822473526,-0.13452504575252533
1783696078155804200,7.33480419921875,-0.11768852919340134,0.11119049042463303,-0.08870349824428558
1783696078165767200,7.34476708984375,-0.09358102083206177,0.08054675906896591,-0.017715364694595337
1783696078175731200,7.354731201171875,-0.06610758602619171,0.06225590407848358,0.06059408560395241
1783696078185695200,7.3646953125,-0.02078060247004032,0.057941753417253494,0.12465537339448929
1783696078195658200,7.374658203125,0.02477090433239937,0.04932429641485214,0.16154015064239502
1783696078205622300,7.384622314453125,0.0713672861456871,0.05596068501472473,0.17835183441638947
1783696078215586300,7.39458642578125,0.11419304460287094,0.07461772859096527,0.1820211410522461
1783696078225549000,7.404549072265625,0.14114442467689514,0.098213791847229,0.17761802673339844
1783696078235513000,7.41451318359375,0.15526637434959412,0.11004754900932312,0.16161055862903595
1783696078245476000,7.42447607421875,0.15860280394554138,0.09470778703689575,0.14771991968154907
1783696078255440000,7.43443994140625,0.15893515944480896,0.061566613614559174,0.14388816058635712
1783696078265404000,7.44440380859375,0.16486991941928864,0.020854685455560684,0.15066421031951904
1783696078275367000,7.454366943359375,0.1779918521642685,-0.03264901787042618,0.1645110547542572
1783696078285331200,7.464331298828125,0.1859724521636963,-0.10226555168628693,0.16645054519176483
1783696078295294200,7.474294189453125,0.1813071221113205,-0.1717737913131714,0.1419377475976944
1783696078305258200,7.48425830078125,0.16085167229175568,-0.2317633032798767,0.09307579696178436
1783696078315222300,7.49422216796875,0.12094099819660187,-0.28455835580825806,0.0003919317969121039
1783696078325185300,7.504185302734375,0.06246532127261162,-0.3518146872520447,-0.13395516574382782
1783696078335149300,7.5141494140625,-0.004056184086948633,-0.4062131941318512,-0.29807963967323303
1783696078345112300,7.5241123046875,-0.07441504299640656,-0.42062947154045105,-0.4463243782520294
1783696078355076400,7.534076416015625,-0.1319827288389206,-0.3842829167842865,-0.5558237433433533
1783696078365040400,7.544040283203125,-0.16215698421001434,-0.29898717999458313,-0.6025623679161072
1783696078375003400,7.55400341796875,-0.1575787365436554,-0.18947318196296692,-0.5899972915649414
1783696078384967400,7.563967529296875,-0.1243012323975563,-0.07452410459518433,-0.5358988046646118
1783696078394930400,7.573930419921875,-0.07254189997911453,0.03502662107348442,-0.4642443060874939
1783696078404894500,7.58389453125,-0.01731361262500286,0.101542629301548,-0.4008265435695648
1783696078414858200,7.593858154296875,0.023459915071725845,0.12498510628938675,-0.363748699426651
1783696078424821500,7.603821533203125,0.05095668509602547,0.12211242318153381,-0.3421934247016907
1783696078434785300,7.613785400390625,0.05447498708963394,0.1132451593875885,-0.32350417971611023
1783696078444748300,7.623748291015625,0.042013682425022125,0.09320856630802155,-0.31770798563957214
1783696078454712000,7.633712158203125,0.0271907951682806,0.06173292547464371,-0.31864383816719055
1783696078464676000,7.643676025390625,0.013938963413238525,0.023163726553320885,-0.3194550573825836
1783696078474639000,7.65363916015625,0.00584561750292778,-0.023411232978105545,-0.3191024661064148
1783696078484603100,7.66360302734375,-0.001570580992847681,-0.0766378864645958,-0.31706470251083374
1783696078494566100,7.673566162109375,-0.004071821458637714,-0.14614826440811157,-0.310883492231369
1783696078504530200,7.6835302734375,0.007622809614986181,-0.2209537923336029,-0.29090720415115356
1783696078514494200,7.693494140625,-0.00040688749868422747,-0.27540719509124756,-0.23797021806240082
1783696078524457200,7.703457275390625,-0.02100132778286934,-0.2741219401359558,-0.17125846445560455
1783696078534421200,7.713421142578125,-0.047874752432107925,-0.26809653639793396,-0.13522030413150787
1783696078544384300,7.72338427734375,-0.07259953767061234,-0.2905552089214325,-0.11804597824811935
1783696078554348300,7.733348388671875,-0.10476972162723541,-0.2527569830417633,-0.09974926710128784
1783696078564312300,7.743312255859375,-0.14002640545368195,-0.1986231952905655,-0.08852196484804153
1783696078574275300,7.753275390625,-0.1768968105316162,-0.16802135109901428,-0.09645898640155792
1783696078584239400,7.7632392578125,-0.2131957858800888,-0.2128835767507553,-0.12086706608533859
1783696078594202400,7.773202392578125,-0.21957433223724365,-0.18765226006507874,-0.13295328617095947
1783696078604166100,7.783166259765625,-0.21110497415065765,-0.13122399151325226,-0.11633569747209549
1783696078614130200,7.793130126953125,-0.22486339509487152,-0.059714917093515396,-0.07874651253223419
1783696078624093200,7.80309326171875,-0.2329762727022171,-0.08124891668558121,-0.05164506286382675
1783696078634057200,7.81305712890625,-0.2250531017780304,-0.08736007660627365,-0.02215348184108734
1783696078644020200,7.823020263671875,-0.23792393505573273,-0.07003587484359741,0.008214562200009823
1783696078653984300,7.832984375,-0.23569300770759583,-0.07713852822780609,0.028709717094898224
1783696078663948300,7.8429482421875,-0.2322750687599182,-0.0862991213798523,0.05064975842833519
1783696078673911300,7.852911376953125,-0.24165472388267517,-0.080288365483284,0.07304614037275314
1783696078683875300,7.862875244140625,-0.2407171130180359,-0.08156122267246246,0.08847573399543762
1783696078693838300,7.87283837890625,-0.2456386387348175,-0.09594442695379257,0.09503989666700363
1783696078703802400,7.88280224609375,-0.2355620563030243,-0.05499904230237007,0.09267370402812958
1783696078713766400,7.892766357421875,-0.1953941285610199,-0.02683451771736145,0.09652543067932129
1783696078723729400,7.9027294921875,-0.1654864400625229,0.0025701280683279037,0.10156938433647156
1783696078733693400,7.912693359375,-0.14869627356529236,-0.0026288949884474277,0.09689447283744812
1783696078743656200,7.92265625,-0.13356098532676697,-0.038938652724027634,0.08145812153816223
1783696078753620200,7.9326201171875,-0.13487179577350616,-0.07397786527872086,0.06022127345204353
1783696078763584300,7.942584228515625,-0.13613136112689972,-0.09107832610607147,0.042892567813396454
1783696078773547300,7.95254736328125,-0.14757177233695984,-0.10801443457603455,0.033633023500442505
1783696078783511000,7.962510986328125,-0.16332736611366272,-0.1089569479227066,0.03463440388441086
1783696078793474300,7.972474365234375,-0.17877529561519623,-0.10048329830169678,0.06334567815065384
1783696078803438000,7.98243798828125,-0.18365299701690674,-0.09725725650787354,0.10802972316741943
1783696078813402000,7.992402099609375,-0.17833706736564636,-0.09319726377725601,0.14829511940479279
1783696078823365000,8.002365234375,-0.16127708554267883,-0.09021700173616409,0.16397766768932343
1783696078833329200,8.0123291015625,-0.14541663229465485,-0.08512290567159653,0.16658276319503784
1783696078843292200,8.022292236328125,-0.11811129748821259,-0.05138600990176201,0.173942431807518
1783696078853256200,8.032256103515625,-0.09710748493671417,-0.006803096737712622,0.18621455132961273
1783696078863220200,8.04222021484375,-0.08145486563444138,0.015604465268552303,0.20105120539665222
1783696078873183200,8.052183349609376,-0.07617434859275818,-0.00005705247167497873,0.20643451809883118
1783696078883147300,8.062147216796875,-0.07941553741693497,-0.03685516491532326,0.2065696120262146
1783696078893110300,8.0721103515625,-0.08785882592201233,-0.07759060710668564,0.1996038556098938
1783696078903074300,8.08207421875,-0.10380902141332626,-0.128051295876503,0.18955573439598083
1783696078913038300,8.092038330078125,-0.12483414262533188,-0.18217338621616364,0.17349021136760712
1783696078923001300,8.10200146484375,-0.14333321154117584,-0.23540817201137543,0.14678801596164703
1783696078932965400,8.11196533203125,-0.16804975271224976,-0.2643170654773712,0.11210885643959045
1783696078942928400,8.121928466796875,-0.19356314837932587,-0.2817247807979584,0.06725046038627625
1783696078952892400,8.131892333984375,-0.222936749458313,-0.2909880578517914,0.016584089025855064
1783696078962856200,8.141856201171874,-0.25535500049591064,-0.29396769404411316,-0.013301975093781948
1783696078972819500,8.1518193359375,-0.2926168739795685,-0.2882906496524811,-0.021684806793928146
1783696078982783200,8.161783203125,-0.33570796251296997,-0.26066476106643677,-0.02809073217213154
1783696078992746200,8.171746337890625,-0.36844009160995483,-0.2542310953140259,-0.03190145269036293
1783696079002710300,8.181710205078126,-0.4033393859863281,-0.2462216168642044,-0.019623933359980583
1783696079012674300,8.19167431640625,-0.42039772868156433,-0.18518169224262238,0.0026123966090381145
1783696079022637300,8.20163720703125,-0.4288102686405182,-0.13262878358364105,0.015877552330493927
1783696079032601300,8.211601318359374,-0.42493537068367004,-0.10757482796907425,0.013779515400528908
1783696079042564000,8.221564208984375,-0.43065422773361206,-0.09875631332397461,0.0006422504666261375
1783696079052528000,8.231528076171875,-0.4316292107105255,-0.12426194548606873,-0.005693942308425903
1783696079062492400,8.241492431640625,-0.4381182789802551,-0.15990611910820007,-0.0026197098195552826
1783696079072455200,8.251455078125,-0.4380788803100586,-0.18901899456977844,0.0026975576765835285
1783696079082419200,8.261419189453125,-0.4267825484275818,-0.2146146446466446,-0.0004875828744843602
1783696079092382200,8.27138232421875,-0.416194885969162,-0.25383979082107544,-0.019594697281718254
1783696079102346200,8.28134619140625,-0.41519078612327576,-0.2899797558784485,-0.06497341394424438
1783696079112310300,8.291310302734376,-0.41896793246269226,-0.3306070566177368,-0.13002991676330566
1783696079122273300,8.301273193359375,-0.4199937880039215,-0.33791881799697876,-0.19185078144073486
1783696079132237300,8.3112373046875,-0.4313929080963135,-0.3345893323421478,-0.2511575222015381
1783696079142200300,8.321200439453126,-0.4416845738887787,-0.35739782452583313,-0.29943299293518066
1783696079152164000,8.3311640625,-0.4496695399284363,-0.38119423389434814,-0.32811790704727173
1783696079162128100,8.341128173828125,-0.45505306124687195,-0.3684464395046234,-0.328315794467926
1783696079172091100,8.351091064453126,-0.44714611768722534,-0.3267567753791809,-0.30016830563545227
1783696079182055200,8.36105517578125,-0.4336545467376709,-0.2709290385246277,-0.2515983581542969
1783696079192018200,8.37101806640625,-0.42656654119491577,-0.22797678411006927,-0.19459128379821777
1783696079201982200,8.380982177734374,-0.41675734519958496,-0.23925966024398804,-0.1457945555448532
1783696079211946200,8.3909462890625,-0.40247881412506104,-0.2664715647697449,-0.08293943107128143
1783696079221909200,8.4009091796875,-0.4240965247154236,-0.2930479943752289,-0.021049940958619118
1783696079231873300,8.410873291015625,-0.4409988224506378,-0.3140084147453308,0.03423595055937767
1783696079241836300,8.420836181640626,-0.45694950222969055,-0.33776408433914185,0.07478906959295273
1783696079251800300,8.43080029296875,-0.47829127311706543,-0.3699435889720917,0.0976395234465599
1783696079261764400,8.440764404296875,-0.5023245811462402,-0.38918888568878174,0.11564616858959198
1783696079271727400,8.450727294921874,-0.5199075937271118,-0.3735249638557434,0.12437867373228073
1783696079281691400,8.46069140625,-0.5388199687004089,-0.34158387780189514,0.10991635918617249
1783696079291654100,8.470654052734375,-0.5602642893791199,-0.2954089343547821,0.07737625390291214
1783696079301618200,8.4806181640625,-0.585924506187439,-0.24453423917293549,0.039987653493881226
1783696079311582200,8.490582275390626,-0.6191847324371338,-0.1711100935935974,0.0005291933775879443
1783696079321545200,8.500545166015625,-0.6498022675514221,-0.07285325974225998,-0.03796134516596794
1783696079331509000,8.510509033203125,-0.6680020689964294,0.023087386041879654,-0.08918724954128265
1783696079341472300,8.52047216796875,-0.678341269493103,0.07210022211074829,-0.1431581825017929
1783696079351436000,8.53043603515625,-0.670346200466156,0.09000412374734879,-0.18352077901363373
1783696079361400000,8.540400146484375,-0.6450520157814026,0.09269648790359497,-0.20923838019371033
1783696079371363000,8.550363037109374,-0.6005188822746277,0.08784288167953491,-0.2083214521408081
1783696079381327000,8.5603271484375,-0.5637403726577759,0.07087195664644241,-0.17132392525672913
1783696079391290000,8.5702900390625,-0.5394201278686523,0.0650486871600151,-0.11328645795583725
1783696079401254100,8.580254150390624,-0.5170279741287231,0.046698566526174545,-0.03151847794651985
1783696079411218200,8.59021826171875,-0.47599002718925476,-0.06354458630084991,0.07744716107845306
1783696079421181200,8.60018115234375,-0.432026743888855,-0.14079487323760986,0.22707310318946838
1783696079431145200,8.610145263671875,-0.36675506830215454,-0.16587918996810913,0.4013575613498688
1783696079441108200,8.620108154296876,-0.31828534603118896,-0.18466882407665253,0.528502881526947
1783696079451072300,8.630072265625,-0.2880054712295532,-0.2628414034843445,0.5678356289863586
1783696079461036300,8.640036376953125,-0.2821076512336731,-0.3538317084312439,0.5094082951545715
1783696079470999300,8.649999267578124,-0.30805402994155884,-0.37631064653396606,0.40092095732688904
1783696079480963300,8.65996337890625,-0.36245599389076233,-0.3406241238117218,0.30731284618377686
1783696079490926300,8.66992626953125,-0.4405824840068817,-0.29309549927711487,0.27030637860298157
1783696079500890400,8.679890380859375,-0.5149843096733093,-0.22561247646808624,0.2806962728500366
1783696079510854100,8.689854248046874,-0.5590953230857849,-0.16762879490852356,0.301401287317276
1783696079520817200,8.699817138671875,-0.5649529099464417,-0.10940437018871307,0.3098304569721222
1783696079530781200,8.70978125,-0.5488445162773132,-0.09006423503160477,0.29354923963546753
1783696079540744200,8.719744140625,-0.5171615481376648,-0.11280427128076553,0.24365165829658508
1783696079550708200,8.729708251953125,-0.49792343378067017,-0.15996326506137848,0.18073713779449463
1783696079560672300,8.73967236328125,-0.5014621019363403,-0.2314056158065796,0.12325523793697357
1783696079570635300,8.74963525390625,-0.5290476083755493,-0.2925901412963867,0.08101164549589157
1783696079580599300,8.759599365234376,-0.559466540813446,-0.31532955169677734,0.07123012095689774
1783696079590562000,8.76956201171875,-0.5934391617774963,-0.30790865421295166,0.09826333820819855
1783696079600526300,8.7795263671875,-0.6118376851081848,-0.25171929597854614,0.15857894718647003
1783696079610490400,8.789490478515624,-0.5950704216957092,-0.1567874550819397,0.21770910918712616
1783696079620453000,8.799453125,-0.560699462890625,-0.05476762354373932,0.2612176239490509
1783696079630417200,8.809417236328125,-0.5007860660552979,0.03715271130204201,0.29257288575172424
1783696079640380200,8.819380126953124,-0.4118044674396515,0.06995221227407455,0.3122848868370056
1783696079650344200,8.82934423828125,-0.34922391176223755,0.057200733572244644,0.32127466797828674
1783696079660308200,8.83930810546875,-0.30170053243637085,-0.004228903912007809,0.3234119415283203
1783696079670271200,8.849271240234375,-0.27234983444213867,-0.10238476097583771,0.32329076528549194
1783696079680235300,8.8592353515625,-0.27419406175613403,-0.21179990470409393,0.323591023683548
1783696079690198300,8.8691982421875,-0.29801976680755615,-0.3161385655403137,0.3127618134021759
1783696079700162000,8.879162109375,-0.3298521935939789,-0.42209434509277344,0.2928253412246704
1783696079710126000,8.8891259765625,-0.3626948297023773,-0.5005819201469421,0.25531286001205444
1783696079720089000,8.899089111328125,-0.39375972747802734,-0.5611177682876587,0.18513986468315125
1783696079730053000,8.90905322265625,-0.41564664244651794,-0.6183517575263977,0.0835791528224945
1783696079740016000,8.91901611328125,-0.42881903052330017,-0.6763195395469666,-0.028282608836889267
1783696079749980200,8.928980224609376,-0.4389907121658325,-0.7230609059333801,-0.12205304205417633
1783696079759944200,8.938944091796875,-0.4435150921344757,-0.7427422404289246,-0.1746497005224228
1783696079769907200,8.9489072265625,-0.45146462321281433,-0.7341378331184387,-0.18549169600009918
1783696079779871200,8.958871337890624,-0.4575645327568054,-0.6838897466659546,-0.1569349318742752
1783696079789834200,8.968834228515625,-0.46179282665252686,-0.5976606011390686,-0.11380448937416077
1783696079799798300,8.97879833984375,-0.46083858609199524,-0.4812755286693573,-0.07117222249507904
1783696079809762300,8.98876220703125,-0.45956185460090637,-0.3726201355457306,-0.039430540055036545
1783696079819725300,8.998725341796876,-0.4695126712322235,-0.2892988324165344,-0.03514184430241585
1783696079829689300,9.008689453125,-0.4808092713356018,-0.23937468230724335,-0.03942713886499405
1783696079839652400,9.01865234375,-0.5110750794410706,-0.2147146463394165,-0.045942798256874084
1783696079849616400,9.028616455078126,-0.5489529371261597,-0.22515103220939636,-0.03351275995373726
1783696079859580200,9.038580078125,-0.588284432888031,-0.2597590386867523,0.0038872333243489265
1783696079869543400,9.04854345703125,-0.6233862638473511,-0.32361847162246704,0.04492654651403427
1783696079879507200,9.058507080078124,-0.6571028232574463,-0.41383096575737,0.07446548342704773
1783696079889470200,9.06847021484375,-0.6922504305839539,-0.5201147794723511,0.08350025862455368
1783696079899434200,9.078434326171875,-0.7299080491065979,-0.6189744472503662,0.07827285677194595
1783696079909398300,9.088398193359374,-0.771816611289978,-0.7043269276618958,0.06990121304988861
1783696079919361000,9.098361083984376,-0.8166542649269104,-0.7762911319732666,0.06771286576986313
1783696079929325000,9.108324951171875,-0.8580201268196106,-0.8393909931182861,0.06288962066173553
1783696079939288000,9.1182880859375,-0.8979663252830505,-0.875586211681366,0.059580154716968536
1783696079949252000,9.128252197265626,-0.9436003565788269,-0.8897593021392822,0.059697069227695465
1783696079959216000,9.138216064453125,-0.9885755181312561,-0.8871289491653442,0.055310823023319244
1783696079969179100,9.14817919921875,-1.0280606746673584,-0.8725233674049377,0.042435240000486374
1783696079979143200,9.15814306640625,-1.0645359754562378,-0.8710033893585205,0.01726377196609974
1783696079989106200,9.168106201171875,-1.1000971794128418,-0.8935837745666504,-0.008467158302664757
1783696079999070200,9.1780703125,-1.132593035697937,-0.9124658703804016,-0.020412126556038857
1783696080009034200,9.1880341796875,-1.1606472730636597,-0.9294033050537109,-0.008744817227125168
1783696080018997200,9.197997314453126,-1.1816242933273315,-0.9336183667182922,0.019285837188363075
1783696080028961300,9.207961181640625,-1.1995556354522705,-0.9256414175033569,0.053092002868652344
1783696080038924300,9.21792431640625,-1.2064205408096313,-0.8977406024932861,0.07810599356889725
1783696080048888300,9.227888427734374,-1.2024281024932861,-0.8463317155838013,0.08560305833816528
1783696080058852000,9.23785205078125,-1.198408842086792,-0.797100841999054,0.07969513535499573
1783696080068815000,9.247815185546875,-1.1943278312683105,-0.7590735554695129,0.06409113854169846
1783696080078779100,9.257779052734374,-1.199427604675293,-0.7305237650871277,0.04671117290854454
1783696080088742100,9.2677421875,-1.2027722597122192,-0.702489972114563,0.039286013692617416
1783696080098706200,9.2777060546875,-1.1958415508270264,-0.6783969402313232,0.04630008339881897
1783696080108670200,9.287670166015625,-1.18736732006073,-0.6810241341590881,0.05533485859632492
1783696080118633200,9.29763330078125,-1.1813322305679321,-0.7075076103210449,0.05177793279290199
1783696080128597200,9.30759716796875,-1.1831251382827759,-0.7481871247291565,0.0269777774810791
1783696080138560300,9.317560302734375,-1.1997673511505127,-0.7852966785430908,0.0015136183938011527
1783696080148524300,9.327524169921874,-1.225843906402588,-0.8087686896324158,-0.009729715064167976
1783696080158488300,9.33748828125,-1.2504549026489258,-0.8176380395889282,-0.005606403574347496
1783696080168451300,9.347451416015625,-1.2649556398391724,-0.806824266910553,0.0060784826055169106
1783696080178415400,9.357415283203125,-1.2691519260406494,-0.7823205590248108,0.01475349348038435
1783696080188378400,9.36737841796875,-1.2646520137786865,-0.7591025829315186,0.02170940302312374
1783696080198342400,9.37734228515625,-1.2516053915023804,-0.741868257522583,0.02383124828338623
1783696080208306400,9.387306396484375,-1.2231000661849976,-0.7198992967605591,0.0372551791369915
1783696080218269200,9.397269287109374,-1.1888020038604736,-0.6955755949020386,0.06452017277479172
1783696080228233200,9.407233154296875,-1.1532166004180908,-0.6746441721916199,0.10252561420202255
1783696080238196200,9.4171962890625,-1.1239701509475708,-0.6630664467811584,0.1517038196325302
1783696080248160000,9.427159912109374,-1.1019484996795654,-0.665184736251831,0.19444994628429413
1783696080258123300,9.437123291015626,-1.0911691188812256,-0.6869173645973206,0.2337760627269745
1783696080268087000,9.447087158203125,-1.078363299369812,-0.7252535820007324,0.27005019783973694
1783696080278051000,9.457051025390625,-1.0613666772842407,-0.780363917350769,0.30650070309638977
1783696080288014000,9.46701416015625,-1.0388128757476807,-0.8354431390762329,0.32976794242858887
1783696080297978000,9.47697802734375,-1.0198928117752075,-0.8761652708053589,0.33149027824401855
1783696080307941000,9.486941162109375,-1.0070077180862427,-0.9108017683029175,0.30719906091690063
1783696080317905200,9.4969052734375,-1.0073260068893433,-0.9277634620666504,0.25928831100463867
1783696080327869200,9.506869140625,-1.0192545652389526,-0.9291911721229553,0.20554783940315247
1783696080337832200,9.516832275390625,-1.045666217803955,-0.9315699934959412,0.1496710181236267
1783696080347796200,9.526796142578124,-1.077051043510437,-0.9275933504104614,0.10018496215343475
1783696080357759200,9.53675927734375,-1.105126142501831,-0.9224061965942383,0.06213761493563652
1783696080367723300,9.54672314453125,-1.124258041381836,-0.9163786768913269,0.035099875181913376
1783696080377687300,9.556687255859375,-1.13453209400177,-0.9009479880332947,0.01715235412120819
1783696080387650300,9.566650390625,-1.1322487592697144,-0.87199467420578,0.004913797602057457
1783696080397614300,9.5766142578125,-1.1114134788513184,-0.8159521222114563,-0.0029729234520345926
1783696080407577300,9.586577392578125,-1.095849633216858,-0.7538354992866516,-0.017571840435266495
1783696080417541400,9.596541259765624,-1.0941152572631836,-0.6943034529685974,-0.03186459466814995
1783696080427505200,9.606505126953126,-1.097909688949585,-0.6179580688476562,-0.03698692098259926
1783696080437468400,9.616468505859375,-1.111148476600647,-0.5466710329055786,-0.03364958614110947
1783696080447432200,9.62643212890625,-1.1287237405776978,-0.5166106224060059,-0.023517057299613953
1783696080457395200,9.636395263671876,-1.1425516605377197,-0.5237152576446533,-0.008169356733560562
1783696080467359200,9.646359130859375,-1.1491262912750244,-0.531807541847229,0.010097531601786613
1783696080477323300,9.6563232421875,-1.1538633108139038,-0.546166718006134,0.01666051708161831
1783696080487286300,9.666286376953124,-1.1582527160644531,-0.5597419142723083,0.007225469686090946
1783696080497250300,9.676250244140626,-1.16560697555542,-0.5670663118362427,-0.02109619602560997
1783696080507213000,9.686213134765625,-1.1695005893707275,-0.5660489797592163,-0.06665382534265518
1783696080517177000,9.696177001953124,-1.170588731765747,-0.5448794364929199,-0.11971214413642883
1783696080527141400,9.706141357421876,-1.1724302768707275,-0.5230167508125305,-0.16646340489387512
1783696080537104100,9.716104248046875,-1.1700607538223267,-0.502678632736206,-0.19300024211406708
1783696080547068200,9.726068115234375,-1.1671850681304932,-0.4873411953449249,-0.21355238556861877
1783696080557031200,9.73603125,-1.1678706407546997,-0.43787336349487305,-0.23998141288757324
1783696080566995200,9.7459951171875,-1.1664272546768188,-0.31488272547721863,-0.23616138100624084
1783696080576959200,9.755959228515625,-1.1764869689941406,-0.21180066466331482,-0.21054580807685852
1783696080586922200,9.765922119140624,-1.1935546398162842,-0.11656416207551956,-0.1492571383714676
1783696080596886300,9.77588623046875,-1.200331449508667,-0.22095230221748352,-0.026924554258584976
1783696080606849300,9.785849365234375,-1.1417157649993896,-0.5413904786109924,-0.018016012385487556
1783696080616813000,9.79581298828125,-1.0753811597824097,-0.7256482243537903,0.006577619351446629
1783696080626777000,9.805777099609376,-1.0677006244659424,-0.7758387327194214,0.06832460314035416
1783696080636740000,9.815739990234375,-1.060347080230713,-0.7381832003593445,0.09062042832374573
1783696080646704000,9.8257041015625,-1.0709233283996582,-0.66827791929245,0.08182401210069656
1783696080656667100,9.835667236328124,-1.0669546127319336,-0.5494829416275024,0.076716348528862
1783696080666631200,9.845631103515625,-1.0743404626846313,-0.38203373551368713,0.12083747237920761
