time,seconds_elapsed,z,y,x
1783695974131078100,0.061078125,0.12618176639080048,-0.016990359872579575,0.1511424034833908
1783695974141041200,0.071041259765625,0.13297230005264282,0.09344188123941422,0.14523550868034363
1783695974151005200,0.081005126953125,0.13457413017749786,0.1712631732225418,0.1548246443271637
1783695974160969200,0.09096923828125,0.13519518077373505,0.20233826339244843,0.18017926812171936
1783695974170934000,0.10093408203125,0.13181385397911072,0.21854519844055176,0.19850079715251923
1783695974180898000,0.11089794921875,0.13146230578422546,0.2086920440196991,0.18337270617485046
1783695974190861800,0.12086181640625,0.12639020383358002,0.18039408326148987,0.13770271837711334
1783695974200826000,0.130826171875,0.10721837729215622,0.16553790867328644,0.08443976938724518
1783695974210790100,0.1407900390625,0.0699906125664711,0.14620602130889893,0.031046783551573753
1783695974220754200,0.150754150390625,0.027545416727662086,0.11040142178535461,-0.01293319184333086
1783695974230718200,0.16071826171875,-0.007316901348531246,0.07359786331653595,-0.03498321399092674
1783695974240681000,0.170680908203125,-0.019965849816799164,0.05115247890353203,-0.04851260781288147
1783695974250645200,0.180645263671875,-0.024804722517728806,0.04795961081981659,-0.05054626241326332
1783695974260609000,0.190609130859375,-0.02260361984372139,0.05047896131873131,-0.04609425738453865
1783695974270573000,0.200572998046875,-0.01232254970818758,0.0350792370736599,-0.03233460336923599
1783695974280537000,0.210537109375,-0.0032113431952893734,0.011332095600664616,-0.006504604127258062
1783695974290501000,0.220501220703125,0.008419746533036232,-0.02218352071940899,0.039614155888557434
1783695974300465200,0.230465087890625,0.02121436968445778,-0.0695853903889656,0.0798736959695816
1783695974310429200,0.24042919921875,0.04570160433650017,-0.115218386054039,0.09840050339698792
1783695974320393000,0.25039306640625,0.07198353856801987,-0.1366555094718933,0.09935364872217178
1783695974330357000,0.26035693359375,0.09425774961709976,-0.1394595503807068,0.08970841020345688
1783695974340321000,0.270321044921875,0.10811177641153336,-0.1343260407447815,0.06912004947662354
1783695974350284000,0.280283935546875,0.11346162110567093,-0.11281009018421173,0.04040157049894333
1783695974360248000,0.290248046875,0.09884432703256607,-0.0690961703658104,0.004867809358984232
1783695974370212000,0.300212158203125,0.07602586597204208,-0.01774749532341957,-0.026227742433547974
1783695974380176100,0.310176025390625,0.04147880896925926,0.02318475767970085,-0.0591108575463295
1783695974390140200,0.32014013671875,0.0018963629845529795,0.04870849475264549,-0.09260077029466629
1783695974400104000,0.33010400390625,-0.050880298018455505,0.03709737956523895,-0.1356489062309265
1783695974410068000,0.34006787109375,-0.10392779856920242,0.004094689153134823,-0.18661567568778992
1783695974420032000,0.350031982421875,-0.15774016082286835,-0.02851465344429016,-0.23731587827205658
1783695974429996000,0.35999609375,-0.19424757361412048,-0.04083017632365227,-0.2722848057746887
1783695974439960000,0.3699599609375,-0.2204405665397644,-0.037807222455739975,-0.28191158175468445
1783695974449923000,0.379923095703125,-0.2346358299255371,-0.03244175389409065,-0.26429539918899536
1783695974459887000,0.38988720703125,-0.2372923344373703,-0.01793791353702545,-0.217385932803154
1783695974469851100,0.39985107421875,-0.23255570232868195,0.0042422255501151085,-0.15762554109096527
1783695974479815000,0.40981494140625,-0.22072887420654297,0.024480918422341347,-0.08523496985435486
1783695974489779000,0.419779052734375,-0.20521821081638336,0.04464264214038849,-0.02147764340043068
1783695974499743000,0.429742919921875,-0.18969464302062988,0.05295676738023758,0.015429507941007614
1783695974509707000,0.43970703125,-0.17971909046173096,0.04334409162402153,0.035008449107408524
1783695974519671000,0.449671142578125,-0.18055053055286407,0.026471365243196487,0.048920270055532455
1783695974529635000,0.459635009765625,-0.18708811700344086,0.012569135054945946,0.057459332048892975
1783695974539598800,0.469598876953125,-0.19205331802368164,0.0013827923685312271,0.061308663338422775
1783695974549563000,0.47956298828125,-0.18509352207183838,-0.015004703775048256,0.06494108587503433
1783695974559526000,0.48952587890625,-0.17528723180294037,-0.03605140000581741,0.0734938234090805
1783695974569490000,0.499489990234375,-0.16276389360427856,-0.0633820965886116,0.08463509380817413
1783695974579454000,0.509453857421875,-0.14506693184375763,-0.09137911349534988,0.10111287236213684
1783695974589418000,0.51941796875,-0.12642145156860352,-0.11876358836889267,0.11323240399360657
1783695974599382300,0.52938232421875,-0.11056605726480484,-0.1526363343000412,0.11550088226795197
1783695974609346000,0.539345947265625,-0.10322535037994385,-0.18895412981510162,0.10497565567493439
1783695974619310000,0.54931005859375,-0.09908200055360794,-0.20645536482334137,0.0879892110824585
1783695974629274000,0.559274169921875,-0.1029726192355156,-0.2096884399652481,0.06763184070587158
1783695974639238100,0.569238037109375,-0.11031068861484528,-0.2104029655456543,0.049242179840803146
1783695974649202200,0.5792021484375,-0.11575230211019516,-0.2034161537885666,0.04186714068055153
1783695974659166200,0.589166259765625,-0.11566148698329926,-0.18192684650421143,0.049973003566265106
1783695974669129200,0.599129150390625,-0.12593765556812286,-0.20056551694869995,0.05099717155098915
1783695974679093200,0.60909326171875,-0.15657225251197815,-0.2625367343425751,0.047584064304828644
1783695974689057000,0.61905712890625,-0.18848934769630432,-0.3200884461402893,0.05972832813858986
1783695974699021000,0.62902099609375,-0.20313061773777008,-0.3321685492992401,0.09084603190422058
1783695974708985000,0.638985107421875,-0.20475523173809052,-0.3077891767024994,0.11820831894874573
1783695974718949000,0.64894921875,-0.19766801595687866,-0.2573225200176239,0.13194569945335388
1783695974728913200,0.6589130859375,-0.18279945850372314,-0.17732569575309753,0.11883509159088135
1783695974738877200,0.668877197265625,-0.16192986071109772,-0.1039217934012413,0.07833320647478104
1783695974748841000,0.678841064453125,-0.14690184593200684,-0.04648326709866524,-0.0015034207608550787
1783695974758805000,0.688804931640625,-0.13635705411434174,-0.009256269782781601,-0.09927978366613388
1783695974768769000,0.69876904296875,-0.1311325877904892,0.02738216519355774,-0.20143428444862366
1783695974778732000,0.70873193359375,-0.12809525430202484,0.056353360414505005,-0.29250001907348633
1783695974788696000,0.718696044921875,-0.13000325858592987,0.054017238318920135,-0.3652632534503937
1783695974798660000,0.72866015625,-0.14150013029575348,0.022432412952184677,-0.3963412940502167
1783695974808624000,0.7386240234375,-0.16303086280822754,-0.022867420688271523,-0.38581180572509766
1783695974818588000,0.748587890625,-0.1932164579629898,-0.08619765937328339,-0.340619295835495
1783695974828552000,0.758552001953125,-0.22954991459846497,-0.1630021631717682,-0.2702626883983612
1783695974838516000,0.768515869140625,-0.26819929480552673,-0.2541254162788391,-0.1876884549856186
1783695974848480000,0.77847998046875,-0.29834043979644775,-0.3398253917694092,-0.10658268630504608
1783695974858444000,0.788444091796875,-0.3160105049610138,-0.3818466067314148,-0.03604220226407051
1783695974868408000,0.798407958984375,-0.31894537806510925,-0.3975382447242737,0.021316125988960266
1783695974878371000,0.80837109375,-0.31134286522865295,-0.3869103491306305,0.06393469125032425
1783695974888335000,0.818335205078125,-0.3047764003276825,-0.35958072543144226,0.10575650632381439
1783695974898299000,0.828298828125,-0.3047676086425781,-0.3321128785610199,0.15388941764831543
1783695974908263000,0.838262939453125,-0.3079445958137512,-0.31087470054626465,0.20910203456878662
1783695974918227000,0.84822705078125,-0.3115372061729431,-0.29455646872520447,0.25201302766799927
1783695974928191000,0.85819091796875,-0.304129421710968,-0.26932594180107117,0.28802359104156494
1783695974938155000,0.868155029296875,-0.2948906421661377,-0.22586020827293396,0.3047783374786377
1783695974948119000,0.878119140625,-0.28830456733703613,-0.17451846599578857,0.2960197925567627
1783695974958083000,0.8880830078125,-0.2857452630996704,-0.13660889863967896,0.26301121711730957
1783695974968047000,0.898047119140625,-0.2920264005661011,-0.10736340284347534,0.22056643664836884
1783695974978011100,0.90801123046875,-0.30253976583480835,-0.08684081584215164,0.17138025164604187
1783695974987974100,0.91797412109375,-0.3055509626865387,-0.08026333153247833,0.13475771248340607
1783695974997938200,0.927938232421875,-0.30550143122673035,-0.07768858969211578,0.11307505518198013
1783695975007902200,0.937902099609375,-0.30726516246795654,-0.05476383492350578,0.10234782844781876
1783695975017866200,0.9478662109375,-0.3046291768550873,-0.014695510268211365,0.09172767400741577
1783695975027830000,0.957830078125,-0.2940727770328522,0.026762450113892555,0.07168517261743546
1783695975037794000,0.9677939453125,-0.28497064113616943,0.05218711495399475,0.0348999947309494
1783695975047758000,0.977758056640625,-0.2740505039691925,0.046626701951026917,-0.013930794782936573
1783695975057722000,0.98772216796875,-0.2645065188407898,0.009050033055245876,-0.06178593635559082
1783695975067686100,0.99768603515625,-0.2599959969520569,-0.032576508820056915,-0.09846074134111404
1783695975077650200,1.007650146484375,-0.2534203827381134,-0.06505216658115387,-0.12092103809118271
1783695975087614000,1.017614013671875,-0.24467426538467407,-0.08603653311729431,-0.12221325933933258
1783695975097577200,1.0275771484375,-0.23185859620571136,-0.10327944159507751,-0.10216417908668518
1783695975107541000,1.037541015625,-0.21717257797718048,-0.12089545279741287,-0.07708669453859329
1783695975117505000,1.047505126953125,-0.19269731640815735,-0.12920424342155457,-0.05173259973526001
1783695975127469000,1.057468994140625,-0.16602088510990143,-0.11917611211538315,-0.03083799220621586
1783695975137433000,1.06743310546875,-0.1376134753227234,-0.10235372185707092,-0.010898636654019356
1783695975147397000,1.077397216796875,-0.10914067178964615,-0.08061566948890686,0.006296295672655106
1783695975157361200,1.087361083984375,-0.08304968476295471,-0.07190899550914764,0.016330555081367493
1783695975167324700,1.09732470703125,-0.06261075288057327,-0.08616010844707489,0.02086949534714222
1783695975177288700,1.107288818359375,-0.05153120309114456,-0.1072869598865509,0.028068553656339645
1783695975187253000,1.1172529296875,-0.04098017141222954,-0.12277297675609589,0.04404653608798981
1783695975197215700,1.1272158203125,-0.03842007741332054,-0.14774730801582336,0.059558648616075516
1783695975207179800,1.1371796875,-0.04755188152194023,-0.18047888576984406,0.07367768883705139
1783695975217143800,1.147143798828125,-0.05832330137491226,-0.20374958217144012,0.09334086626768112
1783695975227108000,1.157108154296875,-0.07488558441400528,-0.21296465396881104,0.11886829882860184
1783695975237072000,1.16707177734375,-0.09331146627664566,-0.21204932034015656,0.13991205394268036
1783695975247036000,1.177035888671875,-0.10868462920188904,-0.19242635369300842,0.14179423451423645
1783695975257000000,1.187,-0.11861448734998703,-0.15657781064510345,0.1302020251750946
1783695975266964000,1.1969638671875,-0.12790954113006592,-0.102049320936203,0.11292169243097305
1783695975276928000,1.206927978515625,-0.1368686854839325,-0.04049142450094223,0.091595359146595
1783695975286892000,1.21689208984375,-0.1379830539226532,0.0042427596636116505,0.0644759014248848
1783695975296855000,1.22685498046875,-0.13037440180778503,0.037716832011938095,0.03492359817028046
1783695975306819000,1.236819091796875,-0.11469161510467529,0.05367609113454819,0.011374594643712044
1783695975316782800,1.246782958984375,-0.10177288949489594,0.05496053397655487,0.0007357985014095902
1783695975326747000,1.256746826171875,-0.0952225774526596,0.04837853088974953,-0.005312772933393717
1783695975336711000,1.2667109375,-0.09175167977809906,0.03895333781838417,-0.007173790130764246
1783695975346675000,1.276675048828125,-0.09169872105121613,0.02648841217160225,0.0014723290223628283
1783695975356639000,1.286638916015625,-0.08971759676933289,0.0007199314422905445,0.015123159624636173
1783695975366603000,1.29660302734375,-0.08773542940616608,-0.022994719445705414,0.03373514488339424
1783695975376566800,1.30656689453125,-0.08587521314620972,-0.024389948695898056,0.059637848287820816
1783695975386530800,1.31653076171875,-0.0897333100438118,-0.02592046745121479,0.08727271854877472
1783695975396494800,1.326494873046875,-0.09100869297981262,-0.032512590289115906,0.11428409814834595
1783695975406457900,1.336457763671875,-0.09617773443460464,-0.03781760856509209,0.14068761467933655
1783695975416422000,1.346421875,-0.09908697009086609,-0.04300517961382866,0.15895982086658478
1783695975426386000,1.356385986328125,-0.09400033205747604,-0.036177366971969604,0.16975979506969452
1783695975436350000,1.366349853515625,-0.08282437920570374,-0.02310151234269142,0.17689600586891174
1783695975446314000,1.37631396484375,-0.06432994455099106,-0.009630977176129818,0.16998037695884705
1783695975456277800,1.38627783203125,-0.04524359852075577,0.01596066914498806,0.15979884564876556
1783695975466241800,1.39624169921875,-0.02315664291381836,0.06457667797803879,0.15688376128673553
1783695975476205800,1.406205810546875,0.004137295763939619,0.13158872723579407,0.1676727682352066
1783695975486169900,1.416169921875,0.05430027097463608,0.2554193437099457,0.1876881718635559
1783695975496134000,1.4261337890625,0.1158488541841507,0.32306522130966187,0.1879052221775055
1783695975506097000,1.436096923828125,0.15298278629779816,0.27426332235336304,0.14841946959495544
1783695975516061000,1.44606103515625,0.16383756697177887,0.206327423453331,0.11547856032848358
1783695975526024700,1.456024658203125,0.18150734901428223,0.17705954611301422,0.11401808261871338
1783695975535988700,1.46598876953125,0.1808871030807495,0.1434110403060913,0.11745569109916687
1783695975545952800,1.475952880859375,0.15155820548534393,0.06541956216096878,0.09790948778390884
1783695975555916800,1.485916748046875,0.0976310595870018,-0.02828216180205345,0.06153629720211029
1783695975565880800,1.495880859375,0.03509926423430443,-0.09368273615837097,0.011530756019055843
1783695975575844900,1.505844970703125,-0.022385066375136375,-0.1219593808054924,-0.03761255368590355
1783695975585809000,1.515808837890625,-0.06794381886720657,-0.1404864639043808,-0.09017754346132278
1783695975595773000,1.52577294921875,-0.1063561886548996,-0.15755359828472137,-0.13113749027252197
1783695975605735700,1.535735595703125,-0.13208317756652832,-0.15862925350666046,-0.14547225832939148
1783695975615699700,1.54569970703125,-0.14255419373512268,-0.14271073043346405,-0.11687789857387543
1783695975625664000,1.5556640625,-0.13540662825107574,-0.10549918562173843,-0.041917357593774796
1783695975635628000,1.5656279296875,-0.10537443310022354,-0.028972184285521507,0.06342131644487381
1783695975645592000,1.575592041015625,-0.05016621574759483,0.07577180117368698,0.18355730175971985
1783695975655555800,1.585555908203125,0.023905880749225616,0.20063810050487518,0.28506821393966675
1783695975665519900,1.595519775390625,0.10357698053121567,0.33130210638046265,0.3368341326713562
1783695975675484000,1.60548388671875,0.1733454018831253,0.427959680557251,0.32784518599510193
1783695975685448000,1.615447998046875,0.23338912427425385,0.46799737215042114,0.2688244879245758
1783695975695412000,1.625411865234375,0.2710829973220825,0.44605398178100586,0.19181494414806366
1783695975705375000,1.635375,0.2919676899909973,0.37614601850509644,0.1245647668838501
1783695975715339000,1.645339111328125,0.30361422896385193,0.28802281618118286,0.07030898332595825
1783695975725303000,1.655302978515625,0.3109108507633209,0.20049163699150085,0.028246136382222176
1783695975735266800,1.665266845703125,0.3017517030239105,0.11859889328479767,-0.011618454940617085
1783695975745230800,1.67523095703125,0.28693944215774536,0.061490871012210846,-0.049686629325151443
1783695975755195000,1.68519482421875,0.2670797109603882,0.01607891358435154,-0.0793481171131134
1783695975765159000,1.695158935546875,0.24702320992946625,-0.03586524352431297,-0.10167276114225388
1783695975775123000,1.705123046875,0.21302662789821625,-0.108437180519104,-0.12785430252552032
1783695975785087000,1.7150869140625,0.1633564531803131,-0.21067087352275848,-0.16629257798194885
1783695975795050800,1.72505078125,0.11725233495235443,-0.3237902522087097,-0.21342946588993073
1783695975805014000,1.735013916015625,0.0901397317647934,-0.39394375681877136,-0.2416454553604126
1783695975814977800,1.744977783203125,0.09113308787345886,-0.4043753743171692,-0.23044607043266296
1783695975824941800,1.75494189453125,0.1076689213514328,-0.34587398171424866,-0.1778864860534668
1783695975834905900,1.76490576171875,0.13712109625339508,-0.22194430232048035,-0.1127876490354538
1783695975844870000,1.774869873046875,0.17269252240657806,-0.04110501706600189,-0.0646592378616333
1783695975854834000,1.784833984375,0.2219620645046234,0.18025773763656616,-0.04594626650214195
1783695975864798000,1.7947978515625,0.27565160393714905,0.40208759903907776,-0.06813546270132065
1783695975874761700,1.80476171875,0.31295904517173767,0.5688142776489258,-0.11959013342857361
1783695975884725800,1.814725830078125,0.3344057500362396,0.6354138255119324,-0.1887301504611969
1783695975894689800,1.824689697265625,0.3436985909938812,0.6224721670150757,-0.23928306996822357
1783695975904652800,1.83465283203125,0.32903483510017395,0.5478410720825195,-0.26040512323379517
1783695975914616800,1.844616943359375,0.3021906912326813,0.4263804256916046,-0.2515924572944641
1783695975924580900,1.854580810546875,0.27835530042648315,0.28996825218200684,-0.22426334023475647
1783695975934545000,1.864544921875,0.26077336072921753,0.1713601052761078,-0.18583498895168304
1783695975944508700,1.8745087890625,0.24788331985473633,0.059550490230321884,-0.14962807297706604
1783695975954472700,1.88447265625,0.235728919506073,-0.04939436912536621,-0.11215633153915405
1783695975964436700,1.894436767578125,0.21136890351772308,-0.12488779425621033,-0.07074686884880066
1783695975974401000,1.904401123046875,0.18543609976768494,-0.1662946194410324,-0.031023962423205376
1783695975984365000,1.914364990234375,0.15765026211738586,-0.17219991981983185,-0.0044575463980436325
1783695975994329000,1.9243291015625,0.13027642667293549,-0.15633493661880493,0.006693641655147076
1783695976004291800,1.934291748046875,0.11384639143943787,-0.12130211293697357,0.0002342425286769867
1783695976014256000,1.944256103515625,0.11005058884620667,-0.07287865877151489,-0.01853039115667343
1783695976024220000,1.954219970703125,0.11150888353586197,-0.006568341515958309,-0.03134242817759514
1783695976034184000,1.964183837890625,0.11256083101034164,0.07099462300539017,-0.03394167125225067
1783695976044148000,1.97414794921875,0.11685185879468918,0.13223028182983398,-0.0287893358618021
1783695976054112000,1.984112060546875,0.12281440943479538,0.17937277257442474,-0.008188453502953053
1783695976064076000,1.994075927734375,0.13116566836833954,0.1955421417951584,0.020358053967356682
1783695976074040000,2.0040400390625,0.13705791532993317,0.1833648383617401,0.055998869240283966
1783695976084003800,2.01400390625,0.14621803164482117,0.15012645721435547,0.09210054576396942
1783695976093968000,2.0239677734375,0.1505155712366104,0.09963478893041611,0.13154703378677368
1783695976103931000,2.033930908203125,0.1516602337360382,0.03528137132525444,0.16333957016468048
1783695976113895000,2.04389501953125,0.15025807917118073,-0.04776744171977043,0.18553221225738525
1783695976123859000,2.05385888671875,0.14757435023784637,-0.1436827927827835,0.19310450553894043
1783695976133823000,2.063822998046875,0.14395564794540405,-0.22635263204574585,0.19509920477867126
1783695976143787000,2.073787109375,0.1391904354095459,-0.291236013174057,0.19878721237182617
1783695976153750800,2.083750732421875,0.11682385951280594,-0.3415106534957886,0.20552180707454681
1783695976163714800,2.09371484375,0.08615005761384964,-0.3643088936805725,0.21481598913669586
1783695976173679000,2.10367919921875,0.04998406395316124,-0.3442251980304718,0.23936793208122253
1783695976183643100,2.11364306640625,0.04816248640418053,-0.33076319098472595,0.2609699070453644
1783695976193607200,2.123607177734375,0.06654122471809387,-0.33128225803375244,0.2782503664493561
1783695976203570200,2.133570068359375,0.08607152104377747,-0.3261961340904236,0.29591304063796997
1783695976213534200,2.1435341796875,0.10106884688138962,-0.30552682280540466,0.3129040002822876
1783695976223498000,2.153498046875,0.11285469681024551,-0.27217897772789,0.3311910033226013
1783695976233462000,2.1634619140625,0.12388710677623749,-0.2116013914346695,0.3322538733482361
1783695976243426000,2.173426025390625,0.13175205886363983,-0.11091098934412003,0.3079037070274353
1783695976253390000,2.18339013671875,0.14060761034488678,0.014728425070643425,0.2614920139312744
1783695976263354000,2.19335400390625,0.15269835293293,0.15681739151477814,0.21287254989147186
1783695976273318100,2.203318115234375,0.1751757115125656,0.34172624349594116,0.1925843209028244
1783695976283282000,2.213281982421875,0.23077715933322906,0.5338528156280518,0.19496561586856842
1783695976293246000,2.223245849609375,0.2930666506290436,0.6144629716873169,0.1785632073879242
1783695976303209000,2.233208984375,0.313785195350647,0.6172555685043335,0.14516311883926392
1783695976313173000,2.243173095703125,0.31241872906684875,0.5970997214317322,0.0960158184170723
1783695976323137000,2.253136962890625,0.30363965034484863,0.5410881042480469,0.025893814861774445
1783695976333101000,2.26310107421875,0.2808067798614502,0.4578171670436859,-0.055627405643463135
1783695976343065000,2.273065185546875,0.23989653587341309,0.3737161457538605,-0.13186676800251007
1783695976353029400,2.283029296875,0.1941807121038437,0.32337522506713867,-0.20306424796581268
1783695976362993200,2.2929931640625,0.1666327267885208,0.3106410503387451,-0.2521041929721832
1783695976372957200,2.302957275390625,0.15062180161476135,0.31724753975868225,-0.28453537821769714
1783695976382921200,2.312921142578125,0.14906172454357147,0.32554754614830017,-0.3044518232345581
1783695976392885200,2.32288525390625,0.15415555238723755,0.34497717022895813,-0.3084806501865387
1783695976402848300,2.33284814453125,0.16469037532806396,0.3703664243221283,-0.297002375125885
1783695976412812300,2.342812255859375,0.18088825047016144,0.38529130816459656,-0.2644364535808563
1783695976422776300,2.3527763671875,0.18972034752368927,0.39402222633361816,-0.2178163379430771
1783695976432740000,2.362739990234375,0.1853940486907959,0.38577866554260254,-0.16357706487178802
1783695976442704100,2.3727041015625,0.1724657416343689,0.36871179938316345,-0.1142556369304657
1783695976452668200,2.382668212890625,0.14984937012195587,0.3361778259277344,-0.06629583239555359
1783695976462632200,2.392632080078125,0.12215901166200638,0.28565365076065063,-0.02909133955836296
1783695976472596200,2.40259619140625,0.09531940519809723,0.23858122527599335,0.006815528962761164
1783695976482560300,2.412560302734375,0.07554487138986588,0.21850498020648956,0.037552352994680405
1783695976492523300,2.422523193359375,0.06156220659613609,0.21281594038009644,0.05769277736544609
1783695976502487300,2.4324873046875,0.05510643869638443,0.21004173159599304,0.06553764641284943
1783695976512451000,2.442451171875,0.05112607777118683,0.20291803777217865,0.06876460462808609
1783695976522415000,2.4524150390625,0.041254688054323196,0.20781905949115753,0.07740797847509384
1783695976532379100,2.462379150390625,0.025126051157712936,0.22084270417690277,0.08454897254705429
1783695976542343200,2.47234326171875,-0.0030820302199572325,0.21403247117996216,0.0820029079914093
1783695976552307200,2.48230712890625,-0.03803229331970215,0.1927892416715622,0.07318917661905289
1783695976562271200,2.492271240234375,-0.06491675227880478,0.16928550601005554,0.07594936341047287
1783695976572235000,2.502235107421875,-0.08373358100652695,0.1434219479560852,0.09457577764987946
1783695976582199000,2.512198974609375,-0.09753213822841644,0.1162896677851677,0.11453934758901596
1783695976592162000,2.522162109375,-0.10891582071781158,0.09030840545892715,0.12090909481048584
1783695976602126000,2.5321259765625,-0.12547028064727783,0.05993478372693062,0.09496867656707764
1783695976612090000,2.542090087890625,-0.14882993698120117,0.01709677278995514,0.031229909509420395
1783695976622054100,2.55205419921875,-0.1857527494430542,-0.03873799741268158,-0.07070865482091904
1783695976632018200,2.56201806640625,-0.24181228876113892,-0.11301063001155853,-0.19206224381923676
1783695976641982000,2.57198193359375,-0.30890730023384094,-0.18551519513130188,-0.30782967805862427
1783695976651946000,2.581946044921875,-0.3688100576400757,-0.2185671478509903,-0.38300007581710815
1783695976661910000,2.591909912109375,-0.4170389473438263,-0.2215120643377304,-0.40508922934532166
1783695976671874000,2.6018740234375,-0.4448325037956238,-0.1910657435655594,-0.37633559107780457
1783695976681838000,2.611838134765625,-0.4398263096809387,-0.13314971327781677,-0.3118327856063843
1783695976691801000,2.621801025390625,-0.40713974833488464,-0.06242894381284714,-0.2445129007101059
1783695976701765000,2.63176513671875,-0.3537674844264984,-0.015162894502282143,-0.19215665757656097
1783695976711729200,2.641729248046875,-0.2910018265247345,-0.007421351969242096,-0.1587265282869339
1783695976721693000,2.65169287109375,-0.23605716228485107,-0.014176726341247559,-0.1425754576921463
1783695976731657000,2.661656982421875,-0.19530200958251953,0.005079525522887707,-0.13632528483867645
1783695976741621000,2.67162109375,-0.16248752176761627,0.05557199567556381,-0.1389772742986679
1783695976751585300,2.681585205078125,-0.13140283524990082,0.12842276692390442,-0.14839553833007812
1783695976761549300,2.69154931640625,-0.11300033330917358,0.1740216761827469,-0.1545768678188324
1783695976771513300,2.701513427734375,-0.10391869395971298,0.16152265667915344,-0.1538168042898178
1783695976781477000,2.71147705078125,-0.1010042205452919,0.12145939469337463,-0.14010101556777954
1783695976791440100,2.721440185546875,-0.09374923259019852,0.0779193788766861,-0.10794014483690262
1783695976801404200,2.731404052734375,-0.07764770090579987,0.047711409628391266,-0.07088472694158554
1783695976811368200,2.7413681640625,-0.051345523446798325,0.021392719820141792,-0.030966339632868767
1783695976821332200,2.751332275390625,-0.018903428688645363,-0.005073775537312031,-0.0021735215559601784
1783695976831296300,2.761296142578125,0.018278561532497406,-0.03681546077132225,0.007743557449430227
1783695976841260300,2.77126025390625,0.04995710030198097,-0.06739521026611328,-0.0011219895677641034
1783695976851224000,2.78122412109375,0.0848676785826683,-0.07484007626771927,-0.008357265964150429
1783695976861188000,2.79118798828125,0.12038534134626389,-0.06182254105806351,-0.005682153627276421
1783695976871152000,2.801152099609375,0.15210464596748352,-0.05030250549316406,0.01165715605020523
1783695976881116200,2.8111162109375,0.18162477016448975,-0.05306287482380867,0.045436788350343704
1783695976891079200,2.8210791015625,0.21283328533172607,-0.05167749524116516,0.08693123608827591
1783695976901043200,2.831043212890625,0.24279426038265228,-0.05036322772502899,0.1321667581796646
1783695976911007200,2.84100732421875,0.28174909949302673,-0.0882703959941864,0.17223374545574188
1783695976920971300,2.85097119140625,0.3317381739616394,-0.16916604340076447,0.22220638394355774
1783695976930935000,2.86093505859375,0.38018426299095154,-0.2513328194618225,0.2902333736419678
1783695976940899000,2.870899169921875,0.424295574426651,-0.3106240928173065,0.3767775297164917
1783695976950863000,2.880863037109375,0.46771442890167236,-0.3428661823272705,0.46343597769737244
1783695976960827100,2.8908271484375,0.5273718237876892,-0.3199741840362549,0.5333259105682373
1783695976970791200,2.900791259765625,0.6013986468315125,-0.23496903479099274,0.5670396685600281
1783695976980755200,2.910755126953125,0.6876141428947449,-0.1256377398967743,0.5430389642715454
1783695976990718200,2.92071826171875,0.7563119530677795,-0.08008436858654022,0.46165570616722107
1783695977000682200,2.93068212890625,0.7898557186126709,-0.05136111378669739,0.3502114415168762
1783695977010646000,2.94064599609375,0.8041616678237915,0.04906908795237541,0.25572460889816284
1783695977020610000,2.950610107421875,0.806445837020874,0.1791732907295227,0.1780579835176468
1783695977030574000,2.960573974609375,0.7929190993309021,0.24345535039901733,0.11063633859157562
1783695977040538000,2.9705380859375,0.7660384178161621,0.24911589920520782,0.067170150578022
1783695977050502100,2.980502197265625,0.7465829849243164,0.2506259083747864,0.07074597477912903
1783695977060466200,2.990466064453125,0.7566885948181152,0.28630295395851135,0.10975995659828186
1783695977070430000,3.000429931640625,0.7859295606613159,0.3183807134628296,0.1629326343536377
1783695977080393000,3.01039306640625,0.8239369988441467,0.30341801047325134,0.20374709367752075
1783695977090357000,3.02035693359375,0.8627461791038513,0.27290698885917664,0.21792283654212952
1783695977100321000,3.030321044921875,0.8945829272270203,0.24773025512695312,0.20254185795783997
1783695977110285000,3.04028515625,0.9193559288978577,0.22948865592479706,0.164042130112648
1783695977120249000,3.0502490234375,0.9226931929588318,0.2189609259366989,0.10504905134439468
1783695977130213000,3.060213134765625,0.90787672996521,0.2077210545539856,0.029433656483888626
1783695977140177200,3.07017724609375,0.8762555718421936,0.1971176564693451,-0.0503503791987896
1783695977150141200,3.08014111328125,0.8434723615646362,0.19723963737487793,-0.11363720893859863
1783695977160105200,3.090105224609375,0.823558509349823,0.22873392701148987,-0.15323327481746674
1783695977170068500,3.100068359375,0.8211419582366943,0.28973761200904846,-0.16648836433887482
1783695977180031500,3.110031494140625,0.8435410261154175,0.35256293416023254,-0.16408178210258484
1783695977189995500,3.11999560546875,0.8931037783622742,0.40802592039108276,-0.14257410168647766
1783695977199959600,3.12995947265625,0.9603682160377502,0.46391767263412476,-0.09447920322418213
1783695977209923600,3.139923583984375,1.0427539348602295,0.5366954803466797,-0.01969204470515251
1783695977219887600,3.1498876953125,1.1311368942260742,0.6227288842201233,0.060341037809848785
1783695977229851400,3.159851318359375,1.213096022605896,0.6995051503181458,0.11412224173545837
1783695977239815400,3.1698154296875,1.2752118110656738,0.7329917550086975,0.11095037311315536
1783695977249779500,3.179779541015625,1.3220722675323486,0.715167760848999,0.05435020849108696
1783695977259743500,3.189743408203125,1.3450801372528076,0.6841645836830139,-0.022068731486797333
1783695977269706500,3.19970654296875,1.358875036239624,0.638733446598053,-0.09866683930158615
1783695977279670500,3.20967041015625,1.36257004737854,0.5559235215187073,-0.1725836992263794
1783695977289634600,3.219634521484375,1.3560855388641357,0.45484188199043274,-0.240346759557724
1783695977299598300,3.229598388671875,1.3463504314422607,0.35628682374954224,-0.294036328792572
1783695977309562400,3.239562255859375,1.3366081714630127,0.29165002703666687,-0.32932162284851074
1783695977319526400,3.2495263671875,1.3321772813796997,0.2611347436904907,-0.354806125164032
1783695977329490700,3.25949072265625,1.3378034830093384,0.25565236806869507,-0.37986648082733154
1783695977339454700,3.269454833984375,1.3366302251815796,0.26199042797088623,-0.4049975872039795
1783695977349418800,3.279418701171875,1.3344614505767822,0.2823643982410431,-0.43220844864845276
1783695977359382500,3.289382568359375,1.3466441631317139,0.32236427068710327,-0.4544064998626709
1783695977369346600,3.2993466796875,1.367421269416809,0.3886879086494446,-0.46448948979377747
1783695977379309600,3.3093095703125,1.3917549848556519,0.46045902371406555,-0.4546869397163391
1783695977389273600,3.319273681640625,1.4091938734054565,0.5521854758262634,-0.4284878373146057
1783695977399237600,3.329237548828125,1.4098604917526245,0.6697224974632263,-0.3830391764640808
1783695977409201700,3.33920166015625,1.4024767875671387,0.7884363532066345,-0.3287319839000702
1783695977419165700,3.349165771484375,1.3970081806182861,0.8758959174156189,-0.27662065625190735
1783695977429129700,3.359129638671875,1.3985881805419922,0.9382154941558838,-0.23478159308433533
1783695977439093500,3.369093505859375,1.4027246236801147,0.9481503963470459,-0.20316514372825623
1783695977449057500,3.3790576171875,1.3915436267852783,0.9298678040504456,-0.195801243185997
1783695977459021600,3.389021484375,1.3610503673553467,0.8846135139465332,-0.21433255076408386
1783695977468985600,3.398985595703125,1.3276740312576294,0.8057229518890381,-0.25621795654296875
1783695977478948600,3.408948486328125,1.286299228668213,0.7078635096549988,-0.29804447293281555
1783695977488912600,3.41891259765625,1.253121256828308,0.6137926578521729,-0.31815773248672485
1783695977498876700,3.428876708984375,1.2290422916412354,0.5404888987541199,-0.3011939823627472
1783695977508840400,3.43884033203125,1.2217938899993896,0.5039803981781006,-0.26297736167907715
1783695977518804500,3.448804443359375,1.2222192287445068,0.4980945587158203,-0.2193043977022171
1783695977528768500,3.4587685546875,1.2061773538589478,0.5097522735595703,-0.20001113414764404
1783695977538732500,3.468732666015625,1.1664798259735107,0.5239059329032898,-0.2101486772298813
1783695977548696600,3.478696533203125,1.1208763122558594,0.5146650075912476,-0.23327796161174774
1783695977558660600,3.48866064453125,1.0851327180862427,0.478577584028244,-0.23701970279216766
1783695977568624400,3.498624267578125,1.0565950870513916,0.42485788464546204,-0.20407159626483917
1783695977578587600,3.508587646484375,1.0259398221969604,0.3596391975879669,-0.12878964841365814
1783695977588551400,3.518551513671875,0.9918904900550842,0.30859866738319397,-0.022191571071743965
1783695977598515500,3.528515380859375,0.9548722505569458,0.26956844329833984,0.09647052735090256
1783695977608479500,3.5384794921875,0.9351946711540222,0.23932212591171265,0.21462486684322357
1783695977618443500,3.548443603515625,0.92388516664505,0.23641954362392426,0.323273241519928
1783695977628407600,3.558407470703125,0.9173721671104431,0.2568260133266449,0.4041616916656494
1783695977638371600,3.56837158203125,0.9179090261459351,0.27054688334465027,0.45540130138397217
1783695977648335400,3.57833544921875,0.9128809571266174,0.2832738757133484,0.48151838779449463
1783695977658299400,3.58829931640625,0.9083536267280579,0.31876394152641296,0.48956313729286194
1783695977668263400,3.598263427734375,0.9059242606163025,0.37147030234336853,0.4827353358268738
1783695977678227700,3.608227783203125,0.9038426876068115,0.4154452085494995,0.4629109799861908
1783695977688190500,3.6181904296875,0.9011960625648499,0.4474031627178192,0.43499359488487244
1783695977698154500,3.628154541015625,0.8976029753684998,0.47680017352104187,0.3928891122341156
1783695977708118500,3.638118408203125,0.8937898874282837,0.4935506582260132,0.3332827687263489
1783695977718082600,3.64808251953125,0.8939153552055359,0.4862229824066162,0.2714914381504059
1783695977728046600,3.658046630859375,0.889186680316925,0.4853883385658264,0.2322135716676712
1783695977738010600,3.6680107421875,0.8838402032852173,0.5002381205558777,0.223582923412323
1783695977747974700,3.677974609375,0.8702807426452637,0.5164807438850403,0.2403975874185562
1783695977757938700,3.687938720703125,0.8493375182151794,0.5165268182754517,0.26069363951683044
1783695977767902700,3.69790283203125,0.8198369145393372,0.49386465549468994,0.28120583295822144
1783695977777866500,3.707866455078125,0.7874364256858826,0.4580576717853546,0.29303205013275146
1783695977787830500,3.71783056640625,0.7561466693878174,0.4034617841243744,0.3040255904197693
1783695977797793500,3.72779345703125,0.7222000360488892,0.34570902585983276,0.3241867423057556
1783695977807757600,3.737757568359375,0.6784658432006836,0.29781684279441833,0.34633225202560425
1783695977817721600,3.7477216796875,0.6354407072067261,0.2749043405056,0.3676510155200958
1783695977827685600,3.757685546875,0.602574348449707,0.25895148515701294,0.37196001410484314
1783695977837649700,3.767649658203125,0.5783235430717468,0.2516184449195862,0.35874834656715393
1783695977847613700,3.77761376953125,0.5562661290168762,0.2520959675312042,0.3158067464828491
1783695977857577500,3.787577392578125,0.5382782816886902,0.2451499104499817,0.25858843326568604
1783695977867541500,3.79754150390625,0.5202313661575317,0.22047573328018188,0.19490958750247955
1783695977877505500,3.807505615234375,0.4995309114456177,0.17755621671676636,0.1409560590982437
1783695977887469600,3.817469482421875,0.4809502959251404,0.13839364051818848,0.11192147433757782
1783695977897432600,3.8274326171875,0.4592623710632324,0.12265355885028839,0.11247396469116211
1783695977907396600,3.837396728515625,0.4312818646430969,0.10721628367900848,0.13609062135219574
1783695977917360600,3.847360595703125,0.4031471908092499,0.10664130002260208,0.18568430840969086
1783695977927324400,3.857324462890625,0.37987837195396423,0.14766010642051697,0.2625391483306885
1783695977937288400,3.867288330078125,0.36318239569664,0.23191693425178528,0.34675127267837524
1783695977947252500,3.87725244140625,0.34686094522476196,0.3321908116340637,0.42124253511428833
1783695977957216500,3.887216552734375,0.3314155042171478,0.42417797446250916,0.45893701910972595
1783695977967180500,3.8971806640625,0.3140977919101715,0.5120641589164734,0.45219072699546814
1783695977977144600,3.90714453125,0.29874926805496216,0.5885046124458313,0.40970051288604736
1783695977987108400,3.9171083984375,0.29077258706092834,0.6726794242858887,0.3497903048992157
1783695977997072400,3.927072265625,0.28614309430122375,0.7550757527351379,0.28770682215690613
1783695978007035400,3.937035400390625,0.2905442416667938,0.8171321749687195,0.22115468978881836
1783695978016999400,3.94699951171875,0.29417312145233154,0.858715832233429,0.14914807677268982
1783695978026963500,3.95696337890625,0.29910022020339966,0.8615283966064453,0.07228285074234009
1783695978036927500,3.966927490234375,0.2912868857383728,0.8318725228309631,-0.001661711372435093
1783695978046891500,3.9768916015625,0.287493497133255,0.7716355323791504,-0.06953343749046326
1783695978056855600,3.98685546875,0.26846158504486084,0.6660702228546143,-0.13233350217342377
1783695978066819600,3.996819580078125,0.2508748769760132,0.5436514019966125,-0.18792912364006042
1783695978076783600,4.00678369140625,0.237147256731987,0.4246065020561218,-0.24125789105892181
1783695978086747600,4.01674755859375,0.237725168466568,0.3437044620513916,-0.29091334342956543
1783695978096711700,4.026711669921875,0.2544565498828888,0.29954177141189575,-0.33309391140937805
1783695978106675700,4.03667578125,0.2795240879058838,0.26933327317237854,-0.35812389850616455
1783695978116638700,4.046638671875,0.3095006048679352,0.24329422414302826,-0.3580383062362671
1783695978126602800,4.056602783203125,0.33897513151168823,0.22919438779354095,-0.3291936218738556
1783695978136566500,4.06656640625,0.3592352569103241,0.21276640892028809,-0.2874690294265747
1783695978146530600,4.076530517578125,0.37913334369659424,0.19780397415161133,-0.2354995757341385
1783695978156494600,4.08649462890625,0.38851118087768555,0.19064831733703613,-0.17943580448627472
1783695978166458600,4.096458740234375,0.3963770866394043,0.17791548371315002,-0.11613751947879791
1783695978176423000,4.1064228515625,0.407156378030777,0.16073650121688843,-0.047287970781326294
1783695978186387000,4.116386962890625,0.4187488555908203,0.1591697633266449,0.019700651988387108
1783695978196350700,4.126350830078125,0.4262266159057617,0.15484505891799927,0.0662805363535881
1783695978206314800,4.136314697265625,0.43469467759132385,0.14908969402313232,0.08297509700059891
1783695978216278800,4.14627880859375,0.4394987225532532,0.14458335936069489,0.07344646751880646
1783695978226241800,4.15624169921875,0.4365631341934204,0.11786013841629028,0.05046472325921059
1783695978236205800,4.166205810546875,0.41962283849716187,0.09187940508127213,0.03221859037876129
1783695978246169900,4.176169921875,0.3941230773925781,0.07548151910305023,0.02500302344560623
1783695978256134000,4.1861337890625,0.36810237169265747,0.07239864766597748,0.026276495307683945
1783695978266097700,4.19609765625,0.34709081053733826,0.0753140076994896,0.03956247493624687
1783695978276061700,4.206061767578125,0.33362480998039246,0.0947745218873024,0.05127164348959923
1783695978286025700,4.216025634765625,0.32291197776794434,0.1399555802345276,0.05844593420624733
1783695978295989800,4.22598974609375,0.3188934922218323,0.21191366016864777,0.05777914449572563
1783695978305953800,4.235953857421875,0.3253045082092285,0.29031312465667725,0.05157371237874031
1783695978315917800,4.245917724609375,0.33341071009635925,0.33716559410095215,0.03972902148962021
1783695978325880800,4.255880859375,0.3404499888420105,0.3550979793071747,0.027447853237390518
1783695978335844900,4.265844970703125,0.343746155500412,0.34213903546333313,0.018758924677968025
1783695978345808600,4.27580859375,0.34705621004104614,0.2981114089488983,0.009478341788053513
1783695978355772700,4.285772705078125,0.34976187348365784,0.21066755056381226,-0.0007180172251537442
1783695978365736700,4.29573681640625,0.3463793992996216,0.09566853940486908,0.0037672785110771656
1783695978375700700,4.30570068359375,0.34265992045402527,-0.0006718368967995048,0.02872413955628872
1783695978385664800,4.315664794921875,0.3382371962070465,-0.043754857033491135,0.07070887833833694
1783695978395628800,4.32562890625,0.3390957713127136,-0.04834454879164696,0.11831490695476532
1783695978405592600,4.335592529296875,0.3408931493759155,-0.031103510409593582,0.15756511688232422
1783695978415556600,4.345556640625,0.34400030970573425,0.01132623665034771,0.1816767156124115
1783695978425520600,4.355520751953125,0.34487250447273254,0.06169193983078003,0.18118856847286224
1783695978435483600,4.365483642578125,0.3457716405391693,0.10348652303218842,0.1597234159708023
1783695978445447700,4.37544775390625,0.3482545018196106,0.11770886927843094,0.13338689506053925
1783695978455411700,4.38541162109375,0.3641282916069031,0.13465003669261932,0.12361707538366318
1783695978465375700,4.395375732421875,0.3900405764579773,0.1256655901670456,0.13207527995109558
1783695978475339800,4.40533984375,0.4029119908809662,0.057861246168613434,0.15582308173179626
1783695978485303600,4.415303466796875,0.39067450165748596,-0.012675502337515354,0.18994349241256714
1783695978495267800,4.425267822265625,0.37136682868003845,-0.06137432903051376,0.23763583600521088
1783695978505232000,4.43523193359375,0.33126869797706604,-0.09475492686033249,0.27855291962623596
1783695978515196000,4.44519580078125,0.27616778016090393,-0.12382546067237854,0.3071063756942749
1783695978525160000,4.455159912109375,0.21686558425426483,-0.1383197158575058,0.3184775412082672
1783695978535123000,4.465123046875,0.17172321677207947,-0.1271488219499588,0.31402820348739624
1783695978545087000,4.4750869140625,0.14723597466945648,-0.09053061902523041,0.29281505942344666
1783695978555050800,4.48505078125,0.1399199217557907,-0.0557103268802166,0.2590533196926117
1783695978565014800,4.495014892578125,0.15580488741397858,-0.03629587963223457,0.21574872732162476
1783695978574978800,4.504978759765625,0.1771712750196457,-0.013408937491476536,0.15900999307632446
1783695978584942800,4.51494287109375,0.21169330179691315,-0.010587317869067192,0.0920565202832222
1783695978594907000,4.524906982421875,0.25453120470046997,-0.041777193546295166,0.01757107302546501
1783695978604871000,4.534870849609375,0.2984411418437958,-0.060673922300338745,-0.06451953947544098
1783695978614834700,4.544834716796875,0.3305074870586395,-0.05637584999203682,-0.14587941765785217
1783695978624798700,4.554798828125,0.3456171751022339,-0.04799381643533707,-0.20706979930400848
1783695978634762800,4.5647626953125,0.3571114242076874,-0.029141295701265335,-0.23154650628566742
1783695978644725800,4.574725830078125,0.3662276864051819,0.0010837187292054296,-0.20205733180046082
1783695978654689800,4.584689697265625,0.35438260436058044,0.05496532469987869,-0.13138456642627716
1783695978664653800,4.59465380859375,0.3439997434616089,0.12163809686899185,-0.04546407237648964
1783695978674617900,4.604617919921875,0.3490234315395355,0.1820327341556549,0.032819464802742004
1783695978684581600,4.61458154296875,0.3664977550506592,0.23238112032413483,0.08615219593048096
1783695978694545700,4.624545654296875,0.3928053081035614,0.26917803287506104,0.12076731771230698
1783695978704509700,4.634509765625,0.42922696471214294,0.29397231340408325,0.14515841007232666
1783695978714473700,4.6444736328125,0.4608527719974518,0.3140421509742737,0.16406148672103882
1783695978724437800,4.654437744140625,0.4862920939922333,0.31634581089019775,0.17457431554794312
1783695978734400800,4.66440087890625,0.4881880283355713,0.3025042712688446,0.17921628057956696
1783695978744364800,4.67436474609375,0.48360127210617065,0.2846432626247406,0.17641490697860718
1783695978754328800,4.684328857421875,0.479816734790802,0.26396462321281433,0.16135622560977936
1783695978764292600,4.694292724609375,0.47676610946655273,0.23163676261901855,0.12673193216323853
1783695978774256600,4.704256591796875,0.4766201376914978,0.1686418205499649,0.07324536144733429
1783695978784220700,4.714220703125,0.4760536849498749,0.0895904153585434,0.004812781699001789
1783695978794184700,4.724184814453125,0.48641103506088257,0.019424106925725937,-0.06814984232187271
1783695978804148700,4.734148681640625,0.4960823059082031,-0.030482199043035507,-0.1373845636844635
1783695978814112800,4.74411279296875,0.502400279045105,-0.05060051381587982,-0.20508615672588348
1783695978824076500,4.75407666015625,0.5025885701179504,-0.04382889345288277,-0.2672451436519623
1783695978834040600,4.76404052734375,0.4911215901374817,-0.009721525944769382,-0.3289870619773865
1783695978844003600,4.774003662109375,0.4746778905391693,0.040847908705472946,-0.39094817638397217
1783695978853967600,4.783967529296875,0.4626326858997345,0.08822102099657059,-0.4418177604675293
1783695978863931600,4.793931640625,0.45376622676849365,0.1211715117096901,-0.46768423914909363
1783695978873895700,4.803895751953125,0.45628246665000916,0.15601497888565063,-0.44743645191192627
1783695978883860000,4.81385986328125,0.46582749485969543,0.21341195702552795,-0.38290566205978394
1783695978893823700,4.82382373046875,0.4810243248939514,0.2850049138069153,-0.3047886788845062
1783695978903787800,4.833787841796875,0.49749916791915894,0.33727478981018066,-0.24366751313209534
1783695978913751800,4.843751708984375,0.5206822156906128,0.3704953193664551,-0.22107180953025818
1783695978923715800,4.8537158203125,0.5439830422401428,0.387755811214447,-0.2295292168855667
1783695978933679900,4.863679931640625,0.5591792464256287,0.368673175573349,-0.25176072120666504
1783695978943643000,4.873642822265625,0.5694750547409058,0.3344944417476654,-0.26709651947021484
1783695978953607000,4.88360693359375,0.5676864981651306,0.29826292395591736,-0.2610272467136383
1783695978963571000,4.893571044921875,0.5553760528564453,0.2719772756099701,-0.22305378317832947
1783695978973534700,4.90353466796875,0.5368984937667847,0.2719050943851471,-0.16181088984012604
1783695978983498800,4.913498779296875,0.5188707709312439,0.2631816565990448,-0.10500592738389969
1783695978993462800,4.923462890625,0.5021834373474121,0.2393932193517685,-0.06850194185972214
1783695979003426800,4.9334267578125,0.4884633719921112,0.20359261333942413,-0.047968704253435135
1783695979013390800,4.943390869140625,0.4769665002822876,0.16429927945137024,-0.038579780608415604
1783695979023355000,4.95335498046875,0.46396973729133606,0.12439979612827301,-0.03007843904197216
1783695979033318700,4.963318603515625,0.4510427415370941,0.09010600298643112,-0.014870725572109222
1783695979043282000,4.973281982421875,0.4314369559288025,0.07144070416688919,0.008134492672979832
1783695979053245700,4.98324560546875,0.4073786437511444,0.06349276751279831,0.03415274620056152
1783695979063209700,4.993209716796875,0.37646597623825073,0.05887511372566223,0.05484257638454437
1783695979073173800,5.003173828125,0.34360331296920776,0.06005143001675606,0.06969930231571198
1783695979083137800,5.0131376953125,0.3120640218257904,0.06212550029158592,0.09058194607496262
1783695979093101800,5.023101806640625,0.27980852127075195,0.069204181432724,0.11362326890230179
1783695979103065900,5.03306591796875,0.24259507656097412,0.07416858524084091,0.13805191218852997
1783695979113029600,5.043029541015625,0.20642301440238953,0.07020553201436996,0.15828627347946167
1783695979122993700,5.05299365234375,0.16540208458900452,0.0669732540845871,0.17910926043987274
1783695979132957700,5.062957763671875,0.11869172006845474,0.061491936445236206,0.19734729826450348
1783695979142920700,5.072920654296875,0.08087829500436783,0.05989989638328552,0.21289271116256714
1783695979152884700,5.082884765625,0.04868623986840248,0.05981920287013054,0.22154517471790314
1783695979162848800,5.092848876953125,0.021972602233290672,0.06305094808340073,0.22403550148010254
1783695979172813000,5.10281298828125,-0.0008225751225836575,0.06400275975465775,0.2135361284017563
1783695979182776800,5.11277685546875,-0.020313186571002007,0.07301143556833267,0.1940588355064392
1783695979192740900,5.122740966796875,-0.04050453379750252,0.0777856856584549,0.16220469772815704
1783695979202705000,5.132704833984375,-0.054321546107530594,0.07653187215328217,0.12399739772081375
1783695979212669000,5.1426689453125,-0.05894843488931656,0.07867065817117691,0.09637875109910965
1783695979222633000,5.152633056640625,-0.06015324592590332,0.050225164741277695,0.0720347911119461
1783695979232596000,5.162595947265625,-0.07600551098585129,-0.018206888809800148,0.04383549839258194
1783695979242560000,5.17256005859375,-0.1067676842212677,-0.0919165313243866,0.01778791844844818
1783695979252523800,5.182523681640625,-0.13297143578529358,-0.15208345651626587,-0.006959270685911179
1783695979262487800,5.19248779296875,-0.1662052869796753,-0.21017871797084808,-0.03429901972413063
1783695979272451800,5.202451904296875,-0.21204663813114166,-0.23829664289951324,-0.05858664959669113
1783695979282415900,5.212415771484375,-0.26024746894836426,-0.2296256572008133,-0.08976267278194427
1783695979292380000,5.2223798828125,-0.30049195885658264,-0.16923262178897858,-0.11952220648527145
1783695979302344000,5.232343994140625,-0.31983184814453125,-0.06318315118551254,-0.14277052879333496
1783695979312307700,5.2423076171875,-0.3123534023761749,0.05981787294149399,-0.15495876967906952
1783695979322271700,5.252271728515625,-0.2912510335445404,0.1543734073638916,-0.16034767031669617
1783695979332235800,5.26223583984375,-0.2678958773612976,0.1745351403951645,-0.16686458885669708
1783695979342198800,5.27219873046875,-0.2444789707660675,0.1360039860010147,-0.1710827648639679
1783695979352162800,5.282162841796875,-0.22284294664859772,0.06307358294725418,-0.16614872217178345
1783695979362126800,5.292126953125,-0.2138473242521286,-0.015586872585117817,-0.1463947296142578
1783695979372091000,5.3020908203125,-0.225314199924469,-0.08941581845283508,-0.11590992659330368
1783695979382055000,5.312054931640625,-0.2508952021598816,-0.15926493704319,-0.08339672535657883
1783695979392018700,5.322018798828125,-0.28911417722702026,-0.2198137789964676,-0.04228625446557999
1783695979401982700,5.331982666015625,-0.33082088828086853,-0.2579616904258728,0.005361692514270544
1783695979411946800,5.34194677734375,-0.35394853353500366,-0.28150641918182373,0.06295988708734512
1783695979421911000,5.3519111328125,-0.36329036951065063,-0.2915247082710266,0.12129882723093033
1783695979431873800,5.361873779296875,-0.35900208353996277,-0.27348020672798157,0.18026098608970642
1783695979441837800,5.371837890625,-0.34480077028274536,-0.23596131801605225,0.2257658839225769
1783695979451801900,5.3818017578125,-0.33414527773857117,-0.18278251588344574,0.2480541169643402
1783695979461766000,5.391765869140625,-0.3208758234977722,-0.1297917366027832,0.2516009211540222
1783695979471730000,5.40172998046875,-0.3142441511154175,-0.08434303104877472,0.2380816638469696
1783695979481694000,5.41169384765625,-0.30669090151786804,-0.05196165665984154,0.2217801958322525
1783695979491658000,5.421657958984375,-0.30800139904022217,-0.0299045592546463,0.2051035463809967
1783695979501622000,5.4316220703125,-0.31166964769363403,-0.009582778438925743,0.19598540663719177
1783695979511586000,5.4415859375,-0.32097291946411133,0.012064997106790543,0.18056590855121613
1783695979521549800,5.4515498046875,-0.33784082531929016,0.04847094044089317,0.15247328579425812
1783695979531513000,5.46151318359375,-0.3585369884967804,0.07349666953086853,0.10350871086120605
1783695979541476900,5.471476806640625,-0.38083615899086,0.07346390932798386,0.031977009028196335
1783695979551441000,5.48144091796875,-0.40476304292678833,0.06340860575437546,-0.05208689719438553
1783695979561405000,5.491405029296875,-0.4291413426399231,0.04409908875823021,-0.1422540843486786
1783695979571369000,5.501368896484375,-0.4580238163471222,0.01800091564655304,-0.23471014201641083
1783695979581333000,5.5113330078125,-0.4792231321334839,-0.01805242709815502,-0.30738356709480286
1783695979591297000,5.521297119140625,-0.4857427775859833,-0.05644802004098892,-0.3456581234931946
1783695979601260800,5.5312607421875,-0.4761737883090973,-0.07833494246006012,-0.34465864300727844
1783695979611224800,5.541224853515625,-0.4559810161590576,-0.08596942573785782,-0.3045823276042938
1783695979621187800,5.551187744140625,-0.4214201271533966,-0.06681197136640549,-0.2410946786403656
1783695979631151900,5.56115185546875,-0.37884438037872314,-0.03639974072575569,-0.16421546041965485
1783695979641116000,5.571115966796875,-0.3334100544452667,-0.00813294854015112,-0.08569454401731491
1783695979651080000,5.581079833984375,-0.28765401244163513,0.005645181518048048,-0.024283118546009064
1783695979661044000,5.5910439453125,-0.250493586063385,-0.004238874185830355,0.025998692959547043
1783695979671007700,5.6010078125,-0.22364002466201782,-0.027877893298864365,0.06694098562002182
1783695979680971800,5.6109716796875,-0.20651111006736755,-0.06160629913210869,0.10356717556715012
1783695979690935800,5.620935791015625,-0.197731614112854,-0.09716775268316269,0.12903288006782532
1783695979700899800,5.63089990234375,-0.19803227484226227,-0.13942866027355194,0.13835102319717407
1783695979710864000,5.64086376953125,-0.20134727656841278,-0.18505233526229858,0.12870624661445618
1783695979720827000,5.650826904296875,-0.20928855240345,-0.215525820851326,0.10240619629621506
1783695979730791000,5.660791015625,-0.2240193486213684,-0.2245267629623413,0.07190694659948349
1783695979740755000,5.6707548828125,-0.2447478026151657,-0.23477354645729065,0.04731239005923271
1783695979750718700,5.68071875,-0.27083033323287964,-0.24399234354496002,0.03485595062375069
1783695979760682800,5.690682861328125,-0.2932792007923126,-0.2248428910970688,0.04235194995999336
1783695979770646800,5.700646728515625,-0.31939226388931274,-0.1688576489686966,0.050073884427547455
1783695979780610800,5.71061083984375,-0.34541401267051697,-0.10744249075651169,0.041406095027923584
1783695979790574800,5.720574951171875,-0.3715704679489136,-0.05352386459708214,0.016311179846525192
1783695979800539000,5.730538818359375,-0.4008418023586273,-0.016253726556897163,-0.019460400566458702
1783695979810502000,5.740501953125,-0.42228615283966064,0.012337971478700638,-0.05524401366710663
1783695979820466000,5.7504658203125,-0.4288175702095032,0.039877720177173615,-0.0821872130036354
1783695979830429700,5.7604296875,-0.4264204800128937,0.057741403579711914,-0.09549752622842789
1783695979840393700,5.770393798828125,-0.41399869322776794,0.05126965790987015,-0.09242130815982819
1783695979850357800,5.780357666015625,-0.4003370702266693,0.02757125161588192,-0.06696178764104843
1783695979860322000,5.790322021484375,-0.3849376142024994,-0.01219906471669674,-0.02019800990819931
1783695979870286000,5.8002861328125,-0.35690370202064514,-0.06917952746152878,0.030954571440815926
1783695979880249900,5.810249755859375,-0.3250238001346588,-0.11436884105205536,0.08545749634504318
1783695979890214000,5.8202138671875,-0.29951751232147217,-0.14264069497585297,0.13470661640167236
1783695979900178000,5.830177978515625,-0.2817251980304718,-0.1584010124206543,0.17059403657913208
1783695979910141000,5.840140869140625,-0.27162840962409973,-0.16204634308815002,0.19128692150115967
1783695979920105000,5.85010498046875,-0.26872023940086365,-0.16428419947624207,0.19359348714351654
1783695979930069000,5.860069091796875,-0.26847681403160095,-0.18664036691188812,0.1895582228899002
1783695979940033000,5.870032958984375,-0.27459704875946045,-0.20836590230464935,0.1913268268108368
1783695979949997000,5.8799970703125,-0.27827736735343933,-0.22635236382484436,0.2050633281469345
1783695979959960800,5.8899609375,-0.2794094979763031,-0.21028205752372742,0.22875399887561798
1783695979969924900,5.8999248046875,-0.27547487616539,-0.15434394776821136,0.2547573149204254
1783695979979889000,5.909888916015625,-0.26166772842407227,-0.09047496318817139,0.2891744077205658
1783695979989853000,5.91985302734375,-0.24325257539749146,-0.022827472537755966,0.33877256512641907
1783695979999816000,5.92981591796875,-0.2183922380208969,0.031756144016981125,0.39832189679145813
1783695980009780000,5.939780029296875,-0.21454377472400665,0.055128313601017,0.4520927965641022
1783695980019744000,5.949743896484375,-0.22807848453521729,0.05800266191363335,0.4704558253288269
1783695980029708000,5.9597080078125,-0.25209155678749084,0.06897754222154617,0.45188817381858826
1783695980039671800,5.969671875,-0.28235065937042236,0.06789496541023254,0.3950594961643219
1783695980049635800,5.9796357421875,-0.3364047408103943,0.022714445367455482,0.3041604161262512
1783695980059600000,5.989599853515625,-0.4011925160884857,-0.0530727282166481,0.20073816180229187
1783695980069564000,5.99956396484375,-0.4814514219760895,-0.15294605493545532,0.12085499614477158
1783695980079528000,6.00952783203125,-0.5517114400863647,-0.22690443694591522,0.09453151375055313
1783695980089491000,6.019490966796875,-0.5990513563156128,-0.27251479029655457,0.11547180265188217
1783695980099455000,6.029455078125,-0.6104118227958679,-0.2742043137550354,0.17670799791812897
1783695980109418800,6.039418701171875,-0.5921942591667175,-0.23470138013362885,0.26373377442359924
1783695980119382800,6.0493828125,-0.5488278865814209,-0.16447807848453522,0.34759989380836487
1783695980129346800,6.059346923828125,-0.49112921953201294,-0.08121567964553833,0.4070509672164917
1783695980139310800,6.069310791015625,-0.43554025888442993,0.00019555119797587395,0.439269095659256
1783695980149275000,6.07927490234375,-0.386066734790802,0.05620449408888817,0.4423346519470215
1783695980159239000,6.089239013671875,-0.34821414947509766,0.09381445497274399,0.4239969253540039
1783695980169202700,6.09920263671875,-0.3201857805252075,0.11616956442594528,0.39578738808631897
1783695980179167200,6.109167236328125,-0.287609726190567,0.15176697075366974,0.3701099753379822
1783695980189130200,6.119130126953125,-0.24586839973926544,0.18315072357654572,0.3630867004394531
1783695980199094300,6.12909423828125,-0.19001711905002594,0.21459493041038513,0.3768081068992615
1783695980209058300,6.139058349609375,-0.14301134645938873,0.1988905370235443,0.3969874978065491
1783695980219022300,6.149022216796875,-0.11530061811208725,0.14756929874420166,0.40904390811920166
1783695980228986600,6.158986572265625,-0.09602344781160355,0.07845307886600494,0.4045787751674652
1783695980238950400,6.168950439453125,-0.08317076414823532,0.012329445220530033,0.37520942091941833
1783695980248914400,6.17891455078125,-0.07730621099472046,-0.06406280398368835,0.3195755183696747
1783695980258878500,6.18887841796875,-0.0826096311211586,-0.14280982315540314,0.24721743166446686
1783695980268842500,6.198842529296875,-0.09983475506305695,-0.21996398270130157,0.16435803472995758
1783695980278805500,6.208805419921875,-0.13181425631046295,-0.2904205620288849,0.0835137888789177
1783695980288769500,6.21876953125,-0.18015246093273163,-0.36558297276496887,0.01790744997560978
1783695980298733600,6.228733642578125,-0.24323450028896332,-0.43248850107192993,-0.03144332021474838
1783695980308697300,6.238697265625,-0.3255196511745453,-0.5075659155845642,-0.0771477147936821
1783695980318661400,6.248661376953125,-0.4194813072681427,-0.6003472805023193,-0.13767337799072266
1783695980328625400,6.25862548828125,-0.5045703053474426,-0.7011377811431885,-0.2097846120595932
1783695980338589400,6.26858935546875,-0.554828941822052,-0.7657455205917358,-0.2596650719642639
1783695980348553500,6.278553466796875,-0.567599892616272,-0.7804504632949829,-0.24549901485443115
1783695980358517500,6.288517578125,-0.5500091910362244,-0.759533166885376,-0.16431814432144165
1783695980368480500,6.29848046875,-0.5108530521392822,-0.6933488249778748,-0.04266984388232231
1783695980378444500,6.308444580078125,-0.46428847312927246,-0.5772515535354614,0.06937120109796524
1783695980388408300,6.318408203125,-0.4192754626274109,-0.42585456371307373,0.12570664286613464
1783695980398372400,6.328372314453125,-0.3927604854106903,-0.28672754764556885,0.11205767840147018
1783695980408336400,6.33833642578125,-0.37736058235168457,-0.18848274648189545,0.05799020454287529
1783695980418300400,6.348300537109375,-0.3809332251548767,-0.14214028418064117,0.0038113854825496674
1783695980428264400,6.358264404296875,-0.40123164653778076,-0.14922349154949188,-0.027372881770133972
1783695980438228500,6.368228515625,-0.42480596899986267,-0.21618707478046417,-0.03516422584652901
1783695980448192300,6.378192138671875,-0.44147437810897827,-0.3310803771018982,-0.011832171119749546
1783695980458155500,6.388155517578125,-0.44667795300483704,-0.44339120388031006,0.03974020853638649
1783695980468119300,6.398119384765625,-0.4549117982387543,-0.5516087412834167,0.11224378645420074
1783695980478083300,6.408083251953125,-0.46097368001937866,-0.6732316017150879,0.18885627388954163
1783695980488047400,6.41804736328125,-0.4632939100265503,-0.8021624088287354,0.2802424728870392
1783695980498011400,6.428011474609375,-0.46473947167396545,-0.9183691740036011,0.3848378658294678
1783695980507975400,6.437975341796875,-0.46607300639152527,-0.9882547855377197,0.494478702545166
1783695980517939500,6.447939453125,-0.4668663740158081,-1.0106745958328247,0.5799975991249084
1783695980527903200,6.4579033203125,-0.46917539834976196,-0.979273796081543,0.6304091215133667
1783695980537867300,6.4678671875,-0.47832176089286804,-0.9307550191879272,0.6438027024269104
1783695980547830300,6.477830322265625,-0.4999561607837677,-0.904255747795105,0.6273115873336792
1783695980557794300,6.487794189453125,-0.5304663777351379,-0.9091924428939819,0.5918648838996887
1783695980567758300,6.49775830078125,-0.5772062540054321,-0.9356363415718079,0.5622197389602661
1783695980577722400,6.507722412109375,-0.6445637345314026,-0.9801864624023438,0.5370680689811707
1783695980587686400,6.517686279296875,-0.7262743711471558,-0.9735628962516785,0.5230458974838257
1783695980597650200,6.527650146484375,-0.8053655028343201,-0.9236992001533508,0.4950270354747772
1783695980607614200,6.5376142578125,-0.8799201250076294,-0.8437093496322632,0.4525054693222046
1783695980617578200,6.547578125,-0.955996036529541,-0.7266373038291931,0.39621636271476746
1783695980627542500,6.55754248046875,-1.0242003202438354,-0.6126137971878052,0.33742836117744446
1783695980637505300,6.56750537109375,-1.0893076658248901,-0.5321010947227478,0.27983829379081726
1783695980647469300,6.57746923828125,-1.1526662111282349,-0.4919339716434479,0.22586289048194885
1783695980657433300,6.587433349609375,-1.2134238481521606,-0.5269308686256409,0.1805601269006729
1783695980667397400,6.5973974609375,-1.2763142585754395,-0.6048567891120911,0.15302786231040955
1783695980677361400,6.607361328125,-1.3398358821868896,-0.695270299911499,0.15223130583763123
1783695980687325400,6.617325439453125,-1.4056131839752197,-0.7828273177146912,0.17832188308238983
1783695980697289500,6.62728955078125,-1.4735283851623535,-0.8531843423843384,0.21242232620716095
1783695980707253500,6.63725341796875,-1.5394231081008911,-0.9088694453239441,0.24268445372581482
1783695980717217500,6.647217529296875,-1.6085667610168457,-0.9440399408340454,0.25934118032455444
1783695980727180500,6.6571806640625,-1.6807754039764404,-0.9350096583366394,0.2582625448703766
1783695980737144600,6.66714453125,-1.7300161123275757,-0.8804638981819153,0.23408955335617065
1783695980747108400,6.6771083984375,-1.7533857822418213,-0.8092975616455078,0.18181249499320984
1783695980757072400,6.687072265625,-1.7857229709625244,-0.75302654504776,0.09078004956245422
1783695980767036400,6.697036376953125,-1.8318408727645874,-0.7064899206161499,-0.027677098289132118
1783695980777000400,6.70700048828125,-1.8833975791931152,-0.7029972076416016,-0.13675564527511597
1783695980786964500,6.716964599609375,-1.9367406368255615,-0.7375690340995789,-0.2141694277524948
1783695980796928500,6.726928466796875,-1.9861254692077637,-0.7791524529457092,-0.23776236176490784
1783695980806892300,6.736892333984375,-2.029592275619507,-0.8354202508926392,-0.22603580355644226
1783695980816856300,6.746856201171875,-2.075136661529541,-0.8975592255592346,-0.19352711737155914
1783695980826819300,6.7568193359375,-2.1130669116973877,-0.9320117831230164,-0.17051748931407928
1783695980836783400,6.766783447265625,-2.142908811569214,-0.9255189895629883,-0.17213216423988342
1783695980846747400,6.776747314453125,-2.1583683490753174,-0.891551673412323,-0.19432224333286285
1783695980856711400,6.78671142578125,-2.179710865020752,-0.8598840236663818,-0.2353077530860901
1783695980866675500,6.796675537109375,-2.19976806640625,-0.852168083190918,-0.2799093425273895
1783695980876639500,6.806639404296875,-2.223294973373413,-0.8695595860481262,-0.3296249806880951
1783695980886603300,6.816603271484375,-2.2470059394836426,-0.898125410079956,-0.38417837023735046
1783695980896567300,6.8265673828125,-2.269261598587036,-0.9493542313575745,-0.4389050006866455
1783695980906531300,6.83653125,-2.294489622116089,-0.9973500370979309,-0.4882237911224365
1783695980916494300,6.846494384765625,-2.322633981704712,-1.044328212738037,-0.5249477028846741
1783695980926458400,6.856458251953125,-2.3508598804473877,-1.0876047611236572,-0.5549420118331909
1783695980936422400,6.86642236328125,-2.36983060836792,-1.1296875476837158,-0.5736821293830872
1783695980946386400,6.876386474609375,-2.368180513381958,-1.1708757877349854,-0.5699489116668701
1783695980956350200,6.88635009765625,-2.3530120849609375,-1.2271629571914673,-0.5459508895874023
1783695980966314200,6.896314208984375,-2.335862636566162,-1.2906484603881836,-0.5161559581756592
1783695980976278300,6.9062783203125,-2.319889545440674,-1.3358793258666992,-0.48369359970092773
1783695980986242300,6.9162421875,-2.2986178398132324,-1.3345123529434204,-0.4542037546634674
1783695980996205300,6.926205322265625,-2.2769131660461426,-1.3235840797424316,-0.44631335139274597
1783695981006169300,6.93616943359375,-2.264296770095825,-1.316694974899292,-0.4697370231151581
1783695981016133400,6.94613330078125,-2.2607250213623047,-1.3219027519226074,-0.5155085325241089
1783695981026097400,6.956097412109375,-2.2777814865112305,-1.3548868894577026,-0.568024754524231
1783695981036061200,6.966061279296875,-2.3013010025024414,-1.38705575466156,-0.6108126640319824
1783695981046025200,6.976025146484375,-2.3333306312561035,-1.4097263813018799,-0.6317059397697449
1783695981055989200,6.9859892578125,-2.3611738681793213,-1.4513300657272339,-0.6327145099639893
1783695981065953500,6.99595361328125,-2.3801562786102295,-1.508424162864685,-0.6096720695495605
1783695981075917600,7.00591748046875,-2.3899002075195312,-1.5413658618927002,-0.5723249912261963
1783695981085880300,7.01588037109375,-2.3940184116363525,-1.527309536933899,-0.5349558591842651
1783695981095844400,7.02584423828125,-2.381870985031128,-1.496761441230774,-0.5044581294059753
1783695981105808400,7.035808349609375,-2.3563435077667236,-1.4558019638061523,-0.4724225103855133
1783695981115772400,7.0457724609375,-2.330583333969116,-1.4182837009429932,-0.44168829917907715
1783695981125736400,7.055736328125,-2.3195765018463135,-1.4168742895126343,-0.4142780601978302
1783695981135700500,7.065700439453125,-2.3321456909179688,-1.4560619592666626,-0.387849360704422
1783695981145664500,7.07566455078125,-2.359914541244507,-1.5163811445236206,-0.3722526431083679
1783695981155628500,7.085628662109375,-2.3994245529174805,-1.5927646160125732,-0.3689551055431366
1783695981165592300,7.09559228515625,-2.4394214153289795,-1.6663589477539062,-0.37118420004844666
1783695981175554600,7.105554443359375,-2.4685330390930176,-1.7248587608337402,-0.3752681612968445
1783695981185518600,7.1155185546875,-2.4794363975524902,-1.7586827278137207,-0.3668212294578552
1783695981195482400,7.125482421875,-2.477597951889038,-1.756531000137329,-0.33463481068611145
1783695981205446400,7.1354462890625,-2.4828720092773438,-1.7048124074935913,-0.29991209506988525
1783695981215410400,7.145410400390625,-2.4873976707458496,-1.6258653402328491,-0.279837965965271
1783695981225374500,7.15537451171875,-2.4853053092956543,-1.5412369966506958,-0.2885204255580902
1783695981235338500,7.16533837890625,-2.4683544635772705,-1.4441032409667969,-0.3135536015033722
1783695981245302500,7.175302490234375,-2.4477150440216064,-1.3401031494140625,-0.33278828859329224
1783695981255266300,7.185266357421875,-2.420863389968872,-1.2243618965148926,-0.32121020555496216
1783695981265229600,7.1952294921875,-2.383789300918579,-1.0856375694274902,-0.2710970640182495
1783695981275193300,7.205193359375,-2.3328964710235596,-0.939379096031189,-0.190069317817688
1783695981285157400,7.215157470703125,-2.2672767639160156,-0.8071816563606262,-0.11020801961421967
1783695981295121400,7.225121337890625,-2.1956138610839844,-0.703265905380249,-0.050691157579422
1783695981305085400,7.23508544921875,-2.122373580932617,-0.6349372267723083,-0.02437003143131733
1783695981315049500,7.245049560546875,-2.0437252521514893,-0.5860617756843567,-0.034085508435964584
1783695981325013500,7.255013427734375,-1.980217456817627,-0.569212794303894,-0.06827131658792496
1783695981334977500,7.2649775390625,-1.9271966218948364,-0.6026408076286316,-0.09451384097337723
1783695981344940500,7.2749404296875,-1.871252179145813,-0.6307246088981628,-0.0910254418849945
1783695981354904300,7.284904296875,-1.8189277648925781,-0.6363806128501892,-0.06487905979156494
1783695981364868400,7.294868408203125,-1.7644544839859009,-0.630858838558197,-0.037185586988925934
1783695981374832400,7.304832275390625,-1.7145720720291138,-0.6355148553848267,-0.02199944294989109
1783695981384796700,7.314796630859375,-1.674225091934204,-0.6611208915710449,-0.030786355957388878
1783695981394760700,7.3247607421875,-1.6390728950500488,-0.708564281463623,-0.05198272317647934
1783695981404724500,7.334724365234375,-1.6040735244750977,-0.7671197652816772,-0.06624653935432434
1783695981414688500,7.3446884765625,-1.5714266300201416,-0.8079201579093933,-0.05444794148206711
1783695981424652500,7.354652587890625,-1.531494379043579,-0.8198676109313965,-0.010210423730313778
1783695981434615600,7.364615478515625,-1.493295669555664,-0.8018313646316528,0.0518508180975914
1783695981444579600,7.37457958984375,-1.4603923559188843,-0.7735137343406677,0.10920706391334534
1783695981454543600,7.384543701171875,-1.4188212156295776,-0.7262641787528992,0.14998511970043182
1783695981464507600,7.394507568359375,-1.3679943084716797,-0.6648591756820679,0.17713148891925812
1783695981474471700,7.4044716796875,-1.311932921409607,-0.6208136677742004,0.184442937374115
1783695981484435500,7.414435546875,-1.260983943939209,-0.6191955208778381,0.1828223317861557
1783695981494399500,7.4243994140625,-1.213304877281189,-0.644687294960022,0.18245162069797516
1783695981504363500,7.434363525390625,-1.167932391166687,-0.6541135311126709,0.1978374719619751
1783695981514327600,7.44432763671875,-1.1113882064819336,-0.6411258578300476,0.2221153825521469
1783695981524290600,7.45429052734375,-1.0575437545776367,-0.6063939929008484,0.2542743980884552
1783695981534254600,7.464254638671875,-1.0121018886566162,-0.5480254888534546,0.28284239768981934
1783695981544218600,7.474218505859375,-0.9651729464530945,-0.4937334656715393,0.29621511697769165
1783695981554182700,7.4841826171875,-0.9241335988044739,-0.49257126450538635,0.2705180048942566
1783695981564146400,7.494146484375,-0.9015656113624573,-0.5411691665649414,0.21736229956150055
1783695981574110500,7.5041103515625,-0.8992366790771484,-0.6086342334747314,0.16404394805431366
1783695981584074500,7.514074462890625,-0.9069361090660095,-0.6611528396606445,0.125560000538826
1783695981594038500,7.52403857421875,-0.9167354702949524,-0.6858528256416321,0.10441823303699493
1783695981604002600,7.53400244140625,-0.9208407402038574,-0.6676256656646729,0.10875087231397629
1783695981613965600,7.543965576171875,-0.9274232387542725,-0.6155083775520325,0.13960039615631104
1783695981623929600,7.5539296875,-0.9231064915657043,-0.5406455993652344,0.19031165540218353
1783695981633893400,7.563893310546875,-0.9000973105430603,-0.4435528516769409,0.24542230367660522
1783695981643857400,7.573857421875,-0.860814094543457,-0.35372790694236755,0.2843906283378601
1783695981653821400,7.583821533203125,-0.8040860891342163,-0.29927611351013184,0.2918032705783844
1783695981663785500,7.593785400390625,-0.7357152104377747,-0.28981682658195496,0.2763684391975403
1783695981673749500,7.60374951171875,-0.6825630068778992,-0.32165464758872986,0.2457417994737625
1783695981683713500,7.613713623046875,-0.647472083568573,-0.38035818934440613,0.21043318510055542
1783695981693676500,7.623676513671875,-0.6336646676063538,-0.43263229727745056,0.1785237193107605
1783695981703640600,7.633640625,-0.6342546939849854,-0.47181937098503113,0.15713836252689362
1783695981713604400,7.643604248046875,-0.6444854736328125,-0.49637559056282043,0.1516629010438919
1783695981723568400,7.653568359375,-0.656465470790863,-0.49374333024024963,0.16956563293933868
1783695981733532400,7.663532470703125,-0.6635007858276367,-0.48255565762519836,0.203315868973732
1783695981743496400,7.673496337890625,-0.6625528335571289,-0.47890710830688477,0.2414044439792633
1783695981753460500,7.68346044921875,-0.6505047082901001,-0.4874662458896637,0.2757432162761688
1783695981763424500,7.693424560546875,-0.6304000616073608,-0.5015797019004822,0.29841724038124084
1783695981773388500,7.703388427734375,-0.6056517958641052,-0.5059776306152344,0.3057182729244232
1783695981783351300,7.713351318359375,-0.5721473097801208,-0.49324771761894226,0.29514333605766296
1783695981793315300,7.7233154296875,-0.5377600789070129,-0.4618426561355591,0.2607041299343109
1783695981803279400,7.733279296875,-0.5069873332977295,-0.40753626823425293,0.2017912119626999
1783695981813243600,7.74324365234375,-0.4805876910686493,-0.344212144613266,0.1365344524383545
1783695981823207700,7.753207763671875,-0.4636589288711548,-0.29832589626312256,0.0722307562828064
1783695981833171700,7.763171630859375,-0.4604146480560303,-0.2931647002696991,0.012833740562200546
1783695981843135500,7.773135498046875,-0.45710042119026184,-0.33763575553894043,-0.035876158624887466
1783695981853099500,7.783099609375,-0.4611992835998535,-0.4213772416114807,-0.08401758968830109
1783695981863062500,7.7930625,-0.4695360064506531,-0.5077866911888123,-0.13661427795886993
1783695981873026600,7.803026611328125,-0.47522398829460144,-0.5444323420524597,-0.17718327045440674
1783695981882990600,7.812990478515625,-0.47449991106987,-0.5363834500312805,-0.21021968126296997
1783695981892954600,7.82295458984375,-0.46670272946357727,-0.5043200850486755,-0.23074598610401154
1783695981902918700,7.832918701171875,-0.46758341789245605,-0.46136274933815,-0.2395153045654297
1783695981912882700,7.842882568359375,-0.46691709756851196,-0.4321662485599518,-0.24113716185092926
1783695981922846500,7.852846435546875,-0.4497992992401123,-0.3796418011188507,-0.23131027817726135
1783695981932810500,7.862810546875,-0.4373692572116852,-0.2888125479221344,-0.21211235225200653
1783695981942774500,7.8727744140625,-0.41911742091178894,-0.19386234879493713,-0.19804896414279938
1783695981952737500,7.882737548828125,-0.38347527384757996,-0.10757139325141907,-0.18165747821331024
1783695981962701600,7.89270166015625,-0.3296694755554199,-0.01900665834546089,-0.1696598380804062
1783695981972665600,7.90266552734375,-0.28113147616386414,0.05995819717645645,-0.1496746838092804
1783695981982629600,7.912629638671875,-0.23518425226211548,0.1420605331659317,-0.12952817976474762
1783695981992593400,7.922593505859375,-0.19115369021892548,0.19067786633968353,-0.10334078967571259
1783695982002557400,7.932557373046875,-0.1600683182477951,0.1948113590478897,-0.0735347792506218
1783695982012521500,7.942521484375,-0.14348508417606354,0.17667070031166077,-0.04105060547590256
1783695982022485500,7.952485595703125,-0.13925069570541382,0.1500747948884964,-0.012381297536194324
1783695982032448500,7.962448486328125,-0.14201025664806366,0.10099752247333527,0.003981963265687227
1783695982042412500,7.97241259765625,-0.15086206793785095,0.033348698168992996,0.010250299237668514
1783695982052376600,7.98237646484375,-0.16834492981433868,-0.03204229101538658,0.002318073296919465
1783695982062340600,7.992340576171875,-0.1770564317703247,-0.08964298665523529,-0.008995506912469864
1783695982072304400,8.002304443359375,-0.17386943101882935,-0.11507590860128403,-0.022785354405641556
1783695982082268400,8.012268310546874,-0.1692822128534317,-0.10372686386108398,-0.03219284862279892
1783695982092232400,8.022232421875,-0.16452287137508392,-0.087232306599617,-0.04246918857097626
1783695982102196500,8.032196533203125,-0.1606701910495758,-0.07600121200084686,-0.05461845174431801
1783695982112160500,8.042160400390625,-0.15373186767101288,-0.07040058076381683,-0.06905784457921982
1783695982122123500,8.05212353515625,-0.15581074357032776,-0.06716353446245193,-0.07580303400754929
1783695982132087600,8.062087646484375,-0.16556110978126526,-0.06323936581611633,-0.07587014883756638
1783695982142051600,8.072051513671875,-0.17858847975730896,-0.06362845003604889,-0.07075470685958862
1783695982152015400,8.082015380859374,-0.18954019248485565,-0.05937537923455238,-0.06093429774045944
1783695982161979400,8.0919794921875,-0.2040204107761383,-0.05750690773129463,-0.04823499917984009
1783695982171943400,8.101943359375,-0.22038260102272034,-0.052343837916851044,-0.038702212274074554
1783695982181907500,8.111907470703125,-0.24075177311897278,-0.046002842485904694,-0.03740174323320389
1783695982191871500,8.12187158203125,-0.2603622376918793,-0.04771072790026665,-0.03974878787994385
1783695982201834500,8.13183447265625,-0.27858084440231323,-0.049910761415958405,-0.03749001398682594
1783695982211798500,8.141798583984375,-0.2923176884651184,-0.0577886588871479,-0.02741926908493042
1783695982221762300,8.15176220703125,-0.29929473996162415,-0.06977687776088715,-0.0038952354807406664
1783695982231726300,8.161726318359374,-0.3020510971546173,-0.09273412823677063,0.016892867162823677
1783695982241690400,8.1716904296875,-0.2966049909591675,-0.1280452460050583,0.04026121273636818
1783695982251654400,8.181654296875,-0.2939074635505676,-0.15555250644683838,0.06934532523155212
1783695982261618400,8.191618408203125,-0.2929244935512543,-0.16211161017417908,0.10388300567865372
1783695982271582500,8.20158251953125,-0.2877821922302246,-0.1374073326587677,0.13903620839118958
1783695982281546200,8.211546142578126,-0.2850301265716553,-0.10604646801948547,0.16348302364349365
1783695982291509500,8.221509521484375,-0.28700780868530273,-0.09079507738351822,0.17434099316596985
1783695982301473300,8.231473388671875,-0.2894132137298584,-0.09206142276525497,0.1890895962715149
1783695982311437300,8.241437255859376,-0.2861787974834442,-0.08955725282430649,0.21345964074134827
1783695982321401300,8.2514013671875,-0.27522534132003784,-0.062492866069078445,0.2425435185432434
1783695982331365400,8.261365478515625,-0.26165494322776794,-0.06548305600881577,0.2549043297767639
1783695982341329400,8.271329345703125,-0.26210588216781616,-0.1337401568889618,0.24174389243125916
1783695982351293400,8.28129345703125,-0.2771085500717163,-0.19596971571445465,0.21717862784862518
1783695982361257200,8.29125732421875,-0.2968987822532654,-0.23208989202976227,0.19115865230560303
1783695982371220200,8.30122021484375,-0.30957597494125366,-0.2531576156616211,0.1610284447669983
1783695982381184300,8.311184326171874,-0.327181875705719,-0.2722623348236084,0.12049529701471329
1783695982391148300,8.321148193359376,-0.35856351256370544,-0.3012436628341675,0.07018046081066132
1783695982401112300,8.3311123046875,-0.39726918935775757,-0.28920429944992065,0.022370345890522003
1783695982411076400,8.341076416015625,-0.4357747733592987,-0.22859236598014832,-0.013683529570698738
1783695982421040400,8.351040283203124,-0.4683144986629486,-0.14025478065013885,-0.04591312259435654
1783695982431004200,8.361004150390626,-0.4944467842578888,-0.061666492372751236,-0.07868225872516632
1783695982440968200,8.37096826171875,-0.5071253180503845,-0.01229255273938179,-0.11459922045469284
1783695982450931200,8.38093115234375,-0.5089024901390076,0.006472611799836159,-0.14063481986522675
1783695982460895200,8.390895263671876,-0.5069255828857422,0.005199353210628033,-0.15769226849079132
1783695982470859300,8.400859375,-0.5076918005943298,-0.010545787401497364,-0.1646077036857605
1783695982480823300,8.4108232421875,-0.5070616006851196,-0.04137932509183884,-0.1593947857618332
1783695982490787300,8.420787353515625,-0.5092653632164001,-0.0870131254196167,-0.14531466364860535
1783695982500751600,8.430751708984374,-0.524431586265564,-0.1379261016845703,-0.11627032607793808
1783695982510715400,8.44071533203125,-0.5362607836723328,-0.18190261721611023,-0.08086759597063065
1783695982520679400,8.450679443359375,-0.541180431842804,-0.20726870000362396,-0.04399692639708519
1783695982530643500,8.4606435546875,-0.5422731041908264,-0.2108067125082016,-0.006824523210525513
1783695982540606500,8.4706064453125,-0.5341324806213379,-0.2030414640903473,0.03594261035323143
1783695982550570500,8.480570556640625,-0.5131518244743347,-0.16374465823173523,0.0920756608247757
1783695982560534500,8.490534423828125,-0.49686792492866516,-0.11361517757177353,0.14490142464637756
1783695982570498600,8.50049853515625,-0.48976367712020874,-0.08777879178524017,0.18440861999988556
1783695982580462300,8.51046240234375,-0.484829306602478,-0.0843648836016655,0.2088174819946289
1783695982590426400,8.52042626953125,-0.4872104525566101,-0.08372412621974945,0.21047291159629822
1783695982600390400,8.530390380859375,-0.4875042140483856,-0.06672383844852448,0.20562079548835754
1783695982610354400,8.5403544921875,-0.49146485328674316,-0.04748835787177086,0.17998281121253967
1783695982620317400,8.5503173828125,-0.4930325150489807,-0.037193380296230316,0.15194071829319
1783695982630281500,8.560281494140625,-0.4958434998989105,-0.04339881241321564,0.11565007269382477
1783695982640245500,8.57024560546875,-0.5076287984848022,-0.05230575054883957,0.07495491206645966
1783695982650209500,8.58020947265625,-0.5242908596992493,-0.05097470432519913,0.028113633394241333
1783695982660173300,8.59017333984375,-0.5407158732414246,-0.05426424369215965,-0.027393631637096405
1783695982670137300,8.600137451171875,-0.5502736568450928,-0.06345480680465698,-0.07902726531028748
1783695982680101400,8.610101318359375,-0.5541649460792542,-0.08114352077245712,-0.12103941291570663
1783695982690065400,8.6200654296875,-0.5555574893951416,-0.10940071940422058,-0.1526239663362503
1783695982700028400,8.6300283203125,-0.5442689657211304,-0.13421286642551422,-0.16627958416938782
1783695982709992400,8.639992431640625,-0.53017258644104,-0.1370728313922882,-0.16244569420814514
1783695982719956500,8.64995654296875,-0.5012523531913757,-0.1455310434103012,-0.14833734929561615
1783695982729920500,8.65992041015625,-0.47084519267082214,-0.14255762100219727,-0.11899625509977341
1783695982739884300,8.66988427734375,-0.43505316972732544,-0.1122569739818573,-0.0879959687590599
1783695982749848300,8.679848388671875,-0.3987255096435547,-0.055667463690042496,-0.06132414937019348
1783695982759812400,8.689812255859374,-0.3632838726043701,-0.0075798192992806435,-0.05345814302563667
1783695982769776400,8.6997763671875,-0.32477322220802307,0.008860406465828419,-0.057744767516851425
1783695982779739400,8.709739501953125,-0.2954404056072235,-0.004055124707520008,-0.06465470045804977
1783695982789703400,8.719703369140625,-0.2664809226989746,-0.047083284705877304,-0.05918670445680618
1783695982799667500,8.72966748046875,-0.24592046439647675,-0.11572146415710449,-0.03686841204762459
1783695982809631200,8.73963134765625,-0.23348696529865265,-0.1772567480802536,-0.004624722525477409
1783695982819595300,8.74959521484375,-0.23350484669208527,-0.22384954988956451,0.023269977420568466
1783695982829559300,8.759559326171875,-0.23800425231456757,-0.2567358613014221,0.031631506979465485
1783695982839523300,8.7695234375,-0.24736982583999634,-0.27204132080078125,0.02060544863343239
1783695982849487400,8.7794873046875,-0.24926653504371643,-0.2742847800254822,0.0008304126095026731
1783695982859450400,8.789450439453125,-0.2439386248588562,-0.26178786158561707,-0.0213144700974226
1783695982869414400,8.799414306640625,-0.22564297914505005,-0.25030404329299927,-0.04223466292023659
1783695982879378400,8.80937841796875,-0.2119273841381073,-0.22374939918518066,-0.06701453775167465
1783695982889342200,8.81934228515625,-0.2001410275697708,-0.18494980037212372,-0.09900016337633133
1783695982899306200,8.82930615234375,-0.1908298134803772,-0.13880549371242523,-0.126816987991333
1783695982909270300,8.839270263671875,-0.18061526119709015,-0.08045083284378052,-0.14761067926883698
1783695982919234300,8.849234375,-0.16614557802677155,-0.016036152839660645,-0.16157948970794678
1783695982929198300,8.8591982421875,-0.14823953807353973,0.033601175993680954,-0.16897934675216675
1783695982939162400,8.869162353515625,-0.129367858171463,0.03675753250718117,-0.15866486728191376
1783695982949125400,8.87912548828125,-0.11339820921421051,0.005152735393494368,-0.1269972175359726
1783695982959089200,8.889089111328126,-0.10714840143918991,-0.030690474435687065,-0.07818443328142166
1783695982969053200,8.89905322265625,-0.08504017442464828,-0.0905974879860878,-0.017077675089240074
1783695982979017500,8.909017578125,-0.07060761004686356,-0.13625338673591614,0.04625307768583298
1783695982988981500,8.9189814453125,-0.060075078159570694,-0.1707029640674591,0.10617393255233765
1783695982998945500,8.928945556640626,-0.05031851679086685,-0.1852579265832901,0.15374718606472015
1783695983008909600,8.93890966796875,-0.044810034334659576,-0.18787741661071777,0.1883901208639145
1783695983018873300,8.948873291015625,-0.042359355837106705,-0.1766684502363205,0.20920075476169586
1783695983028836600,8.958836669921874,-0.037174444645643234,-0.15274500846862793,0.2156866192817688
1783695983038800400,8.96880029296875,-0.03950653597712517,-0.1319395899772644,0.21870411932468414
1783695983048764400,8.978764404296875,-0.04228261485695839,-0.11090036481618881,0.21949933469295502
1783695983058728400,8.988728515625,-0.043293584138154984,-0.07430772483348846,0.22097809612751007
1783695983068692500,8.9986923828125,-0.047324277460575104,-0.04545290768146515,0.2246793657541275
1783695983078656500,9.008656494140626,-0.055932775139808655,-0.029369542375206947,0.22342604398727417
1783695983088620500,9.01862060546875,-0.06987122446298599,-0.020636502653360367,0.21969708800315857
1783695983098584300,9.028584228515625,-0.08693190664052963,-0.016793563961982727,0.2205905169248581
1783695983108547300,9.03854736328125,-0.1111496314406395,0.004721048753708601,0.22229918837547302
1783695983118511400,9.048511474609375,-0.12968042492866516,0.03936450555920601,0.2316029965877533
1783695983128475400,9.058475341796875,-0.13779693841934204,0.09448368847370148,0.24479444324970245
1783695983138439400,9.068439453125,-0.14180268347263336,0.16006271541118622,0.23746217787265778
1783695983148403500,9.078403564453126,-0.14608052372932434,0.1977967768907547,0.19195008277893066
1783695983158367500,9.088367431640625,-0.15988431870937347,0.22289811074733734,0.12008503079414368
1783695983168331300,9.098331298828125,-0.18308310210704803,0.23858359456062317,0.04740709811449051
1783695983178296000,9.108296142578125,-0.20792391896247864,0.21469531953334808,-0.011204357258975506
1783695983188259000,9.118259033203126,-0.24501563608646393,0.14611439406871796,-0.037824515253305435
1783695983198223000,9.12822314453125,-0.2988666892051697,0.044719863682985306,-0.03318043053150177
1783695983208187100,9.138187255859375,-0.352191686630249,-0.054639481008052826,0.00725354440510273
1783695983218151200,9.148151123046874,-0.395035982131958,-0.10455377399921417,0.08449488878250122
1783695983228115200,9.158115234375,-0.41114622354507446,-0.10022001713514328,0.18335887789726257
1783695983238079000,9.168078857421875,-0.39432835578918457,-0.04486779868602753,0.2929961681365967
1783695983248043000,9.17804296875,-0.35290661454200745,0.03472556546330452,0.3885280191898346
1783695983258007300,9.18800732421875,-0.3015126585960388,0.11062057316303253,0.4362098276615143
1783695983267970000,9.197969970703125,-0.2639729976654053,0.13451819121837616,0.43759864568710327
1783695983277934000,9.20793408203125,-0.2394150197505951,0.10175439715385437,0.3970523476600647
1783695983287898000,9.217898193359375,-0.22413060069084167,0.055918458849191666,0.33326882123947144
1783695983297862400,9.2278623046875,-0.22119347751140594,0.029131311923265457,0.2496195286512375
1783695983307826200,9.237826171875,-0.21617448329925537,0.02300364524126053,0.16107873618602753
1783695983317790200,9.247790283203125,-0.21587695181369781,0.01663310080766678,0.07848654687404633
1783695983327754200,9.257754150390625,-0.22470879554748535,-0.004083362407982349,0.00919295847415924
1783695983337718300,9.26771826171875,-0.240770623087883,-0.041686128824949265,-0.028260240331292152
1783695983347681300,9.277681396484375,-0.25760605931282043,-0.08681978285312653,-0.036216702312231064
1783695983357645300,9.287645263671875,-0.26946577429771423,-0.14157438278198242,-0.01954965852200985
1783695983367609300,9.297609375,-0.2743808925151825,-0.20151680707931519,0.004543428309261799
1783695983377573400,9.307573486328126,-0.27209895849227905,-0.24951577186584473,0.030416231602430344
1783695983387537200,9.317537109375,-0.2622852325439453,-0.271755576133728,0.05421530082821846
1783695983397501200,9.327501220703125,-0.2453887164592743,-0.26085495948791504,0.08270753920078278
1783695983407465200,9.33746533203125,-0.21955285966396332,-0.21028126776218414,0.11687616258859634
1783695983417429200,9.34742919921875,-0.18458835780620575,-0.11282476037740707,0.15272989869117737
1783695983427392300,9.357392333984375,-0.13574758172035217,0.00037050514947623014,0.17425969243049622
1783695983437356300,9.367356201171875,-0.08613742142915726,0.08269067853689194,0.16389253735542297
1783695983447320300,9.3773203125,-0.04426747187972069,0.11404087394475937,0.1343681961297989
1783695983457284000,9.3872841796875,-0.015040233731269836,0.11544197797775269,0.09567250311374664
1783695983467248000,9.397248046875,-0.003585978178307414,0.07698167115449905,0.0449342243373394
1783695983477212200,9.407212158203125,0.006883010733872652,-0.0026394042652100325,-0.01032734289765358
1783695983487176200,9.41717626953125,0.018550317734479904,-0.08420590311288834,-0.04679480567574501
1783695983497140200,9.42714013671875,0.017777664586901665,-0.1646386831998825,-0.06637222319841385
1783695983507103200,9.437103271484375,0.004991029389202595,-0.24317103624343872,-0.07782620936632156
1783695983517067300,9.4470673828125,-0.015973813831806183,-0.3021949529647827,-0.09911762177944183
1783695983527031300,9.45703125,-0.041446149349212646,-0.32492130994796753,-0.13194826245307922
1783695983536995000,9.4669951171875,-0.06371281296014786,-0.3125378489494324,-0.18173736333847046
1783695983546959000,9.476958984375,-0.08720908313989639,-0.2604927718639374,-0.23815402388572693
1783695983556923100,9.486923095703125,-0.10368990898132324,-0.1617233157157898,-0.2924463748931885
1783695983566887200,9.49688720703125,-0.11230283975601196,-0.044764742255210876,-0.3267558813095093
1783695983576851200,9.506851318359375,-0.10527265816926956,0.08469125628471375,-0.33502668142318726
1783695983586814200,9.516814208984375,-0.08894508332014084,0.2009483426809311,-0.326118141412735
1783695983596778200,9.5267783203125,-0.0702163502573967,0.2864435613155365,-0.2976358234882355
1783695983606742000,9.536741943359376,-0.05261498689651489,0.3513384163379669,-0.24796918034553528
1783695983616706000,9.5467060546875,-0.03563312068581581,0.40780243277549744,-0.18840044736862183
1783695983626670000,9.556670166015625,-0.022714391350746155,0.43704500794410706,-0.12979544699192047
1783695983636634000,9.566634033203124,-0.016298111528158188,0.4292694330215454,-0.08728664368391037
1783695983646598100,9.57659814453125,-0.010542755015194416,0.3857283294200897,-0.062363456934690475
1783695983656562200,9.586562255859375,-0.010571747086942196,0.3234527111053467,-0.05302466079592705
1783695983666525200,9.596525146484375,-0.007171156816184521,0.26521390676498413,-0.05805297568440437
1783695983676489200,9.6064892578125,-0.007586876396089792,0.19047068059444427,-0.06357211619615555
1783695983686453000,9.616452880859375,-0.007672630250453949,0.08602363616228104,-0.06982574611902237
1783695983696417000,9.6264169921875,-0.005183397326618433,-0.01362599991261959,-0.07052461057901382
1783695983706381000,9.636381103515625,-0.013870629481971264,-0.10570665448904037,-0.06226641312241554
1783695983716345000,9.646344970703124,-0.03684629499912262,-0.1699836403131485,-0.0507069006562233
1783695983726309000,9.65630908203125,-0.06250931322574615,-0.21202190220355988,-0.033604081720113754
1783695983736273400,9.6662734375,-0.08728954941034317,-0.23198202252388,-0.017242567613720894
1783695983746237200,9.6762373046875,-0.10873199254274368,-0.22419200837612152,0.004555673338472843
1783695983756200200,9.6862001953125,-0.12471059709787369,-0.1912287473678589,0.016299983486533165
1783695983766164000,9.6961640625,-0.13705621659755707,-0.15091674029827118,0.01778016798198223
1783695983776128300,9.706128173828125,-0.1478801816701889,-0.0961107462644577,-0.005191443488001823
1783695983786092300,9.71609228515625,-0.1717950999736786,-0.08044816553592682,-0.034274496138095856
1783695983796056300,9.726056396484376,-0.19395259022712708,-0.10251723974943161,-0.05935161933302879
1783695983806020400,9.736020263671875,-0.21120081841945648,-0.12426887452602386,-0.06421615183353424
1783695983815984000,9.745984130859375,-0.21478715538978577,-0.11878171563148499,-0.05084257945418358
1783695983825948200,9.7559482421875,-0.21815738081932068,-0.10288716852664948,-0.026109270751476288
1783695983835911200,9.7659111328125,-0.23078951239585876,-0.1026831641793251,-0.005755702033638954
1783695983845875200,9.775875244140625,-0.24777676165103912,-0.11623572558164597,0.009320452809333801
1783695983855839200,9.785839111328125,-0.2672012746334076,-0.13026471436023712,0.018615299835801125
1783695983865803300,9.79580322265625,-0.2838899791240692,-0.15524889528751373,0.02966075949370861
1783695983875767300,9.805767333984376,-0.29876384139060974,-0.1908995658159256,0.04383445158600807
1783695983885731300,9.8157314453125,-0.30883297324180603,-0.2313348799943924,0.07182001322507858
1783695983895695000,9.825695068359375,-0.319358766078949,-0.2813884913921356,0.10727216303348541
1783695983905659100,9.8356591796875,-0.317747563123703,-0.33323410153388977,0.14566189050674438
1783695983915623200,9.845623046875,-0.31183570623397827,-0.34879040718078613,0.1732524186372757
1783695983925586200,9.855586181640625,-0.29654809832572937,-0.3369920551776886,0.18405312299728394
1783695983935550200,9.86555029296875,-0.2912598252296448,-0.35009267926216125,0.16120997071266174
1783695983945514200,9.87551416015625,-0.2951909303665161,-0.33543944358825684,0.11459905654191971
1783695983955478300,9.885478271484375,-0.29785263538360596,-0.26387283205986023,0.06844207644462585
1783695983965442300,9.8954423828125,-0.3077939450740814,-0.20531073212623596,0.03726338595151901
1783695983975406000,9.905406005859374,-0.3416082262992859,-0.22534890472888947,0.005492277443408966
1783695983985370000,9.9153701171875,-0.3745826780796051,-0.29117050766944885,-0.053552135825157166
1783695983995334100,9.925334228515625,-0.3804517090320587,-0.3071529269218445,-0.13067984580993652
1783695984005297200,9.935297119140625,-0.36629143357276917,-0.25281354784965515,-0.20417270064353943
1783695984015261200,9.94526123046875,-0.35708099603652954,-0.1862315833568573,-0.24642570316791534
1783695984025225200,9.95522509765625,-0.3543073236942291,-0.14424312114715576,-0.24933575093746185
1783695984035189200,9.965189208984375,-0.3476811945438385,-0.11153098940849304,-0.21746130287647247
1783695984045153000,9.975153076171875,-0.3329922556877136,-0.08945605158805847,-0.174946591258049
1783695984055117000,9.985116943359374,-0.31306931376457214,-0.07983935624361038,-0.13456623256206512
1783695984065081000,9.9950810546875,-0.2973180413246155,-0.06547320634126663,-0.1009179875254631
1783695984075045000,10.005045166015625,-0.29875287413597107,-0.06805941462516785,-0.06296311318874359
1783695984085009200,10.015009033203125,-0.3134188950061798,-0.09802663326263428,-0.03562656044960022
1783695984094972200,10.02497216796875,-0.3267192244529724,-0.15586623549461365,-0.01686853915452957
1783695984104936200,10.034936279296875,-0.3366677463054657,-0.2031189650297165,0.013072846457362175
1783695984114900200,10.044900146484375,-0.33812060952186584,-0.24102053046226501,0.060588665306568146
1783695984124864000,10.054864013671875,-0.33242595195770264,-0.26634693145751953,0.12945348024368286
1783695984134828000,10.064828125,-0.32008567452430725,-0.2756935656070709,0.19902083277702332
1783695984144792000,10.0747919921875,-0.2996751666069031,-0.2700660228729248,0.24613434076309204
1783695984154756000,10.084756103515625,-0.2794903516769409,-0.21936875581741333,0.2751820981502533
1783695984164720000,10.09472021484375,-0.27906981110572815,-0.17600077390670776,0.32065317034721375
1783695984174684200,10.10468408203125,-0.2970227003097534,-0.17779390513896942,0.35502803325653076
1783695984184646700,10.114646728515625,-0.3126794397830963,-0.17983227968215942,0.34969478845596313
1783695984194610700,10.124610595703125,-0.33021900057792664,-0.16083543002605438,0.3146619200706482
1783695984204574500,10.134574462890624,-0.3624022305011749,-0.1374446153640747,0.2415999472141266
1783695984214538500,10.14453857421875,-0.4051969349384308,-0.14177678525447845,0.12449810653924942
1783695984224502500,10.15450244140625,-0.4340269863605499,-0.19601204991340637,-0.020601557567715645
1783695984234466600,10.164466552734375,-0.44808492064476013,-0.23887670040130615,-0.14064861834049225
1783695984244430600,10.1744306640625,-0.4563694894313812,-0.232073113322258,-0.20313917100429535
1783695984254394600,10.18439453125,-0.4662761092185974,-0.21489067375659943,-0.21544691920280457
1783695984264357600,10.194357666015625,-0.4729718267917633,-0.19923554360866547,-0.20625635981559753
1783695984274321700,10.20432177734375,-0.4866214394569397,-0.1631142795085907,-0.2115863710641861
1783695984284285400,10.214285400390626,-0.49561652541160583,-0.07784119248390198,-0.25041821599006653
1783695984294249500,10.22424951171875,-0.5076581835746765,0.046897001564502716,-0.27544447779655457
1783695984304213500,10.234213623046875,-0.5334452986717224,0.14367520809173584,-0.2886662781238556
1783695984314177500,10.244177490234375,-0.5504007935523987,0.1885063350200653,-0.2923353314399719
1783695984324141600,10.2541416015625,-0.5316646695137024,0.20715512335300446,-0.2936597168445587
1783695984334105600,10.264105712890625,-0.48019105195999146,0.20932772755622864,-0.29802629351615906
1783695984344069400,10.2740693359375,-0.40539270639419556,0.20294466614723206,-0.2985837161540985
1783695984354032600,10.28403271484375,-0.33709365129470825,0.19461163878440857,-0.2781427204608917
1783695984363996400,10.293996337890626,-0.2838738262653351,0.1231347918510437,-0.23973090946674347
1783695984373960400,10.30396044921875,-0.24295642971992493,-0.019482815638184547,-0.22212529182434082
1783695984383924500,10.313924560546875,-0.22284744679927826,-0.14046649634838104,-0.19239695370197296
1783695984393888500,10.323888427734374,-0.24352291226387024,-0.2376822531223297,-0.15075597167015076
1783695984403852500,10.3338525390625,-0.2847249507904053,-0.3024516701698303,-0.10779546201229095
1783695984413816600,10.343816650390625,-0.3116747736930847,-0.3198181390762329,-0.05675986781716347
