time,seconds_elapsed,z,y,x
1783696048771647200,0.057647216796875,-1.0151026248931885,-0.5139703154563904,0.326610267162323
1783696048781611500,0.067611572265625,-1.0128650665283203,-0.46490612626075745,0.3563218414783478
1783696048791574300,0.07757421875,-0.999611496925354,-0.43357574939727783,0.3709065318107605
1783696048801538300,0.087538330078125,-0.9828786253929138,-0.43151286244392395,0.3558511435985565
1783696048811502300,0.09750244140625,-0.9690825343132019,-0.4600182771682739,0.31991854310035706
1783696048821466400,0.10746630859375,-0.9690098166465759,-0.4812476634979248,0.27335450053215027
1783696048831429000,0.11742919921875,-0.9779152870178223,-0.473434180021286,0.22330550849437714
1783696048841393200,0.12739306640625,-0.9873924255371094,-0.44929635524749756,0.18337354063987732
1783696048851357200,0.137357177734375,-0.9989809989929199,-0.4196750521659851,0.1504489928483963
1783696048861320200,0.1473203125,-1.0152297019958496,-0.3801633417606354,0.13611851632595062
1783696048871284200,0.1572841796875,-1.0246145725250244,-0.31583499908447266,0.13937236368656158
1783696048881248300,0.167248291015625,-1.0224920511245728,-0.25292980670928955,0.15239176154136658
1783696048891212300,0.17721240234375,-1.0011847019195557,-0.21414092183113098,0.1683964729309082
1783696048901175300,0.18717529296875,-0.9690278768539429,-0.2215767353773117,0.18182706832885742
1783696048911139300,0.197139404296875,-0.9310507774353027,-0.24942703545093536,0.19782203435897827
1783696048921103400,0.207103271484375,-0.8921608924865723,-0.2830313444137573,0.2082323282957077
1783696048931067100,0.217067138671875,-0.8592458367347717,-0.32046425342559814,0.20622430741786957
1783696048941030100,0.227030029296875,-0.832706093788147,-0.37157803773880005,0.18422819674015045
1783696048950994200,0.236994140625,-0.8161814212799072,-0.4415528476238251,0.14668653905391693
1783696048960958200,0.246958251953125,-0.8089677095413208,-0.5066753625869751,0.10421764850616455
1783696048970922200,0.256922119140625,-0.8041025996208191,-0.555124819278717,0.0573916882276535
1783696048980885200,0.26688525390625,-0.8032131195068359,-0.5848376750946045,0.014117984101176262
1783696048990849300,0.276849365234375,-0.8026707172393799,-0.5969556570053101,-0.012748094275593758
1783696049000813300,0.286813232421875,-0.8007394075393677,-0.6011599898338318,-0.021935466676950455
1783696049010776300,0.2967763671875,-0.793574333190918,-0.5918904542922974,-0.018289417028427124
1783696049020740400,0.306740234375,-0.7698400020599365,-0.5724413990974426,-0.009902057237923145
1783696049030704400,0.316704345703125,-0.7518042325973511,-0.5651039481163025,0.0026971236802637577
1783696049040668200,0.326668212890625,-0.7343405485153198,-0.5544310808181763,0.02501361444592476
1783696049050631200,0.336631103515625,-0.7186623811721802,-0.5078609585762024,0.07213462889194489
1783696049060595200,0.34659521484375,-0.7039912939071655,-0.42751815915107727,0.1344723105430603
1783696049070559200,0.356559326171875,-0.690357506275177,-0.3453943133354187,0.18210503458976746
1783696049080523300,0.366523193359375,-0.6795781254768372,-0.3026444613933563,0.21143628656864166
1783696049090486300,0.376486328125,-0.6736029982566833,-0.299532026052475,0.21510598063468933
1783696049100450300,0.3864501953125,-0.6804840564727783,-0.3206721842288971,0.20712608098983765
1783696049110414300,0.396414306640625,-0.6836245059967041,-0.3469468355178833,0.20825797319412231
1783696049120377300,0.40637744140625,-0.685415506362915,-0.37182024121284485,0.2182626724243164
1783696049130341400,0.41634130859375,-0.677004337310791,-0.40413954854011536,0.22048276662826538
1783696049140305400,0.426305419921875,-0.6616506576538086,-0.4282084107398987,0.2117028534412384
1783696049150269200,0.436269287109375,-0.6440109014511108,-0.42344778776168823,0.18031415343284607
1783696049160232200,0.446232177734375,-0.6216933727264404,-0.38343536853790283,0.13576026260852814
1783696049170196200,0.4561962890625,-0.5980005860328674,-0.32412388920783997,0.07299474626779556
1783696049180160300,0.46616015625,-0.5682879090309143,-0.2681833803653717,0.0042937146499753
1783696049190124300,0.476124267578125,-0.5478912591934204,-0.21386170387268066,-0.06316225975751877
1783696049200087300,0.48608740234375,-0.5459862947463989,-0.14788375794887543,-0.12073447555303574
1783696049210051300,0.49605126953125,-0.5306738018989563,-0.11184175312519073,-0.16823714971542358
1783696049220015400,0.506015380859375,-0.5165356397628784,-0.11215999722480774,-0.1913459300994873
1783696049229978400,0.515978271484375,-0.512849748134613,-0.13483698666095734,-0.17605340480804443
1783696049239942400,0.5259423828125,-0.516666829586029,-0.18736223876476288,-0.14105254411697388
1783696049249906000,0.535906005859375,-0.5093345046043396,-0.2449081391096115,-0.08897143602371216
1783696049259869700,0.54586962890625,-0.498172402381897,-0.28485581278800964,-0.026903007179498672
1783696049269833000,0.5558330078125,-0.49397653341293335,-0.3153265714645386,0.0275887344032526
1783696049279796700,0.565796630859375,-0.48917484283447266,-0.34944379329681396,0.0652351826429367
1783696049289760800,0.5757607421875,-0.47689422965049744,-0.37100750207901,0.08233916759490967
1783696049299724800,0.585724853515625,-0.4633440673351288,-0.3768206536769867,0.08128774911165237
1783696049309687800,0.595687744140625,-0.4465253949165344,-0.36949628591537476,0.06949934363365173
1783696049319651800,0.60565185546875,-0.4287671744823456,-0.34303829073905945,0.054583512246608734
1783696049329616000,0.615615966796875,-0.41491544246673584,-0.29438868165016174,0.03408180549740791
1783696049339579000,0.625578857421875,-0.40561699867248535,-0.24027565121650696,0.008156999945640564
1783696049349543000,0.63554296875,-0.39741989970207214,-0.20442065596580505,-0.019087322056293488
1783696049359507000,0.6455068359375,-0.38848981261253357,-0.18664725124835968,-0.035794928669929504
1783696049369470700,0.655470703125,-0.3798077404499054,-0.1829930543899536,-0.0442596860229969
1783696049379434000,0.66543408203125,-0.3659664988517761,-0.19296684861183167,-0.04039543867111206
1783696049389397800,0.675397705078125,-0.3402952551841736,-0.208821102976799,-0.026974650099873543
1783696049399361800,0.68536181640625,-0.29478663206100464,-0.21183659136295319,-0.00935730617493391
1783696049409325800,0.695325927734375,-0.24543842673301697,-0.2056388407945633,0.008249757811427116
1783696049419288800,0.705288818359375,-0.18559399247169495,-0.19511722028255463,0.02897900529205799
1783696049429252900,0.7152529296875,-0.1251276582479477,-0.1588408350944519,0.0536365769803524
1783696049439217000,0.725216796875,-0.06408347934484482,-0.12174727022647858,0.07275301963090897
1783696049449180000,0.735179931640625,-0.016779176890850067,-0.11212436854839325,0.07889503240585327
1783696049459144000,0.74514404296875,0.014330540783703327,-0.13197369873523712,0.07433303445577621
1783696049469108000,0.75510791015625,0.039149004966020584,-0.16727551817893982,0.08081892877817154
1783696049479071700,0.76507177734375,0.0618487223982811,-0.1897536665201187,0.11069560050964355
1783696049489035000,0.775034912109375,0.08090740442276001,-0.1918760985136032,0.15952308475971222
1783696049498998800,0.784998779296875,0.10441219806671143,-0.177861750125885,0.211297869682312
1783696049508962800,0.794962890625,0.1243555024266243,-0.14976191520690918,0.25738269090652466
1783696049518925800,0.80492578125,0.1403254121541977,-0.10164445638656616,0.28778401017189026
1783696049528889900,0.814889892578125,0.1518254280090332,-0.055731888860464096,0.29299554228782654
1783696049538854000,0.82485400390625,0.16194063425064087,-0.06070267781615257,0.27026012539863586
1783696049548818000,0.83481787109375,0.15904098749160767,-0.13710850477218628,0.222855344414711
1783696049558781000,0.844781005859375,0.14548230171203613,-0.25286146998405457,0.1586848795413971
1783696049568745000,0.854744873046875,0.12335604429244995,-0.3205591142177582,0.0939839705824852
1783696049578709000,0.864708984375,0.08593037724494934,-0.3183329999446869,0.04207390174269676
1783696049588672800,0.8746728515625,0.0423266626894474,-0.24110430479049683,0.016506733372807503
1783696049598636000,0.884635986328125,0.014177319593727589,-0.11299827694892883,-0.0001260389108210802
1783696049608599800,0.894599853515625,0.02001572772860527,0.05725431814789772,-0.01716577261686325
1783696049618563800,0.904563720703125,0.06338956207036972,0.21633557975292206,-0.026161931455135345
1783696049628526800,0.91452685546875,0.13447730243206024,0.35005179047584534,-0.022140424698591232
1783696049638491000,0.924490966796875,0.22600828111171722,0.41898319125175476,-0.01623353362083435
1783696049648455000,0.934454833984375,0.3172806203365326,0.4211105406284332,-0.0034520658664405346
1783696049658419000,0.9444189453125,0.37812721729278564,0.37553560733795166,0.00736063439399004
1783696049668382000,0.9543818359375,0.40217113494873047,0.3021770119667053,0.017997248098254204
1783696049678346000,0.964345947265625,0.4030425250530243,0.22668011486530304,0.028184372931718826
1783696049688310000,0.97431005859375,0.38332146406173706,0.1716351956129074,0.034758277237415314
1783696049698273000,0.98427294921875,0.3506537973880768,0.1535794883966446,0.0435086265206337
1783696049708237000,0.994237060546875,0.32565659284591675,0.17405623197555542,0.05181499570608139
1783696049718200800,1.004200927734375,0.32381314039230347,0.2192162573337555,0.0652807429432869
1783696049728164900,1.014164794921875,0.3562016785144806,0.2623637020587921,0.08267956972122192
1783696049738128000,1.0241279296875,0.4035438895225525,0.2834348976612091,0.09939143806695938
1783696049748092000,1.034091796875,0.4562320113182068,0.2997574806213379,0.1056692823767662
1783696049758056000,1.044055908203125,0.5012434720993042,0.3152959644794464,0.11660155653953552
1783696049768018700,1.054018798828125,0.5339789390563965,0.3352733254432678,0.12519051134586334
1783696049777983000,1.06398291015625,0.5556520223617554,0.34097886085510254,0.13234937191009521
1783696049787947000,1.073947021484375,0.5606940388679504,0.325009286403656,0.1296524852514267
1783696049797911000,1.0839111328125,0.5493670701980591,0.2943509817123413,0.1289219856262207
1783696049807873800,1.093873779296875,0.5272146463394165,0.2558800280094147,0.13373032212257385
1783696049817837800,1.103837890625,0.5069770216941833,0.20706108212471008,0.1401381492614746
1783696049827801900,1.1138017578125,0.4902440011501312,0.16233891248703003,0.14473001658916473
1783696049837764900,1.123764892578125,0.48151788115501404,0.1303223967552185,0.13550163805484772
1783696049847728600,1.133728759765625,0.4710705578327179,0.10265558212995529,0.1083282008767128
1783696049857692700,1.143692626953125,0.46374446153640747,0.10220896452665329,0.064396433532238
1783696049867657000,1.153656982421875,0.4514520764350891,0.13565565645694733,0.009272757917642593
1783696049877619700,1.16361962890625,0.436890184879303,0.1912131905555725,-0.051023341715335846
1783696049887583700,1.173583740234375,0.41956591606140137,0.265631765127182,-0.11169459670782089
1783696049897547800,1.1835478515625,0.40130966901779175,0.34768590331077576,-0.16366486251354218
1783696049907512000,1.193511962890625,0.3864327073097229,0.4353177845478058,-0.20373181998729706
1783696049917474800,1.203474853515625,0.38379937410354614,0.5115816593170166,-0.2319440096616745
1783696049927438800,1.21343896484375,0.3866204023361206,0.5683785080909729,-0.23965789377689362
1783696049937402600,1.223402587890625,0.392789363861084,0.6053205728530884,-0.2345491498708725
1783696049947366000,1.233365966796875,0.40366241335868835,0.628317654132843,-0.2111656218767166
1783696049957329700,1.24332958984375,0.414228230714798,0.6286550760269165,-0.18549275398254395
1783696049967293700,1.253293701171875,0.4176666736602783,0.6106588840484619,-0.15693005919456482
1783696049977257700,1.2632578125,0.42663806676864624,0.586063027381897,-0.12473537027835846
1783696049987220700,1.273220703125,0.42938748002052307,0.5650215148925781,-0.09215349704027176
1783696049997184800,1.283184814453125,0.4282657504081726,0.5472816824913025,-0.062106646597385406
1783696050007148800,1.293148681640625,0.42873573303222656,0.5216432213783264,-0.05350884422659874
1783696050017111800,1.30311181640625,0.4328404366970062,0.49791765213012695,-0.05866179242730141
1783696050027075800,1.313075927734375,0.43424031138420105,0.46295008063316345,-0.06610642373561859
1783696050037039900,1.323039794921875,0.43294867873191833,0.41842976212501526,-0.07319629192352295
1783696050047003600,1.333003662109375,0.4317154586315155,0.3709688186645508,-0.0703764259815216
1783696050056966700,1.342966552734375,0.42425382137298584,0.32931938767433167,-0.05801616236567497
1783696050066930700,1.3529306640625,0.4088239371776581,0.29474619030952454,-0.03701247647404671
1783696050076894700,1.362894775390625,0.38695114850997925,0.2636154294013977,-0.01115424744784832
1783696050086857700,1.372857666015625,0.36521676182746887,0.2222328633069992,0.009484345093369484
1783696050096821800,1.38282177734375,0.33877822756767273,0.16599009931087494,0.01807463727891445
1783696050106785800,1.392785888671875,0.31215548515319824,0.11561717092990875,0.032585617154836655
1783696050116749800,1.402749755859375,0.29110851883888245,0.08846118301153183,0.05582675710320473
1783696050126712800,1.412712890625,0.27250784635543823,0.07907002419233322,0.07847204059362411
1783696050136676900,1.4226767578125,0.2635346055030823,0.08120827376842499,0.09578178822994232
1783696050146641000,1.432640869140625,0.2644953727722168,0.09034617990255356,0.09998380392789841
1783696050156604000,1.44260400390625,0.26908162236213684,0.11144720762968063,0.09632488340139389
1783696050166567700,1.452567626953125,0.27112770080566406,0.14720703661441803,0.08812753856182098
1783696050176531700,1.46253173828125,0.26809462904930115,0.18755152821540833,0.07886932790279388
1783696050186495700,1.472495849609375,0.2654336392879486,0.21911925077438354,0.0792025700211525
1783696050196458800,1.482458740234375,0.2562611699104309,0.2473764568567276,0.09173434227705002
1783696050206422800,1.4924228515625,0.2456834465265274,0.2533118724822998,0.10485704243183136
1783696050216386800,1.50238671875,0.23901169002056122,0.23142573237419128,0.10758811235427856
1783696050226349800,1.512349853515625,0.23170185089111328,0.17887592315673828,0.10208253562450409
1783696050236313900,1.52231396484375,0.2244521975517273,0.11818861961364746,0.09730508923530579
1783696050246278000,1.53227783203125,0.22655633091926575,0.07142386585474014,0.09532667696475983
1783696050256240600,1.54224072265625,0.22763703763484955,0.01966187171638012,0.08475499600172043
1783696050266204700,1.55220458984375,0.2223915159702301,-0.034147780388593674,0.05632639303803444
1783696050276168700,1.562168701171875,0.20423567295074463,-0.05994582176208496,0.012302742339670658
1783696050286132500,1.572132568359375,0.1793762892484665,-0.038340479135513306,-0.03848690912127495
1783696050296095500,1.582095458984375,0.15653301775455475,0.014922477304935455,-0.09429371356964111
1783696050306059500,1.5920595703125,0.13568150997161865,0.08831418305635452,-0.14391636848449707
1783696050316023600,1.6020234375,0.11869054287672043,0.16501295566558838,-0.1804828941822052
1783696050325986600,1.611986572265625,0.10477307438850403,0.22487561404705048,-0.1970500499010086
1783696050335950600,1.62195068359375,0.09594735503196716,0.24146418273448944,-0.1925666183233261
1783696050345914600,1.63191455078125,0.0883459746837616,0.21683348715305328,-0.17139330506324768
1783696050355878700,1.641878662109375,0.0809146910905838,0.16857407987117767,-0.14481255412101746
1783696050365841700,1.651841552734375,0.07318660616874695,0.11163721233606339,-0.1118476539850235
1783696050375805700,1.6618056640625,0.060297176241874695,0.05528925359249115,-0.0673435628414154
1783696050385769700,1.671769775390625,0.0496368408203125,0.0001619327813386917,-0.012948472984135151
1783696050395732700,1.681732666015625,0.04044494032859802,-0.012868382036685944,0.05882637947797775
1783696050405696500,1.691696533203125,0.029256468638777733,0.0017132239881902933,0.13347798585891724
1783696050415660500,1.70166064453125,0.02713419497013092,0.023577244952321053,0.20193427801132202
1783696050425624600,1.71162451171875,0.03145044296979904,0.03479495272040367,0.2483404576778412
1783696050435587600,1.721587646484375,0.046881332993507385,0.04759357497096062,0.2816094756126404
1783696050445551600,1.731551513671875,0.06946060806512833,0.08025429397821426,0.31420767307281494
1783696050455515600,1.741515625,0.09507834911346436,0.1214858889579773,0.34718719124794006
1783696050465478700,1.751478759765625,0.12020645290613174,0.15216317772865295,0.37099021673202515
1783696050475442700,1.761442626953125,0.13646158576011658,0.1649615466594696,0.3791986107826233
1783696050485406700,1.77140673828125,0.14051969349384308,0.15726390480995178,0.364872008562088
1783696050495370800,1.781370849609375,0.12871763110160828,0.1056332066655159,0.3191865384578705
1783696050505333800,1.791333740234375,0.10573657602071762,0.03238774836063385,0.2603952884674072
1783696050515297500,1.801297607421875,0.0773475393652916,-0.020173998549580574,0.20140735805034637
1783696050525261600,1.811261474609375,0.056676235049963,-0.024731550365686417,0.14603787660598755
1783696050535224600,1.821224609375,0.04676554724574089,0.022508133202791214,0.09058500081300735
1783696050545188600,1.831188720703125,0.058067686855793,0.0998486578464508,0.024459779262542725
1783696050555152600,1.841152587890625,0.08184012770652771,0.19346170127391815,-0.05580736696720123
1783696050565116700,1.85111669921875,0.11593383550643921,0.275251567363739,-0.15351569652557373
1783696050575079700,1.86107958984375,0.1516907811164856,0.32021716237068176,-0.25567349791526794
1783696050585043700,1.871043701171875,0.17858834564685822,0.32439908385276794,-0.3384489119052887
1783696050595007700,1.8810078125,0.19757933914661407,0.29287388920783997,-0.386089950799942
1783696050604970800,1.890970703125,0.20731647312641144,0.2649279832839966,-0.37508073449134827
1783696050614934800,1.900934814453125,0.20906484127044678,0.26206350326538086,-0.3078465759754181
1783696050624898600,1.910898681640625,0.21617864072322845,0.2847294211387634,-0.2074175626039505
1783696050634862600,1.920862548828125,0.22700704634189606,0.3150508403778076,-0.09508009254932404
1783696050644825600,1.93082568359375,0.24504679441452026,0.33986207842826843,-0.001611716696061194
1783696050654789600,1.94078955078125,0.2698677182197571,0.34480172395706177,0.0645957961678505
1783696050664753700,1.950753662109375,0.30285388231277466,0.33012470602989197,0.09891646355390549
1783696050674716400,1.96071630859375,0.33403655886650085,0.29736757278442383,0.10270587354898453
1783696050684680700,1.9706806640625,0.36146804690361023,0.25426822900772095,0.08359825611114502
1783696050694644700,1.980644775390625,0.3828601539134979,0.23350274562835693,0.05922047421336174
1783696050704607500,1.990607421875,0.40270358324050903,0.2722817361354828,0.027591843158006668
1783696050714571500,2.000571533203125,0.4030330181121826,0.2990632951259613,0.01712401956319809
1783696050724535600,2.01053564453125,0.3852391839027405,0.3471328914165497,-0.00014460820239037275
1783696050734499600,2.02049951171875,0.3794047236442566,0.4305090010166168,-0.022037388756871223
1783696050744462600,2.030462646484375,0.37260109186172485,0.5036096572875977,-0.04838758334517479
1783696050754426400,2.04042626953125,0.3675578534603119,0.5584092140197754,-0.06948194652795792
1783696050764390400,2.050390380859375,0.3822314143180847,0.5961953997612,-0.08324282616376877
1783696050774353400,2.060353515625,0.41556674242019653,0.6279235482215881,-0.09433276206254959
1783696050784317400,2.0703173828125,0.4591579735279083,0.6546682715415955,-0.10188007354736328
1783696050794281500,2.080281494140625,0.5095926523208618,0.6643352508544922,-0.11740497499704361
1783696050804245500,2.09024560546875,0.5665668845176697,0.6837655305862427,-0.13845811784267426
1783696050814208500,2.10020849609375,0.608525276184082,0.6776416301727295,-0.14616237580776215
1783696050824172500,2.110172607421875,0.6479368209838867,0.6657498478889465,-0.15280210971832275
1783696050834136600,2.120136474609375,0.7080199122428894,0.6566082835197449,-0.14564166963100433
1783696050844099600,2.130099609375,0.7767565250396729,0.6603935360908508,-0.11629489064216614
1783696050854063600,2.140063720703125,0.8384199142456055,0.634458065032959,-0.0728057399392128
1783696050864027400,2.15002734375,0.8966015577316284,0.5893641710281372,-0.02093460224568844
1783696050873991400,2.159991455078125,0.9434862732887268,0.5328449606895447,0.02940979413688183
1783696050883954400,2.169954345703125,0.9644626379013062,0.48026132583618164,0.07788638770580292
1783696050893918500,2.17991845703125,0.9548089504241943,0.41961848735809326,0.1078442856669426
1783696050903882500,2.189882568359375,0.9229651093482971,0.35629990696907043,0.1188848689198494
1783696050913845500,2.199845458984375,0.8788391947746277,0.3152387738227844,0.12306976318359375
1783696050923809500,2.2098095703125,0.8334563374519348,0.3293531537055969,0.12235619127750397
1783696050933773600,2.219773681640625,0.7997053265571594,0.41741642355918884,0.13430580496788025
1783696050943736600,2.229736572265625,0.7863886952400208,0.561621904373169,0.16163456439971924
1783696050953700600,2.23970068359375,0.7844097018241882,0.7283477783203125,0.19396774470806122
1783696050963664600,2.24966455078125,0.7898131608963013,0.8716591596603394,0.2107088267803192
1783696050973628400,2.25962841796875,0.7956071496009827,0.9664480090141296,0.20674365758895874
1783696050983591700,2.269591796875,0.7909693717956543,0.9986904859542847,0.19017742574214935
1783696050993555500,2.279555419921875,0.7731088399887085,0.973637580871582,0.1549704372882843
1783696051003519500,2.28951953125,0.7373673319816589,0.8660570979118347,0.11378712952136993
1783696051013482500,2.299482421875,0.6972129940986633,0.6890900135040283,0.08412191271781921
1783696051023446500,2.309446533203125,0.6126235723495483,0.504485011100769,0.058196648955345154
1783696051033410600,2.31941064453125,0.5263821482658386,0.3104223310947418,0.034670017659664154
1783696051043374600,2.32937451171875,0.46796536445617676,0.18076838552951813,0.027836613357067108
1783696051053337600,2.339337646484375,0.4159967303276062,0.16841478645801544,0.03566497191786766
1783696051063301600,2.349301513671875,0.3866865634918213,0.235261470079422,0.03763914853334427
1783696051073265700,2.359265625,0.38277357816696167,0.34077006578445435,0.019269198179244995
1783696051083228700,2.369228759765625,0.40576133131980896,0.4586981534957886,-0.018380548804998398
1783696051093192700,2.379192626953125,0.4511021673679352,0.5229312181472778,-0.05535268038511276
1783696051103156500,2.389156494140625,0.4872908592224121,0.5535198450088501,-0.09464826434850693
1783696051113119500,2.399119384765625,0.5124659538269043,0.5500252842903137,-0.1276450902223587
1783696051123083500,2.40908349609375,0.5167452692985535,0.5151212811470032,-0.1544075459241867
1783696051133047600,2.419047607421875,0.5002528429031372,0.4529452919960022,-0.16292940080165863
1783696051143011600,2.429011474609375,0.4644485116004944,0.37833237648010254,-0.15027442574501038
1783696051152974600,2.438974609375,0.4112934172153473,0.3115501403808594,-0.1250407099723816
1783696051162938600,2.448938720703125,0.3440234363079071,0.2557370960712433,-0.10656076669692993
1783696051172902700,2.458902587890625,0.2743610143661499,0.19265398383140564,-0.11029025912284851
1783696051182865700,2.46886572265625,0.21510231494903564,0.14277143776416779,-0.14510512351989746
1783696051192829700,2.47882958984375,0.17393676936626434,0.1052941083908081,-0.190565288066864
1783696051202793500,2.48879345703125,0.1562584936618805,0.06932920217514038,-0.23595063388347626
1783696051212757500,2.498757568359375,0.1565714180469513,0.04880661889910698,-0.2665026783943176
1783696051222720500,2.508720458984375,0.1761326789855957,0.04792372137308121,-0.2771722972393036
1783696051232684500,2.5186845703125,0.20056158304214478,0.056760355830192566,-0.276093453168869
1783696051242648600,2.528648681640625,0.22547070682048798,0.07981479167938232,-0.26218923926353455
1783696051252612000,2.538612060546875,0.24117402732372284,0.11575281620025635,-0.23987914621829987
1783696051262576000,2.548576171875,0.24622268974781036,0.14579857885837555,-0.2180735021829605
1783696051272540200,2.5585400390625,0.24254140257835388,0.16372911632061005,-0.2038639336824417
1783696051282503200,2.568503173828125,0.24113468825817108,0.18208613991737366,-0.18242664635181427
1783696051292467200,2.57846728515625,0.23283761739730835,0.2121598869562149,-0.1589341014623642
1783696051302431200,2.58843115234375,0.228692889213562,0.23236894607543945,-0.13968956470489502
1783696051312395000,2.59839501953125,0.2329867035150528,0.23828943073749542,-0.1281687170267105
1783696051322358000,2.60835791015625,0.24450422823429108,0.2197308987379074,-0.12885084748268127
1783696051332322000,2.618322021484375,0.249944806098938,0.2001665234565735,-0.12227097153663635
1783696051342286000,2.6282861328125,0.2490173727273941,0.1891688108444214,-0.11760742962360382
1783696051352249000,2.6382490234375,0.2528288960456848,0.17980380356311798,-0.11850438266992569
1783696051362213000,2.648213134765625,0.24677762389183044,0.1542196273803711,-0.12629956007003784
1783696051372177200,2.65817724609375,0.2403183877468109,0.1312709003686905,-0.12460500001907349
1783696051382141200,2.66814111328125,0.2264001965522766,0.1362011730670929,-0.1262146234512329
1783696051392104200,2.678104248046875,0.2200634777545929,0.12417460232973099,-0.1185481920838356
1783696051402068200,2.688068115234375,0.21225179731845856,0.09857597947120667,-0.09977807104587555
1783696051412032000,2.698031982421875,0.21293489634990692,0.06619513779878616,-0.07075361162424088
1783696051421995000,2.7079951171875,0.21468907594680786,0.037047646939754486,-0.029113061726093292
1783696051431959000,2.717958984375,0.2088642120361328,-0.005353072192519903,0.004502421244978905
1783696051441923000,2.727923095703125,0.20859085023403168,-0.025621473789215088,0.029696032404899597
1783696051451885800,2.7378857421875,0.2093631625175476,-0.0387660376727581,0.048510998487472534
1783696051461849900,2.747849853515625,0.2109895497560501,-0.042095866054296494,0.04976465180516243
1783696051471814100,2.757814208984375,0.21241886913776398,-0.03643584996461868,0.03630823269486427
1783696051481778200,2.767778076171875,0.21530814468860626,-0.027484619989991188,0.023045053705573082
1783696051491741000,2.777740966796875,0.21135202050209045,-0.0336996391415596,0.022651439532637596
1783696051501705000,2.787705078125,0.19854265451431274,-0.045883920043706894,0.035191621631383896
1783696051511669200,2.797669189453125,0.17338909208774567,-0.04496166855096817,0.058833036571741104
1783696051521632000,2.807632080078125,0.1483234316110611,-0.03392837941646576,0.07317885011434555
1783696051531596000,2.817595947265625,0.12856197357177734,-0.0348903127014637,0.06340717524290085
1783696051541559800,2.827559814453125,0.10790291428565979,-0.06484989076852798,0.017606958746910095
1783696051551523800,2.83752392578125,0.0807890072464943,-0.08576742559671402,-0.05374951288104057
1783696051561486800,2.84748681640625,0.06230420246720314,-0.0353618785738945,-0.12356813997030258
1783696051571451000,2.857450927734375,0.04580511897802353,0.10371798276901245,-0.20004960894584656
1783696051581415000,2.867414794921875,0.059082288295030594,0.2957495152950287,-0.2922074496746063
1783696051591378000,2.8773779296875,0.09352228045463562,0.5103505253791809,-0.3954299986362457
1783696051601342000,2.887342041015625,0.13009673357009888,0.7404848337173462,-0.5023542046546936
1783696051611306000,2.897305908203125,0.17270517349243164,1.025634765625,-0.611708402633667
1783696051621270000,2.90727001953125,0.2107393890619278,1.2482506036758423,-0.7307592630386353
1783696051631233000,2.91723291015625,0.24072284996509552,1.3517591953277588,-0.8388630747795105
1783696051641197000,2.927197021484375,0.24029141664505005,1.3299721479415894,-0.9148659110069275
1783696051651160800,2.937160888671875,0.21942368149757385,1.2551296949386597,-0.948159396648407
1783696051661124000,2.9471240234375,0.1713927984237671,1.1114027500152588,-0.9309581518173218
1783696051671087900,2.957087890625,0.10637865215539932,0.9204490184783936,-0.8844572305679321
1783696051681052000,2.967052001953125,0.04012034460902214,0.7462957501411438,-0.8074787855148315
1783696051691016000,2.977015869140625,-0.024077283218503,0.6306599974632263,-0.7074850797653198
1783696051700979000,2.98697900390625,-0.10141805559396744,0.5188271403312683,-0.5946056842803955
1783696051710943000,2.99694287109375,-0.18539658188819885,0.37878483533859253,-0.4881213307380676
1783696051720907000,3.006906982421875,-0.2538717985153198,0.1891980916261673,-0.39084553718566895
1783696051730870000,3.0168701171875,-0.30797258019447327,0.008181172423064709,-0.2942252457141876
1783696051740834000,3.026833984375,-0.36565446853637695,-0.14550678431987762,-0.19890467822551727
1783696051750798000,3.036798095703125,-0.41227948665618896,-0.2998782694339752,-0.10224604606628418
1783696051760761900,3.046761962890625,-0.44279974699020386,-0.4323560297489166,-0.008448157459497452
1783696051770725000,3.05672509765625,-0.47332969307899475,-0.5490565299987793,0.0923096165060997
1783696051780689000,3.06668896484375,-0.5147750973701477,-0.6215680241584778,0.18520504236221313
1783696051790653000,3.07665283203125,-0.5489479899406433,-0.6322460174560547,0.25327304005622864
1783696051800616000,3.086615966796875,-0.5794772505760193,-0.5852961540222168,0.27810153365135193
1783696051810580000,3.096580078125,-0.6019452810287476,-0.513851523399353,0.2577406167984009
1783696051820544000,3.1065439453125,-0.6072713136672974,-0.4537813365459442,0.21026508510112762
1783696051830508000,3.116508056640625,-0.6118255853652954,-0.372354120016098,0.16306908428668976
1783696051840471000,3.126470947265625,-0.616772472858429,-0.28896161913871765,0.1135089099407196
1783696051850435000,3.13643505859375,-0.6006624698638916,-0.20552825927734375,0.059475768357515335
1783696051860399000,3.146399169921875,-0.5978816151618958,-0.15951032936573029,-0.0017671386012807488
1783696051870362000,3.156362060546875,-0.5954940915107727,-0.10681648552417755,-0.05984295904636383
1783696051880326100,3.166326171875,-0.6024444699287415,-0.09704989939928055,-0.1037731021642685
1783696051890290000,3.1762900390625,-0.6412776112556458,-0.13350191712379456,-0.15846911072731018
1783696051900254000,3.18625390625,-0.6881992220878601,-0.21286988258361816,-0.22434109449386597
1783696051910217000,3.196217041015625,-0.7110352516174316,-0.3104899227619171,-0.27242764830589294
1783696051920181000,3.206180908203125,-0.7452145218849182,-0.39092594385147095,-0.29479026794433594
1783696051930145000,3.21614501953125,-0.7762256860733032,-0.4636880159378052,-0.28926846385002136
1783696051940108000,3.22610791015625,-0.7792708873748779,-0.5102071166038513,-0.2519710063934326
1783696051950072000,3.236072021484375,-0.7528128623962402,-0.5338701009750366,-0.19550584256649017
1783696051960036000,3.2460361328125,-0.7090096473693848,-0.5376688241958618,-0.1308215856552124
1783696051970000100,3.256000244140625,-0.6542308330535889,-0.5317862033843994,-0.07153642177581787
1783696051979963100,3.265963134765625,-0.5976423621177673,-0.5214540958404541,-0.025675693526864052
1783696051989927200,3.27592724609375,-0.5454636216163635,-0.501288652420044,0.006489432882517576
1783696051999891000,3.285890869140625,-0.49886786937713623,-0.455854594707489,0.03020794503390789
1783696052009854000,3.29585400390625,-0.4660678505897522,-0.3912132978439331,0.04670755937695503
1783696052019818000,3.30581787109375,-0.4412781298160553,-0.32659170031547546,0.051772117614746094
1783696052029782000,3.315781982421875,-0.4217963218688965,-0.28217148780822754,0.04950443655252457
1783696052039746000,3.32574609375,-0.4079921245574951,-0.24456770718097687,0.04551621899008751
1783696052049709000,3.335708984375,-0.394222229719162,-0.20882728695869446,0.045132193714380264
1783696052059673000,3.345673095703125,-0.38458767533302307,-0.17901813983917236,0.05232595279812813
1783696052069637000,3.35563720703125,-0.3775835633277893,-0.1613406091928482,0.0613388866186142
1783696052079600000,3.36560009765625,-0.3703596293926239,-0.15011724829673767,0.06308919936418533
1783696052089564200,3.375564208984375,-0.3674874007701874,-0.1480759233236313,0.05773384869098663
1783696052099528200,3.385528076171875,-0.37588098645210266,-0.1472874879837036,0.03809436410665512
1783696052109492000,3.395491943359375,-0.37717556953430176,-0.16904258728027344,0.026133840903639793
1783696052119455000,3.405455078125,-0.3805284798145294,-0.1653839349746704,0.019148102030158043
1783696052129419000,3.4154189453125,-0.38645321130752563,-0.14932267367839813,0.0031848493963479996
1783696052139383000,3.425383056640625,-0.36501792073249817,-0.16743184626102448,-0.013886544853448868
1783696052149346000,3.435345947265625,-0.35134419798851013,-0.1568114310503006,-0.034932442009449005
1783696052159310000,3.44531005859375,-0.33233052492141724,-0.16457805037498474,-0.06565602868795395
1783696052169274000,3.455274169921875,-0.2956755757331848,-0.19356442987918854,-0.09483255445957184
1783696052179238100,3.465238037109375,-0.2430758774280548,-0.17464181780815125,-0.11281932890415192
1783696052189201200,3.475201171875,-0.204732745885849,-0.1735435426235199,-0.11279589682817459
1783696052199165200,3.485165283203125,-0.16640007495880127,-0.2262886017560959,-0.11070384830236435
1783696052209129200,3.495129150390625,-0.12660366296768188,-0.26153475046157837,-0.08756710588932037
1783696052219092200,3.50509228515625,-0.08007209002971649,-0.28343167901039124,-0.046834029257297516
1783696052229056000,3.515055908203125,-0.0541725754737854,-0.32073774933815,-0.00017491367179900408
1783696052239020000,3.52502001953125,-0.039710838347673416,-0.30688536167144775,0.06294985860586166
1783696052248984000,3.534984130859375,-0.028011571615934372,-0.2551095187664032,0.13722142577171326
1783696052258947000,3.544947021484375,-0.02983059734106064,-0.1846076399087906,0.21150343120098114
1783696052268911000,3.5549111328125,-0.04269872605800629,-0.13687527179718018,0.2598717510700226
1783696052278875100,3.564875244140625,-0.07207442075014114,-0.15445560216903687,0.2634165287017822
1783696052288838100,3.574838134765625,-0.11067959666252136,-0.17341651022434235,0.23636841773986816
1783696052298802200,3.58480224609375,-0.1647719442844391,-0.17516857385635376,0.20076119899749756
1783696052308766200,3.59476611328125,-0.23654413223266602,-0.19387462735176086,0.16226734220981598
1783696052318730200,3.604730224609375,-0.31821030378341675,-0.2236005961894989,0.1267266869544983
1783696052328693200,3.614693359375,-0.3944249153137207,-0.24272394180297852,0.11939073354005814
1783696052338657000,3.624656982421875,-0.44212454557418823,-0.2326667457818985,0.1682853400707245
1783696052348621000,3.63462109375,-0.4706565737724304,-0.22145457565784454,0.2797556519508362
1783696052358583800,3.644583740234375,-0.48308223485946655,-0.22728559374809265,0.42655208706855774
1783696052368548000,3.654548095703125,-0.4772901237010956,-0.2326446771621704,0.5771360397338867
1783696052378512100,3.66451220703125,-0.450003057718277,-0.2051888257265091,0.6947833895683289
1783696052388476200,3.67447607421875,-0.4052201509475708,-0.150260329246521,0.7656591534614563
1783696052398439000,3.68443896484375,-0.36303332448005676,-0.0906558409333229,0.7712088227272034
1783696052408403200,3.6944033203125,-0.3363761603832245,-0.03550310805439949,0.7269303202629089
1783696052418367200,3.7043671875,-0.3242442309856415,0.013779403641819954,0.6478607654571533
1783696052428330000,3.714330078125,-0.31830963492393494,0.06470037996768951,0.5589343905448914
1783696052438294000,3.7242939453125,-0.3261439800262451,0.1101766899228096,0.47609519958496094
1783696052448258000,3.734258056640625,-0.3390781581401825,0.12250233441591263,0.40825891494750977
1783696052458222000,3.74422216796875,-0.35557693243026733,0.1113869771361351,0.3667118549346924
1783696052468184800,3.754184814453125,-0.3684181571006775,0.07871291786432266,0.35314705967903137
1783696052478148900,3.76414892578125,-0.37466639280319214,0.03904804214835167,0.35845470428466797
1783696052488113000,3.77411279296875,-0.3686521649360657,-0.0015342732658609748,0.3741271197795868
1783696052498076000,3.784075927734375,-0.3532898426055908,-0.026874743402004242,0.396763414144516
1783696052508040000,3.7940400390625,-0.32617807388305664,-0.04184969887137413,0.41764286160469055
1783696052518004000,3.80400390625,-0.2897975742816925,-0.04965656250715256,0.43534401059150696
1783696052527968000,3.813968017578125,-0.24456912279129028,-0.056627653539180756,0.4476539194583893
1783696052537931000,3.823930908203125,-0.1923721879720688,-0.058516908437013626,0.44917604327201843
1783696052547895000,3.83389501953125,-0.13778963685035706,-0.05283132568001747,0.44284915924072266
1783696052557858800,3.84385888671875,-0.09135794639587402,-0.04060760512948036,0.4307180941104889
1783696052567822000,3.853822021484375,-0.054715510457754135,-0.033896174281835556,0.41379478573799133
1783696052577785900,3.863785888671875,-0.027342963963747025,-0.05230928584933281,0.3920578956604004
1783696052587750000,3.87375,-0.019934847950935364,-0.10689210146665573,0.365034818649292
1783696052597714000,3.8837138671875,-0.026685521006584167,-0.1932925581932068,0.3429456353187561
1783696052607677000,3.893677001953125,-0.04428315535187721,-0.2932697534561157,0.3257615864276886
1783696052617641000,3.903640869140625,-0.06739279627799988,-0.4001724421977997,0.30354008078575134
1783696052627605000,3.91360498046875,-0.08830233663320541,-0.4939098358154297,0.2735995054244995
1783696052637568000,3.923568115234375,-0.1131158173084259,-0.579397439956665,0.23991942405700684
1783696052647532000,3.933531982421875,-0.14692358672618866,-0.6712799668312073,0.19129116833209991
1783696052657496000,3.94349609375,-0.1905660629272461,-0.7517866492271423,0.13273556530475616
1783696052667459800,3.9534599609375,-0.2493196576833725,-0.8197497129440308,0.06930306553840637
1783696052677423000,3.963423095703125,-0.31763890385627747,-0.8465848565101624,0.00879660900682211
1783696052687387000,3.973386962890625,-0.38363417983055115,-0.8329364061355591,-0.052269142121076584
1783696052697351000,3.983350830078125,-0.43825650215148926,-0.7931824326515198,-0.09270881861448288
1783696052707314000,3.99331396484375,-0.47923722863197327,-0.7291560173034668,-0.10788457095623016
1783696052717278000,4.00327783203125,-0.5050927400588989,-0.6585140228271484,-0.08872032910585403
1783696052727242000,4.013241943359375,-0.5123175978660583,-0.5698158740997314,-0.0400976687669754
1783696052737206000,4.0232060546875,-0.514469563961029,-0.48752129077911377,0.02093987725675106
1783696052747169000,4.0331689453125,-0.5114766955375671,-0.44099003076553345,0.06920620799064636
1783696052757133000,4.043133056640625,-0.5171787142753601,-0.43307167291641235,0.1037481501698494
1783696052767097000,4.05309716796875,-0.5310673713684082,-0.4284292459487915,0.13009054958820343
1783696052777060000,4.06306005859375,-0.5581047534942627,-0.4065440595149994,0.1598440408706665
1783696052787024100,4.073024169921875,-0.5914906859397888,-0.3820384740829468,0.19664067029953003
1783696052796988000,4.08298779296875,-0.6292762160301208,-0.37234947085380554,0.23040729761123657
1783696052806952000,4.092951904296875,-0.6724857687950134,-0.36352667212486267,0.2610440254211426
1783696052816915000,4.1029150390625,-0.7166211605072021,-0.37751010060310364,0.27188602089881897
1783696052826879000,4.11287890625,-0.762815535068512,-0.4318865239620209,0.2660883069038391
1783696052836843000,4.122843017578125,-0.805703341960907,-0.5134395956993103,0.25009769201278687
1783696052846806000,4.132805908203125,-0.8483788967132568,-0.6352877020835876,0.23003770411014557
1783696052856770000,4.14277001953125,-0.8854893445968628,-0.781540036201477,0.22637344896793365
1783696052866734000,4.152734130859375,-0.9251363277435303,-0.9195919036865234,0.2457207888364792
1783696052876698000,4.162697998046875,-0.9544186592102051,-1.0479846000671387,0.28875693678855896
1783696052886661000,4.1726611328125,-0.9758456945419312,-1.1627156734466553,0.3633075952529907
1783696052896625200,4.182625244140625,-1.0082781314849854,-1.2664421796798706,0.4485429525375366
1783696052906589000,4.1925888671875,-1.0496561527252197,-1.3788316249847412,0.5295068025588989
1783696052916552200,4.20255224609375,-1.0934288501739502,-1.4450563192367554,0.5840187072753906
1783696052926516000,4.212515869140625,-1.1424323320388794,-1.4601950645446777,0.5977584719657898
1783696052936480000,4.22247998046875,-1.1891769170761108,-1.4470102787017822,0.5618444085121155
1783696052946444000,4.232444091796875,-1.2441474199295044,-1.387576699256897,0.4998342990875244
1783696052956407000,4.242406982421875,-1.297329068183899,-1.2910032272338867,0.42684391140937805
1783696052966371000,4.25237109375,-1.3414089679718018,-1.1575779914855957,0.33662480115890503
1783696052976335000,4.262335205078125,-1.3675345182418823,-1.026339054107666,0.24586863815784454
1783696052986298000,4.272298095703125,-1.3887532949447632,-0.9175020456314087,0.17095869779586792
1783696052996262100,4.28226220703125,-1.4101989269256592,-0.8543493747711182,0.11227203160524368
1783696053006226200,4.29222607421875,-1.4312653541564941,-0.827989399433136,0.08334556967020035
1783696053016189200,4.302189208984375,-1.4551596641540527,-0.7915533781051636,0.08064384758472443
1783696053026153000,4.312153076171875,-1.4801305532455444,-0.7678229808807373,0.08382366597652435
1783696053036117000,4.322116943359375,-1.5162588357925415,-0.7630698084831238,0.07605770230293274
1783696053046081000,4.3320810546875,-1.5631054639816284,-0.7596747875213623,0.04391121491789818
1783696053056044000,4.3420439453125,-1.6157578229904175,-0.7486810088157654,-0.00103437015786767
1783696053066008000,4.352008056640625,-1.6672590970993042,-0.7394741773605347,-0.05156891793012619
1783696053075972000,4.36197216796875,-1.7090569734573364,-0.7249565720558167,-0.10112312436103821
1783696053085935000,4.37193505859375,-1.7432609796524048,-0.723061740398407,-0.1449454426765442
1783696053095899100,4.381899169921875,-1.774013876914978,-0.7436386346817017,-0.17598535120487213
1783696053105863200,4.39186328125,-1.795613169670105,-0.7821263670921326,-0.1881389617919922
1783696053115827200,4.4018271484375,-1.8096810579299927,-0.8301333785057068,-0.17567843198776245
1783696053125790200,4.411790283203125,-1.831568956375122,-0.9056515693664551,-0.14607952535152435
1783696053135754000,4.42175390625,-1.8490203619003296,-1.0070806741714478,-0.09822110831737518
1783696053145718000,4.431718017578125,-1.8720459938049316,-1.1049784421920776,-0.029220201075077057
1783696053155681000,4.441680908203125,-1.8933416604995728,-1.177189826965332,0.058336734771728516
1783696053165645000,4.45164501953125,-1.8977481126785278,-1.1907939910888672,0.1458071917295456
1783696053175609000,4.461609130859375,-1.8743491172790527,-1.1654367446899414,0.20806317031383514
1783696053185573000,4.471572998046875,-1.8384236097335815,-1.144415020942688,0.23631425201892853
1783696053195536100,4.4815361328125,-1.777579426765442,-1.1017159223556519,0.2187008559703827
1783696053205500200,4.491500244140625,-1.7085294723510742,-1.0548096895217896,0.1621297299861908
1783696053215464200,4.501464111328125,-1.655450701713562,-1.0359123945236206,0.06547986716032028
1783696053225427200,4.51142724609375,-1.6223398447036743,-1.0744457244873047,-0.059139832854270935
1783696053235391200,4.52139111328125,-1.616315484046936,-1.1456365585327148,-0.18933986127376556
1783696053245355000,4.53135498046875,-1.636191725730896,-1.2185208797454834,-0.29047098755836487
1783696053255318300,4.541318359375,-1.6819168329238892,-1.262694239616394,-0.340590238571167
1783696053265282000,4.551281982421875,-1.7343683242797852,-1.2898765802383423,-0.3286856412887573
1783696053275246000,4.56124609375,-1.7750122547149658,-1.281195044517517,-0.2686792016029358
1783696053285210000,4.571210205078125,-1.8072125911712646,-1.2302091121673584,-0.1849353015422821
1783696053295173000,4.581173095703125,-1.8245126008987427,-1.1404986381530762,-0.10684508830308914
1783696053305137200,4.59113720703125,-1.8241965770721436,-1.0670223236083984,-0.06926868110895157
1783696053315101200,4.60110107421875,-1.806797981262207,-1.0649842023849487,-0.08936929702758789
1783696053325064200,4.611064208984375,-1.7912768125534058,-1.1215835809707642,-0.14223596453666687
1783696053335028200,4.6210283203125,-1.779387354850769,-1.2194714546203613,-0.2043505162000656
1783696053344992300,4.6309921875,-1.7664146423339844,-1.3409806489944458,-0.2418728619813919
1783696053354956000,4.6409560546875,-1.7555878162384033,-1.4521143436431885,-0.224521204829216
1783696053364919300,4.650919189453125,-1.757577896118164,-1.5100010633468628,-0.14948716759681702
1783696053374883000,4.660883056640625,-1.7652426958084106,-1.5310490131378174,-0.026393521577119827
1783696053384847000,4.67084716796875,-1.7744910717010498,-1.4854650497436523,0.10623376071453094
1783696053394810000,4.68081005859375,-1.765878677368164,-1.433628797531128,0.22804948687553406
1783696053404774100,4.690774169921875,-1.7659794092178345,-1.3882311582565308,0.3084798753261566
1783696053414738200,4.70073828125,-1.7745987176895142,-1.3875237703323364,0.3293655216693878
1783696053424701200,4.710701171875,-1.7733672857284546,-1.397819995880127,0.30716755986213684
1783696053434665200,4.720665283203125,-1.7628978490829468,-1.3758379220962524,0.2745274305343628
1783696053444629200,4.730629150390625,-1.76026451587677,-1.3081855773925781,0.25139522552490234
1783696053454593300,4.74059326171875,-1.7604565620422363,-1.2022266387939453,0.2336389571428299
1783696053464556300,4.750556396484375,-1.7645906209945679,-1.1025398969650269,0.20923614501953125
1783696053474520300,4.760520263671875,-1.7768501043319702,-1.039465069770813,0.18979789316654205
1783696053484484000,4.770484130859375,-1.7718188762664795,-0.9490302801132202,0.16366510093212128
1783696053494447000,4.780447021484375,-1.7608509063720703,-0.817378044128418,0.15254203975200653
1783696053504411100,4.7904111328125,-1.7509649991989136,-0.7187294960021973,0.14469902217388153
1783696053514375200,4.800375244140625,-1.7325057983398438,-0.6676213145256042,0.14510193467140198
1783696053524339200,4.810339111328125,-1.7065865993499756,-0.6430935859680176,0.1473270058631897
1783696053534302200,4.82030224609375,-1.6709023714065552,-0.6307696104049683,0.13815496861934662
1783696053544266200,4.830266357421875,-1.6310853958129883,-0.6220732927322388,0.10968098789453506
1783696053554230300,4.840230224609375,-1.5919901132583618,-0.6234372854232788,0.06534811109304428
1783696053564193300,4.850193359375,-1.5503766536712646,-0.6363967657089233,0.02246136963367462
1783696053574157300,4.8601572265625,-1.5078197717666626,-0.6744721531867981,-0.0030051616486161947
1783696053584121300,4.870121337890625,-1.4730104207992554,-0.7204574942588806,0.0016761430306360126
1783696053594084400,4.88008447265625,-1.4364979267120361,-0.775164783000946,0.04501522704958916
1783696053604048100,4.890048095703125,-1.400295376777649,-0.8082774877548218,0.11950011551380157
1783696053614012200,4.90001220703125,-1.3650604486465454,-0.8220221400260925,0.2038530558347702
1783696053623976200,4.90997607421875,-1.3252999782562256,-0.8099409341812134,0.28195875883102417
1783696053633939200,4.919939208984375,-1.2797057628631592,-0.781413197517395,0.3373569846153259
1783696053643903200,4.9299033203125,-1.2293429374694824,-0.7532398700714111,0.3608303368091583
1783696053653867300,4.9398671875,-1.1679428815841675,-0.7109609246253967,0.3552347421646118
1783696053663830300,4.949830322265625,-1.1068092584609985,-0.6485332250595093,0.33485889434814453
1783696053673794300,4.959794189453125,-1.0367381572723389,-0.5590956211090088,0.3134872615337372
1783696053683758300,4.96975830078125,-0.9793199896812439,-0.480805367231369,0.28252696990966797
1783696053693722400,4.979722412109375,-0.9354910850524902,-0.429263710975647,0.24304135143756866
1783696053703685400,4.989685302734375,-0.9028791189193726,-0.38037392497062683,0.20931056141853333
1783696053713649200,4.999649169921875,-0.8810069561004639,-0.32751598954200745,0.19690683484077454
1783696053723613200,5.00961328125,-0.8681396245956421,-0.28018495440483093,0.19705091416835785
1783696053733576000,5.019575927734375,-0.8603897094726562,-0.2895689010620117,0.20234893262386322
1783696053743540000,5.0295400390625,-0.8642305135726929,-0.377672404050827,0.20355746150016785
1783696053753504300,5.039504150390625,-0.8828222155570984,-0.4994754493236542,0.20663751661777496
1783696053763467000,5.049467041015625,-0.9180422425270081,-0.6257047653198242,0.20755018293857574
1783696053773431000,5.05943115234375,-0.9551505446434021,-0.7210185527801514,0.2028200328350067
1783696053783395000,5.06939501953125,-0.9761013984680176,-0.7753560543060303,0.19097456336021423
1783696053793359400,5.079359375,-0.9837012887001038,-0.7941545248031616,0.18715590238571167
1783696053803322000,5.089322021484375,-0.9800825715065002,-0.7863978147506714,0.21278057992458344
1783696053813286100,5.0992861328125,-0.9785635471343994,-0.7645753622055054,0.2639366090297699
1783696053823250200,5.109250244140625,-0.9581317901611328,-0.7271813750267029,0.31519925594329834
1783696053833213200,5.119213134765625,-0.9186311364173889,-0.6583195924758911,0.35181939601898193
1783696053843177000,5.129177001953125,-0.8856438994407654,-0.6016401052474976,0.35919955372810364
1783696053853141000,5.13914111328125,-0.8628136515617371,-0.5939800143241882,0.31609806418418884
1783696053863104000,5.14910400390625,-0.8321036696434021,-0.5840293765068054,0.24744950234889984
1783696053873068000,5.159068115234375,-0.831447184085846,-0.5630662441253662,0.17643487453460693
1783696053883032000,5.169031982421875,-0.8595826625823975,-0.5657690763473511,0.11413314938545227
1783696053892996000,5.17899609375,-0.8862134218215942,-0.5673136115074158,0.06454309076070786
1783696053902959000,5.188958984375,-0.9116237163543701,-0.5347782969474792,0.02804527059197426
1783696053912923100,5.198923095703125,-0.9358476400375366,-0.4900180995464325,0.0090482784435153
1783696053922887200,5.20888720703125,-0.9459609985351562,-0.4213373064994812,0.00759978499263525
1783696053932850200,5.21885009765625,-0.9424991607666016,-0.37275823950767517,0.014793035574257374
1783696053942814200,5.228814208984375,-0.9246546626091003,-0.35067158937454224,0.028744004666805267
1783696053952778000,5.238778076171875,-0.8947161436080933,-0.3450348377227783,0.04763306304812431
1783696053962741200,5.2487412109375,-0.8595048785209656,-0.32781192660331726,0.06720862537622452
1783696053972705000,5.258705078125,-0.8251162171363831,-0.30789145827293396,0.08220592886209488
1783696053982669000,5.2686689453125,-0.7971769571304321,-0.3084677457809448,0.08332312107086182
1783696053992633000,5.278633056640625,-0.7871168255805969,-0.34644585847854614,0.07228080183267593
1783696054002596000,5.28859619140625,-0.7877887487411499,-0.4257390797138214,0.05137898400425911
1783696054012560100,5.29856005859375,-0.786100447177887,-0.5200031995773315,0.033467601984739304
1783696054022524200,5.308524169921875,-0.795583188533783,-0.6286748051643372,0.014683794230222702
1783696054032487200,5.318487060546875,-0.807540774345398,-0.735388994216919,-0.0016310231294482946
1783696054042451200,5.328451171875,-0.8160319924354553,-0.8066735863685608,-0.010165921412408352
1783696054052415200,5.338415283203125,-0.8183004260063171,-0.8532655835151672,-0.018903087824583054
1783696054062379000,5.34837890625,-0.8226925134658813,-0.8710986375808716,-0.03478564694523811
1783696054072342300,5.35834228515625,-0.8339268565177917,-0.8622782230377197,-0.05482151359319687
1783696054082306000,5.36830615234375,-0.8523598909378052,-0.8328476548194885,-0.08148588240146637
1783696054092270000,5.37827001953125,-0.86970055103302,-0.7782171368598938,-0.11917176842689514
1783696054102233000,5.388233154296875,-0.8944165110588074,-0.7040731310844421,-0.15356996655464172
1783696054112197000,5.398197021484375,-0.9168047308921814,-0.623354971408844,-0.1846688836812973
1783696054122161200,5.4081611328125,-0.9301751255989075,-0.5506266951560974,-0.21390026807785034
1783696054132124200,5.418124267578125,-0.9383001327514648,-0.49566128849983215,-0.23388125002384186
1783696054142088200,5.428088134765625,-0.9386130571365356,-0.45234256982803345,-0.2406802922487259
1783696054152052200,5.43805224609375,-0.9377883076667786,-0.42736178636550903,-0.23696406185626984
1783696054162016300,5.448016357421875,-0.9374500513076782,-0.40608155727386475,-0.21645186841487885
1783696054171979300,5.457979248046875,-0.9414712190628052,-0.3778021037578583,-0.188645601272583
1783696054181943300,5.467943359375,-0.9424113631248474,-0.348900705575943,-0.1593923717737198
1783696054191907000,5.477906982421875,-0.9378894567489624,-0.3100876212120056,-0.13132132589817047
1783696054201870000,5.4878701171875,-0.9295284748077393,-0.2725016474723816,-0.11165361106395721
1783696054211834000,5.497834228515625,-0.9140998721122742,-0.23106829822063446,-0.10556450486183167
1783696054221798100,5.507798095703125,-0.8978548645973206,-0.1984533667564392,-0.11098963022232056
1783696054231761200,5.51776123046875,-0.8808891773223877,-0.20267999172210693,-0.12486949563026428
1783696054241725200,5.52772509765625,-0.8644284605979919,-0.21685759723186493,-0.12878940999507904
1783696054251689200,5.537689208984375,-0.8570045828819275,-0.2307848185300827,-0.12615002691745758
1783696054261652000,5.54765185546875,-0.8587521910667419,-0.2633286416530609,-0.12061969935894012
1783696054271616000,5.557615966796875,-0.8553624153137207,-0.29167550802230835,-0.10632944852113724
1783696054281580000,5.567580078125,-0.8517674207687378,-0.32731953263282776,-0.07579630613327026
1783696054291544000,5.5775439453125,-0.8490646481513977,-0.3656274378299713,-0.037146300077438354
1783696054301507000,5.587507080078125,-0.8412389755249023,-0.40016889572143555,0.01245960220694542
1783696054311471000,5.59747119140625,-0.8293996453285217,-0.41522616147994995,0.06125723570585251
1783696054321435000,5.607434814453125,-0.8122901320457458,-0.43133509159088135,0.10010023415088654
1783696054331398000,5.61739794921875,-0.7862362861633301,-0.452584445476532,0.12754642963409424
1783696054341362000,5.62736181640625,-0.7577924132347107,-0.4614735543727875,0.1414337456226349
1783696054351326000,5.637325927734375,-0.7255363464355469,-0.4490584135055542,0.135009765625
1783696054361289000,5.6472890625,-0.6959472894668579,-0.43106797337532043,0.09536060690879822
1783696054371253000,5.6572529296875,-0.6734652519226074,-0.3954490125179291,0.01986294984817505
1783696054381217000,5.667217041015625,-0.6572687029838562,-0.37293893098831177,-0.08372868597507477
1783696054391181000,5.67718115234375,-0.6545520424842834,-0.36017051339149475,-0.1664464920759201
1783696054401144000,5.68714404296875,-0.6737995147705078,-0.3182062804698944,-0.23313656449317932
1783696054411108000,5.697108154296875,-0.6498807668685913,-0.3572852909564972,-0.2607886791229248
1783696054421072100,5.707072021484375,-0.644144594669342,-0.3750549852848053,-0.23284201323986053
1783696054431035100,5.71703515625,-0.668055534362793,-0.3830539286136627,-0.18218247592449188
1783696054440999000,5.7269990234375,-0.667842447757721,-0.39066338539123535,-0.12307307869195938
1783696054450963000,5.736962890625,-0.6720036864280701,-0.4151752293109894,-0.07123404741287231
1783696054460926000,5.746926025390625,-0.6737339496612549,-0.4449816048145294,-0.015154263004660606
1783696054470890000,5.756889892578125,-0.6935153007507324,-0.45259737968444824,0.02934982441365719
1783696054480854000,5.76685400390625,-0.6894129514694214,-0.51373291015625,0.0760001465678215
1783696054490818000,5.776818115234375,-0.6657705307006836,-0.5701023936271667,0.15237782895565033
1783696054500781000,5.786781005859375,-0.6571789383888245,-0.5800439715385437,0.25360509753227234
1783696054510745000,5.7967451171875,-0.6438690423965454,-0.5520104765892029,0.36131757497787476
1783696054520709000,5.806709228515625,-0.6106354594230652,-0.5222938656806946,0.45157554745674133
1783696054530672000,5.816672119140625,-0.5874752402305603,-0.5097689628601074,0.5024572610855103
1783696054540636200,5.82663623046875,-0.5822338461875916,-0.5373451709747314,0.49598610401153564
1783696054550600000,5.836599853515625,-0.5777793526649475,-0.5816180109977722,0.43327540159225464
1783696054560563200,5.846563232421875,-0.5805442333221436,-0.6007863879203796,0.3447255492210388
1783696054570527000,5.85652685546875,-0.5953221321105957,-0.5848250985145569,0.2468734085559845
1783696054580491000,5.866490966796875,-0.6279735565185547,-0.5379518270492554,0.15708014369010925
1783696054590455000,5.876455078125,-0.669346034526825,-0.45442479848861694,0.09552793949842453
1783696054600418000,5.88641796875,-0.7112604975700378,-0.36051109433174133,0.06458946317434311
1783696054610382000,5.896382080078125,-0.7456907033920288,-0.26887938380241394,0.07061771303415298
1783696054620346000,5.90634619140625,-0.769005298614502,-0.21269866824150085,0.09851273149251938
1783696054630309000,5.91630908203125,-0.7802926301956177,-0.214316263794899,0.13389991223812103
1783696054640273200,5.926273193359375,-0.7853521108627319,-0.2550991177558899,0.17040199041366577
1783696054650237200,5.9362373046875,-0.7900366187095642,-0.30685606598854065,0.20692884922027588
1783696054660200200,5.9462001953125,-0.8039902448654175,-0.3479768633842468,0.23551201820373535
1783696054670164200,5.956164306640625,-0.8322702050209045,-0.3772488832473755,0.2470792979001999
1783696054680128000,5.9661279296875,-0.8574986457824707,-0.39416182041168213,0.24419055879116058
1783696054690092000,5.976092041015625,-0.8860352635383606,-0.37401270866394043,0.23227278888225555
1783696054700055000,5.986054931640625,-0.9143214821815491,-0.3388243615627289,0.20704732835292816
1783696054710019000,5.99601904296875,-0.9202853441238403,-0.31446048617362976,0.17648965120315552
1783696054719983000,6.005983154296875,-0.9234001636505127,-0.2908518314361572,0.15086045861244202
1783696054729946000,6.015946044921875,-0.9242941737174988,-0.26846975088119507,0.1364908516407013
1783696054739910100,6.02591015625,-0.9162293076515198,-0.25305747985839844,0.1353965550661087
1783696054749874200,6.035874267578125,-0.913213312625885,-0.24087263643741608,0.1588091403245926
1783696054759837200,6.045837158203125,-0.9166892170906067,-0.2291203737258911,0.190288245677948
1783696054769801200,6.05580126953125,-0.9290655851364136,-0.21848031878471375,0.2213144302368164
1783696054779765200,6.06576513671875,-0.9412764310836792,-0.22108303010463715,0.23966281116008759
1783696054789728000,6.07572802734375,-0.9495762586593628,-0.2280738353729248,0.24966296553611755
1783696054799692000,6.085692138671875,-0.9511523246765137,-0.23092660307884216,0.2570934593677521
1783696054809656000,6.095656005859375,-0.9471189379692078,-0.23332995176315308,0.25899216532707214
1783696054819620000,6.1056201171875,-0.944109320640564,-0.24983274936676025,0.2485312819480896
1783696054829582800,6.115582763671875,-0.9352644085884094,-0.2536064684391022,0.22806276381015778
1783696054839547100,6.125547119140625,-0.9295551180839539,-0.2577761709690094,0.20072674751281738
1783696054849511200,6.13551123046875,-0.9243954420089722,-0.24797673523426056,0.16318799555301666
1783696054859474000,6.145473876953125,-0.9213607907295227,-0.2409507930278778,0.11504203826189041
1783696054869438000,6.15543798828125,-0.9140051007270813,-0.22054824233055115,0.06381282955408096
1783696054879402000,6.165402099609375,-0.9047026634216309,-0.18806833028793335,0.008436123840510845
1783696054889365000,6.175364990234375,-0.885850727558136,-0.16358564794063568,-0.0482640378177166
1783696054899329000,6.1853291015625,-0.8633670210838318,-0.17089682817459106,-0.1037864238023758
1783696054909293000,6.19529296875,-0.8341187238693237,-0.20313040912151337,-0.13586728274822235
1783696054919256800,6.2052568359375,-0.7989727258682251,-0.24336837232112885,-0.12748365104198456
1783696054929219800,6.2152197265625,-0.7690576910972595,-0.274663507938385,-0.07667376101016998
1783696054939183900,6.225183837890625,-0.736438512802124,-0.28653642535209656,0.005167308263480663
1783696054949148000,6.23514794921875,-0.6999697685241699,-0.2817333936691284,0.09081059694290161
1783696054959111000,6.24511083984375,-0.6598529815673828,-0.27444779872894287,0.16364751756191254
1783696054969075000,6.255074951171875,-0.6187140345573425,-0.26990821957588196,0.2028612196445465
1783696054979039000,6.2650390625,-0.5800254940986633,-0.2705385982990265,0.19792957603931427
1783696054989002000,6.275001953125,-0.5433571338653564,-0.2692515254020691,0.1697685569524765
1783696054998966000,6.284966064453125,-0.5090534687042236,-0.25340384244918823,0.12920993566513062
1783696055008930000,6.294929931640625,-0.4852459132671356,-0.22279122471809387,0.09638401120901108
1783696055018893000,6.30489306640625,-0.4667116403579712,-0.1924855262041092,0.06585938483476639
1783696055028857000,6.314857177734375,-0.44564297795295715,-0.1781538426876068,0.0383424386382103
1783696055038820900,6.32482080078125,-0.4256887137889862,-0.18581175804138184,0.016013700515031815
1783696055048785000,6.334784912109375,-0.3979296088218689,-0.22150181233882904,0.004199703689664602
1783696055058748000,6.344747802734375,-0.38105154037475586,-0.23517954349517822,0.007864213548600674
1783696055068712000,6.3547119140625,-0.3744930028915405,-0.23968619108200073,0.022860340774059296
1783696055078676000,6.364676025390625,-0.3664310574531555,-0.2613595128059387,0.032495126128196716
1783696055088639000,6.374638916015625,-0.35674527287483215,-0.27249762415885925,0.04679395258426666
1783696055098603000,6.38460302734375,-0.35786858201026917,-0.28157153725624084,0.056192249059677124
1783696055108567000,6.394567138671875,-0.3610561192035675,-0.2674829661846161,0.065733402967453
1783696055118530000,6.404530029296875,-0.36236265301704407,-0.24142156541347504,0.06208780035376549
1783696055128494000,6.414494140625,-0.3574543297290802,-0.20456363260746002,0.04433990642428398
1783696055138458000,6.4244580078125,-0.34952715039253235,-0.14345528185367584,0.030047787353396416
1783696055148422000,6.434421875,-0.3401162624359131,-0.10296078026294708,0.01745300367474556
1783696055158385200,6.44438525390625,-0.31972071528434753,-0.10431792587041855,0.026410814374685287
1783696055168349000,6.454348876953125,-0.28994038701057434,-0.11602463573217392,0.07849182933568954
1783696055178313000,6.46431298828125,-0.25623488426208496,-0.10637147724628448,0.16669413447380066
1783696055188276000,6.47427587890625,-0.21906547248363495,-0.11265700310468674,0.2606378495693207
1783696055198240000,6.484239990234375,-0.178152397274971,-0.13596391677856445,0.3425159156322479
1783696055208204000,6.4942041015625,-0.13864371180534363,-0.1489005833864212,0.4005683660507202
1783696055218167000,6.5041669921875,-0.10803359746932983,-0.15446844696998596,0.42539143562316895
1783696055228131000,6.514131103515625,-0.08391372114419937,-0.15444086492061615,0.4225005805492401
1783696055238095000,6.52409521484375,-0.06616827845573425,-0.14454083144664764,0.40666595101356506
1783696055248058000,6.53405810546875,-0.043745528906583786,-0.10001702606678009,0.39423805475234985
1783696055258021600,6.544021728515625,-0.016610581427812576,-0.03676002472639084,0.39162495732307434
1783696055267985700,6.553985595703125,0.019400298595428467,-0.013273976743221283,0.38305220007896423
1783696055277949700,6.56394970703125,0.043158356100320816,-0.03124845027923584,0.3724733293056488
1783696055287912700,6.57391259765625,0.05608132481575012,-0.039106059819459915,0.3665185272693634
1783696055297876500,6.58387646484375,0.051715072244405746,-0.04933765530586243,0.3613954186439514
1783696055307840500,6.593840576171875,0.03355420008301735,-0.05995945632457733,0.35559341311454773
1783696055317803500,6.603803466796875,-0.0010719533311203122,-0.08053424209356308,0.3461407721042633
1783696055327767600,6.613767578125,-0.03558649867773056,-0.08593198657035828,0.34449148178100586
1783696055337731600,6.623731689453125,-0.06565278768539429,-0.055462226271629333,0.35388365387916565
1783696055347694600,6.633694580078125,-0.07416513562202454,-0.02328508533537388,0.3642641603946686
1783696055357658600,6.64365869140625,-0.056838613003492355,0.00796417985111475,0.36242976784706116
1783696055367622700,6.65362255859375,-0.022289691492915154,0.025416672229766846,0.3412099778652191
1783696055377585700,6.663585693359375,0.022487368434667587,0.020421648398041725,0.29438042640686035
1783696055387549700,6.6735498046875,0.07381808757781982,0.009494072757661343,0.24130843579769135
1783696055397513700,6.683513671875,0.11289411783218384,-0.0021242336370050907,0.19817854464054108
1783696055407477500,6.6934775390625,0.13056641817092896,-0.023931557312607765,0.1713157296180725
1783696055417440800,6.703440673828125,0.1274891346693039,-0.033868610858917236,0.16520430147647858
1783696055427404500,6.713404541015625,0.10671284794807434,-0.06897478550672531,0.16757111251354218
1783696055437368600,6.72336865234375,0.07599248737096786,-0.15084834396839142,0.15168562531471252
1783696055447331600,6.73333154296875,0.042985811829566956,-0.24208705127239227,0.11739344894886017
1783696055457295600,6.743295654296875,0.014137919060885906,-0.31503981351852417,0.07710488140583038
1783696055467259600,6.753259765625,0.0078202523291111,-0.34581834077835083,0.03650283068418503
1783696055477222700,6.76322265625,0.019879311323165894,-0.32736796140670776,0.010334346443414688
1783696055487186700,6.773186767578125,0.04689207300543785,-0.27813348174095154,0.006340195890516043
1783696055497150700,6.783150634765625,0.08105110377073288,-0.24458885192871094,0.036645904183387756
1783696055507113700,6.79311376953125,0.11181045323610306,-0.22935537993907928,0.08381062000989914
1783696055517077800,6.803077880859375,0.14489543437957764,-0.20597442984580994,0.1295919567346573
1783696055527041800,6.813041748046875,0.17742252349853516,-0.14334340393543243,0.15455730259418488
1783696055537005600,6.823005615234375,0.19769982993602753,-0.08742102235555649,0.14864002168178558
1783696055546968600,6.832968505859375,0.20243461430072784,-0.08043358474969864,0.11055926978588104
1783696055556932600,6.8429326171875,0.19228583574295044,-0.10472401231527328,0.061899058520793915
1783696055566896600,6.852896728515625,0.1760389655828476,-0.1275523602962494,0.015401597134768963
1783696055576859600,6.862859619140625,0.1618666797876358,-0.14216990768909454,-0.010720551013946533
1783696055586823700,6.87282373046875,0.1476106196641922,-0.1488923579454422,-0.02407318726181984
1783696055596787700,6.88278759765625,0.13270464539527893,-0.1584528386592865,-0.03509654104709625
1783696055606750700,6.892750732421875,0.11626952141523361,-0.17023707926273346,-0.05219313129782677
1783696055616714800,6.90271484375,0.10237740725278854,-0.17851683497428894,-0.08351536840200424
1783696055626678800,6.9126787109375,0.08354843407869339,-0.17801739275455475,-0.1286623626947403
1783696055636641800,6.922641845703125,0.05292128399014473,-0.15726284682750702,-0.18623457849025726
1783696055646605800,6.932605712890625,0.01724906638264656,-0.10439702123403549,-0.2515544891357422
1783696055656569600,6.942569580078125,-0.016602640971541405,-0.024954132735729218,-0.31039997935295105
1783696055666532900,6.952532958984375,-0.03745760768651962,0.10055732727050781,-0.35391125082969666
1783696055676496600,6.96249658203125,-0.0429178848862648,0.23142187297344208,-0.37208226323127747
1783696055686460700,6.972460693359375,-0.03373022750020027,0.35431239008903503,-0.3630652129650116
1783696055696424700,6.9824248046875,-0.005234401673078537,0.4527745246887207,-0.3332329988479614
1783696055706387700,6.9923876953125,0.026737017557024956,0.5111772418022156,-0.2870847284793854
1783696055716351700,7.002351806640625,0.054908204823732376,0.5194247961044312,-0.24378493428230286
1783696055726315800,7.012315673828125,0.07593529671430588,0.47008582949638367,-0.20334511995315552
1783696055736278800,7.02227880859375,0.08360973000526428,0.3702324628829956,-0.1727408766746521
1783696055746242800,7.032242919921875,0.07072250545024872,0.24489107728004456,-0.15066350996494293
1783696055756206800,7.042206787109375,0.048861149698495865,0.12396306544542313,-0.12656696140766144
1783696055766169600,7.052169677734375,0.023207087069749832,0.027258822694420815,-0.1083657518029213
1783696055776134000,7.0621337890625,-0.0008311372366733849,-0.0375199057161808,-0.09958343952894211
1783696055786097700,7.07209765625,-0.022373314946889877,-0.09180182963609695,-0.09679772704839706
1783696055796061700,7.082061767578125,-0.026947826147079468,-0.1414830982685089,-0.09891626983880997
1783696055806024400,7.0920244140625,-0.017027948051691055,-0.16910678148269653,-0.08932723850011826
1783696055815988700,7.10198876953125,-0.003795500146225095,-0.2039899379014969,-0.06168016791343689
1783696055825952800,7.111952880859375,0.0020936427172273397,-0.2663048207759857,-0.02205093763768673
1783696055835915500,7.12191552734375,0.024191489443182945,-0.2754485309123993,0.012981348671019077
1783696055845879600,7.131879638671875,0.0203560683876276,-0.2180698812007904,0.040471531450748444
1783696055855843800,7.14184375,-0.005374062340706587,-0.1582406461238861,0.060997314751148224
1783696055865806600,7.151806640625,-0.03321585804224014,-0.11689452081918716,0.0626654177904129
1783696055875770600,7.1617705078125,-0.07497981935739517,-0.1656484752893448,0.05867280066013336
1783696055885734700,7.171734619140625,-0.07988493889570236,-0.15207284688949585,0.05311581864953041
1783696055895697700,7.18169775390625,-0.09209207445383072,-0.10443981736898422,0.06470270454883575
1783696055905661700,7.19166162109375,-0.11700181663036346,-0.08730889111757278,0.08655596524477005
1783696055915625500,7.20162548828125,-0.12759719789028168,-0.07791485637426376,0.11708378046751022
1783696055925588500,7.21158837890625,-0.12132155895233154,-0.03183939680457115,0.1511508822441101
1783696055935552500,7.221552490234375,-0.11780458688735962,0.01902138628065586,0.18151864409446716
1783696055945516500,7.2315166015625,-0.1130724772810936,0.04782779887318611,0.19503623247146606
1783696055955480600,7.24148046875,-0.10795708000659943,0.05437171831727028,0.19143164157867432
1783696055965443600,7.251443603515625,-0.10562801361083984,0.04938171058893204,0.18227282166481018
1783696055975407600,7.26140771484375,-0.10680805891752243,0.04766903072595596,0.1827889382839203
1783696055985371600,7.27137158203125,-0.10920309275388718,0.0376601479947567,0.1891927570104599
1783696055995334700,7.281334716796875,-0.10983186960220337,0.033176716417074203,0.20855660736560822
1783696056005298700,7.291298583984375,-0.09781288355588913,0.036440905183553696,0.22867311537265778
1783696056015262700,7.3012626953125,-0.07118260860443115,0.04015601798892021,0.24345844984054565
1783696056025225700,7.311225830078125,-0.04177575185894966,0.00979878194630146,0.22714756429195404
1783696056035189500,7.321189453125,-0.028246093541383743,-0.0384712778031826,0.18886008858680725
1783696056045153500,7.331153564453125,-0.03513661399483681,-0.06016471982002258,0.15977375209331512
1783696056055116500,7.341116455078125,-0.05079706758260727,-0.04172952100634575,0.14577510952949524
1783696056065080600,7.35108056640625,-0.06710891425609589,-0.010608145035803318,0.1323487013578415
1783696056075044600,7.361044677734375,-0.0807698667049408,0.0007387852529063821,0.10783642530441284
1783696056085008600,7.371008544921875,-0.08823821693658829,0.01805645227432251,0.08781398832798004
1783696056094971600,7.3809716796875,-0.09158235043287277,0.0546373650431633,0.08145781606435776
1783696056104935700,7.390935791015625,-0.08682684600353241,0.10641604661941528,0.08697591722011566
1783696056114899700,7.400899658203125,-0.07445033639669418,0.1539342999458313,0.0875929743051529
1783696056124862700,7.41086279296875,-0.06357308477163315,0.18206322193145752,0.08061732351779938
1783696056134826800,7.42082666015625,-0.05804701894521713,0.18137507140636444,0.07423453032970428
1783696056144790500,7.43079052734375,-0.06362704932689667,0.15134602785110474,0.06819123029708862
1783696056154753800,7.44075390625,-0.074630968272686,0.12071888893842697,0.07042855024337769
1783696056164717600,7.450717529296875,-0.09921085089445114,0.09566009044647217,0.06726948916912079
1783696056174681600,7.460681640625,-0.13724052906036377,0.04855409637093544,0.06316422671079636
1783696056184644600,7.47064453125,-0.17493470013141632,0.012325760908424854,0.06329714506864548
1783696056194608600,7.480608642578125,-0.20919734239578247,-0.009978479705750942,0.062004443258047104
1783696056204572700,7.49057275390625,-0.2344343066215515,-0.02490347810089588,0.05124621093273163
1783696056214536700,7.50053662109375,-0.26003849506378174,-0.03258057311177254,0.03626992553472519
1783696056224499700,7.510499755859375,-0.27704325318336487,-0.044969167560338974,0.018499335274100304
1783696056234463700,7.520463623046875,-0.2814635634422302,-0.05872918665409088,0.01715044490993023
1783696056244427800,7.530427734375,-0.2824530005455017,-0.06222878769040108,0.030693868175148964
1783696056254390800,7.540390869140625,-0.26434406638145447,-0.07617975771427155,0.06858612596988678
1783696056264355000,7.55035498046875,-0.23958922922611237,-0.09886644035577774,0.12997999787330627
1783696056274318800,7.56031884765625,-0.22951848804950714,-0.10513445734977722,0.20214927196502686
1783696056284281900,7.57028173828125,-0.23557808995246887,-0.10425548255443573,0.2625502049922943
1783696056294246000,7.580245849609375,-0.2617708444595337,-0.1457560509443283,0.291601300239563
1783696056304210000,7.5902099609375,-0.30902862548828125,-0.21889862418174744,0.28618672490119934
1783696056314173000,7.6001728515625,-0.35722702741622925,-0.28537192940711975,0.2635442614555359
1783696056324137000,7.610136962890625,-0.400250643491745,-0.29996463656425476,0.23243799805641174
1783696056334101000,7.62010107421875,-0.43803396821022034,-0.28563523292541504,0.17830364406108856
1783696056344064000,7.63006396484375,-0.4639934301376343,-0.2630828619003296,0.10126692056655884
1783696056354028000,7.640028076171875,-0.48937922716140747,-0.24289104342460632,0.01393680740147829
1783696056363992000,7.649991943359375,-0.5093162059783936,-0.22549095749855042,-0.07815661281347275
1783696056373955800,7.659955810546875,-0.5208790898323059,-0.1937684565782547,-0.15906795859336853
1783696056383919000,7.669919189453125,-0.525766909122467,-0.16453684866428375,-0.2237182855606079
1783696056393883000,7.6798828125,-0.5246704816818237,-0.16314613819122314,-0.27638494968414307
1783696056403847000,7.689846923828125,-0.5201101899147034,-0.17852658033370972,-0.31205105781555176
1783696056413810000,7.699809814453125,-0.5080756545066833,-0.19517746567726135,-0.3202434778213501
1783696056423774000,7.70977392578125,-0.4870685935020447,-0.1955520063638687,-0.30526089668273926
1783696056433738000,7.719738037109375,-0.46438539028167725,-0.1940888613462448,-0.27199268341064453
1783696056443701000,7.729700927734375,-0.4371996223926544,-0.19059082865715027,-0.2300850749015808
1783696056453665000,7.7396650390625,-0.40682944655418396,-0.18019624054431915,-0.1838637888431549
1783696056463629000,7.749629150390625,-0.3806181848049164,-0.17044025659561157,-0.13477768003940582
1783696056473592000,7.759592041015625,-0.362263947725296,-0.17777061462402344,-0.08708977699279785
1783696056483556000,7.76955615234375,-0.3471483290195465,-0.19313767552375793,-0.04701948165893555
1783696056493520100,7.77952001953125,-0.3378773331642151,-0.20239268243312836,-0.013151531107723713
1783696056503483100,7.789483154296875,-0.33735883235931396,-0.22388626635074615,0.017964841797947884
1783696056513447200,7.799447265625,-0.3404443562030792,-0.26448455452919006,0.04429604858160019
1783696056523411000,7.809410888671875,-0.35024842619895935,-0.3070625364780426,0.056115128099918365
1783696056533375000,7.819375,-0.36741358041763306,-0.3425094783306122,0.05291108042001724
1783696056543338000,7.829337890625,-0.38785526156425476,-0.343531996011734,0.04345107078552246
1783696056553302000,7.839302001953125,-0.412796288728714,-0.31796059012413025,0.03003193624317646
1783696056563266000,7.84926611328125,-0.43570882081985474,-0.2848650813102722,0.012036667205393314
1783696056573229000,7.85922900390625,-0.4470230042934418,-0.2514229714870453,-0.0008461079560220242
1783696056583193000,7.869193115234375,-0.4529159963130951,-0.2206925004720688,-0.00848101731389761
1783696056593157000,7.8791572265625,-0.4615260064601898,-0.17654554545879364,0.00020408362615853548
1783696056603119900,7.889119873046875,-0.46111565828323364,-0.12960609793663025,0.012342909350991249
1783696056613084000,7.899083984375,-0.45630624890327454,-0.09766334295272827,0.023105010390281677
1783696056623048200,7.909048095703125,-0.44686034321784973,-0.08090675622224808,0.029370123520493507
1783696056633011000,7.919010986328125,-0.42376354336738586,-0.08915004134178162,0.04234424605965614
1783696056642975000,7.92897509765625,-0.400202214717865,-0.0790572240948677,0.061591923236846924
1783696056652938800,7.938938720703125,-0.35577669739723206,-0.08774445205926895,0.07040592283010483
1783696056662901800,7.94890185546875,-0.3128274083137512,-0.09597431868314743,0.08643367141485214
1783696056672865800,7.95886572265625,-0.2745276987552643,-0.08422684669494629,0.08980709314346313
1783696056682829800,7.968829833984375,-0.23030486702919006,-0.07612966746091843,0.0764104425907135
1783696056692793900,7.9787939453125,-0.19295057654380798,-0.0710638016462326,0.05097752809524536
1783696056702756900,7.9887568359375,-0.15588754415512085,-0.06791695207357407,0.03425484150648117
1783696056712721000,7.998720947265625,-0.11566290259361267,-0.058889370411634445,0.03366441652178764
1783696056722685000,8.008684814453124,-0.08555393666028976,-0.0734320729970932,0.05565384775400162
1783696056732648000,8.01864794921875,-0.05743388459086418,-0.09354452788829803,0.09801168739795685
1783696056742612000,8.028612060546875,-0.035681501030921936,-0.10407323390245438,0.14865334331989288
1783696056752576000,8.038575927734374,-0.0157309640198946,-0.11187629401683807,0.19269031286239624
1783696056762539000,8.0485390625,-0.002055964432656765,-0.10633055120706558,0.21352237462997437
1783696056772502800,8.058502685546875,0.00007083590026013553,-0.082501120865345,0.22016216814517975
1783696056782466800,8.068466796875,-0.006707617547363043,-0.036009546369314194,0.2168068140745163
1783696056792429800,8.078429931640626,-0.007006956730037928,0.03999866917729378,0.21661771833896637
1783696056802393900,8.088393798828125,-0.0015450726496055722,0.13685373961925507,0.21831640601158142
1783696056812358000,8.09835791015625,0.012254362925887108,0.19731175899505615,0.20650261640548706
1783696056822321000,8.10832080078125,0.013139544986188412,0.16014371812343597,0.17305149137973785
1783696056832285000,8.118284912109376,-0.007038160692900419,0.0811501145362854,0.13543035089969635
1783696056842249000,8.1282490234375,-0.04187663644552231,-0.015053053386509418,0.1064353659749031
1783696056852212000,8.1382119140625,-0.09591697156429291,-0.16114501655101776,0.08785475790500641
1783696056862176000,8.148176025390624,-0.1771933138370514,-0.34219926595687866,0.08659487217664719
1783696056872140000,8.15814013671875,-0.2687743902206421,-0.4957195818424225,0.10882002115249634
1783696056882103800,8.168103759765625,-0.345126748085022,-0.5599572062492371,0.14735348522663116
1783696056892067000,8.178067138671874,-0.38708752393722534,-0.5542244911193848,0.20293018221855164
1783696056902030800,8.18803076171875,-0.4012514650821686,-0.5597294569015503,0.299602746963501
1783696056911995000,8.197994873046875,-0.4222177267074585,-0.5752224326133728,0.4076538383960724
1783696056921958000,8.2079580078125,-0.4263109266757965,-0.5739396214485168,0.5065505504608154
1783696056931922000,8.217921875,-0.3978244364261627,-0.48782554268836975,0.5805251598358154
1783696056941886000,8.227885986328126,-0.34992659091949463,-0.3324955999851227,0.6096937656402588
1783696056951849000,8.237848876953125,-0.30015236139297485,-0.16043676435947418,0.5793185830116272
1783696056961813000,8.24781298828125,-0.2595052719116211,0.003809022717177868,0.49132654070854187
1783696056971777000,8.257777099609376,-0.2301681637763977,0.13590474426746368,0.371766597032547
1783696056981740000,8.267739990234375,-0.22532546520233154,0.21369612216949463,0.25699883699417114
1783696056991704000,8.2777041015625,-0.2497788667678833,0.22661937773227692,0.17829470336437225
1783696057001668000,8.287668212890624,-0.2922378182411194,0.18496744334697723,0.15202860534191132
1783696057011631000,8.297631103515625,-0.34293028712272644,0.10162115842103958,0.16834020614624023
1783696057021595000,8.307594970703125,-0.3934476375579834,0.0000015516998246312141,0.21452879905700684
1783696057031559000,8.317558837890624,-0.4410599172115326,-0.08801724761724472,0.2859475612640381
1783696057041522000,8.32752197265625,-0.4779442548751831,-0.1433437168598175,0.360731840133667
1783696057051486000,8.33748583984375,-0.4881097972393036,-0.20928971469402313,0.41542571783065796
1783696057061450000,8.347449951171875,-0.4854281544685364,-0.28040578961372375,0.4304264187812805
1783696057071414000,8.3574140625,-0.4717879891395569,-0.3562275767326355,0.4081384241580963
1783696057081377000,8.367376953125,-0.4556928873062134,-0.42234575748443604,0.3555724620819092
1783696057091341000,8.377341064453125,-0.44645437598228455,-0.4670972526073456,0.29082566499710083
1783696057101305000,8.38730517578125,-0.44989293813705444,-0.5064642429351807,0.22494854032993317
1783696057111268000,8.39726806640625,-0.45872583985328674,-0.5309493541717529,0.16201351583003998
1783696057121232100,8.407232177734375,-0.4693762958049774,-0.5373955368995667,0.10133767873048782
1783696057131196000,8.41719580078125,-0.4887925982475281,-0.5504556894302368,0.03752514347434044
1783696057141159200,8.4271591796875,-0.5186157822608948,-0.5925455093383789,-0.023411840200424194
1783696057151123000,8.437123046875,-0.5565301179885864,-0.6358340978622437,-0.07162624597549438
1783696057161087000,8.4470869140625,-0.5910986065864563,-0.6507658958435059,-0.10335031896829605
1783696057171050000,8.457050048828124,-0.612123429775238,-0.6301738023757935,-0.1133693978190422
1783696057181014000,8.467013916015626,-0.6163516044616699,-0.5891828536987305,-0.10663487017154694
1783696057190978000,8.47697802734375,-0.6097022294998169,-0.5415207743644714,-0.08369439840316772
1783696057200940800,8.48694091796875,-0.5901521444320679,-0.4975145757198334,-0.038837481290102005
1783696057210905000,8.496905029296874,-0.5637322664260864,-0.4604814648628235,0.02581528015434742
1783696057220869000,8.506869140625,-0.5392149686813354,-0.41264185309410095,0.08758038282394409
1783696057230831900,8.516831787109375,-0.5130595564842224,-0.3523324429988861,0.12186724692583084
1783696057240796000,8.5267958984375,-0.4965130090713501,-0.291557252407074,0.12140049785375595
1783696057250760000,8.536760009765626,-0.4976472556591034,-0.25506874918937683,0.0903371199965477
1783696057260724200,8.54672412109375,-0.518424928188324,-0.2847272753715515,0.041967328637838364
1783696057270687200,8.556687255859375,-0.5498302578926086,-0.35966941714286804,0.001559718162752688
1783696057280651300,8.5666513671875,-0.5911067128181458,-0.4341619312763214,-0.015474315732717514
1783696057290615300,8.576615234375,-0.6404513716697693,-0.5151122212409973,-0.01809619925916195
1783696057300578300,8.586578369140625,-0.6998013257980347,-0.652640163898468,-0.016447292640805244
1783696057310542300,8.596542236328125,-0.7496290802955627,-0.7974324822425842,-0.010858649387955666
1783696057320506400,8.60650634765625,-0.7874144911766052,-0.9167001247406006,-0.0011054971255362034
1783696057330469400,8.616469482421875,-0.8226574063301086,-1.0189058780670166,0.008227018639445305
1783696057340433400,8.626433349609375,-0.8494208455085754,-1.1018134355545044,0.015460302121937275
1783696057350397400,8.6363974609375,-0.8742649555206299,-1.1496168375015259,0.020717380568385124
1783696057360360400,8.6463603515625,-0.8954924941062927,-1.1533315181732178,0.011726681143045425
1783696057370324500,8.656324462890625,-0.9203168749809265,-1.1197365522384644,-0.016673533245921135
1783696057380288300,8.666288330078125,-0.9414879083633423,-1.0654892921447754,-0.050498608499765396
1783696057390251500,8.67625146484375,-0.9573949575424194,-1.0028525590896606,-0.07348142564296722
1783696057400215300,8.68621533203125,-0.9749003648757935,-0.9455893039703369,-0.08094312250614166
1783696057410179300,8.696179443359375,-0.9807167053222656,-0.9088661670684814,-0.07432090491056442
1783696057420142000,8.70614208984375,-0.9833188652992249,-0.9039674997329712,-0.04295393079519272
1783696057430106400,8.7161064453125,-0.9806186556816101,-0.9173882007598877,0.011164164170622826
1783696057440070400,8.7260703125,-0.9842115640640259,-0.9366898536682129,0.07366746664047241
1783696057450034400,8.736034423828125,-0.9832488298416138,-0.9467688798904419,0.12680870294570923
1783696057459997200,8.7459970703125,-0.9863946437835693,-0.951149582862854,0.1546461284160614
1783696057469961500,8.75596142578125,-0.9880335927009583,-0.948387622833252,0.14894430339336395
1783696057479925500,8.765925537109375,-0.9894117712974548,-0.937785804271698,0.11943314969539642
1783696057489888300,8.77588818359375,-0.9895627498626709,-0.9055972695350647,0.08254197984933853
1783696057499852300,8.785852294921876,-0.9863197207450867,-0.8691843748092651,0.05507927015423775
1783696057509816300,8.79581640625,-0.9807936549186707,-0.8366080522537231,0.04206094145774841
1783696057519779300,8.805779296875,-0.98357093334198,-0.7913994789123535,0.04985182732343674
1783696057529743000,8.8157431640625,-0.9852665662765503,-0.7380638122558594,0.07061276584863663
1783696057539707100,8.82570703125,-0.9925900101661682,-0.7159371376037598,0.08410223573446274
1783696057549670100,8.835670166015625,-1.0174527168273926,-0.7463352680206299,0.06975258886814117
1783696057559634200,8.84563427734375,-1.0588067770004272,-0.7716500759124756,0.045342911034822464
1783696057569598200,8.85559814453125,-1.0971258878707886,-0.7716601490974426,0.02096114121377468
1783696057579561200,8.865561279296875,-1.1250637769699097,-0.7581475377082825,0.005066087935119867
1783696057589525200,8.875525146484375,-1.156353235244751,-0.7401099801063538,-0.003325000172480941
1783696057599489300,8.8854892578125,-1.1834821701049805,-0.7200831770896912,-0.01810317486524582
1783696057609452300,8.895452392578125,-1.2081602811813354,-0.6678836345672607,-0.031011249870061874
1783696057619416300,8.905416259765625,-1.2204540967941284,-0.5893226861953735,-0.045018378645181656
1783696057629380400,8.91538037109375,-1.2212125062942505,-0.521596372127533,-0.05792991444468498
1783696057639344000,8.92534423828125,-1.2155840396881104,-0.4741387367248535,-0.07093605399131775
1783696057649307100,8.93530712890625,-1.2124942541122437,-0.4470035433769226,-0.07874257862567902
1783696057659271200,8.945271240234375,-1.2136129140853882,-0.4518662393093109,-0.0756809189915657
1783696057669235200,8.955235107421874,-1.212187647819519,-0.49545979499816895,-0.06197603419423103
1783696057679198200,8.9651982421875,-1.2136807441711426,-0.5595051646232605,-0.03999754786491394
1783696057689162200,8.975162353515625,-1.2094939947128296,-0.625224232673645,-0.007843072526156902
1783696057699126300,8.985126220703124,-1.1893513202667236,-0.68723464012146,0.03099953383207321
1783696057709089300,8.99508935546875,-1.1558921337127686,-0.7357787489891052,0.06692904233932495
1783696057719053300,9.00505322265625,-1.1086723804473877,-0.7482861280441284,0.09589237719774246
1783696057729017300,9.015017333984375,-1.0487711429595947,-0.7282056212425232,0.1141696497797966
1783696057738980400,9.02498046875,-0.9877514243125916,-0.6913371682167053,0.11566112190485
1783696057748944400,9.0349443359375,-0.9331845641136169,-0.6553248167037964,0.08990009874105453
1783696057758908200,9.044908203125,-0.8911986351013184,-0.6451128721237183,0.035746797919273376
1783696057768871400,9.054871337890624,-0.869107186794281,-0.6680512428283691,-0.040993787348270416
1783696057778835200,9.064835205078126,-0.8680706024169922,-0.7144879698753357,-0.11268839985132217
1783696057788799200,9.07479931640625,-0.8747255802154541,-0.746522843837738,-0.1580769270658493
1783696057798762200,9.08476220703125,-0.8901349306106567,-0.7424613833427429,-0.17379555106163025
1783696057808726300,9.094726318359376,-0.9059882164001465,-0.7498705983161926,-0.17003943026065826
1783696057818690300,9.104690185546875,-0.9278826117515564,-0.7837512493133545,-0.14397771656513214
1783696057828653300,9.1146533203125,-0.9471319317817688,-0.8131424188613892,-0.1014249324798584
1783696057838617300,9.124617431640624,-0.9550327658653259,-0.83253413438797,-0.05243725702166557
1783696057848581400,9.134581298828126,-0.9508593082427979,-0.8265286684036255,0.004895538557320833
1783696057858544400,9.14454443359375,-0.9441960453987122,-0.8108723163604736,0.057752735912799835
1783696057868508400,9.15450830078125,-0.9386537671089172,-0.8196995854377747,0.10324085503816605
1783696057878472400,9.164472412109374,-0.9281069040298462,-0.8233022689819336,0.1490919142961502
1783696057888436200,9.174436279296875,-0.9252868890762329,-0.8294312953948975,0.19111739099025726
1783696057898399200,9.184399169921875,-0.9296970963478088,-0.8439651131629944,0.22377899289131165
1783696057908363300,9.19436328125,-0.9468334913253784,-0.863646388053894,0.23252135515213013
1783696057918327300,9.204327392578126,-0.9758765697479248,-0.8842406868934631,0.21901552379131317
1783696057928290300,9.214290283203125,-1.0120283365249634,-0.8981645107269287,0.181013286113739
1783696057938254300,9.22425439453125,-1.0559616088867188,-0.9163441061973572,0.131820410490036
1783696057948218400,9.23421826171875,-1.0897496938705444,-0.9307219982147217,0.08571789413690567
1783696057958181400,9.244181396484375,-1.1163091659545898,-0.9263213276863098,0.04865660145878792
1783696057968145400,9.2541455078125,-1.1349835395812988,-0.9048280119895935,0.016197994351387024
1783696057978109400,9.264109375,-1.1456822156906128,-0.8631208539009094,-0.028954729437828064
1783696057988072400,9.274072509765626,-1.1515600681304932,-0.8007472157478333,-0.0887988954782486
1783696057998036500,9.284036376953125,-1.1511586904525757,-0.7083590030670166,-0.14289282262325287
1783696058008000300,9.294000244140625,-1.1467270851135254,-0.6067639589309692,-0.18762780725955963
1783696058017963500,9.303963623046876,-1.1361912488937378,-0.5229461789131165,-0.21626579761505127
1783696058027927300,9.31392724609375,-1.1209625005722046,-0.46390867233276367,-0.23096084594726562
1783696058037891300,9.323891357421875,-1.1075323820114136,-0.4339849352836609,-0.23784968256950378
1783696058047854000,9.33385400390625,-1.0984470844268799,-0.4404987692832947,-0.23510316014289856
1783696058057818000,9.343818115234376,-1.09060537815094,-0.4356611669063568,-0.21744336187839508
1783696058067782400,9.353782470703125,-1.0999431610107422,-0.502785325050354,-0.19408024847507477
1783696058077745200,9.3637451171875,-1.1127554178237915,-0.6016231179237366,-0.15850521624088287
1783696058087709200,9.373709228515626,-1.117142677307129,-0.691475510597229,-0.11987420171499252
1783696058097673200,9.383673095703125,-1.124081015586853,-0.7398654222488403,-0.09724153578281403
1783696058107636200,9.39363623046875,-1.1260744333267212,-0.767449140548706,-0.09655870497226715
1783696058117600300,9.403600341796874,-1.1312988996505737,-0.7856905460357666,-0.11749604344367981
1783696058127564300,9.413564208984376,-1.137463092803955,-0.7935343980789185,-0.15630309283733368
1783696058137528000,9.423528076171875,-1.1381598711013794,-0.7762370705604553,-0.18878330290317535
1783696058147491300,9.4334912109375,-1.1359704732894897,-0.7259318232536316,-0.20395374298095703
1783696058157455000,9.443455078125,-1.1206538677215576,-0.6409362554550171,-0.2158018797636032
1783696058167419100,9.453419189453125,-1.0987344980239868,-0.5540167689323425,-0.2246054857969284
1783696058177382100,9.463382080078125,-1.0777127742767334,-0.48343583941459656,-0.23249593377113342
1783696058187346200,9.47334619140625,-1.0548545122146606,-0.43842947483062744,-0.23918364942073822
1783696058197310200,9.483310302734376,-1.032227635383606,-0.4035933315753937,-0.22629928588867188
1783696058207273200,9.493273193359375,-1.0079903602600098,-0.3904644846916199,-0.1977667212486267
1783696058217237200,9.5032373046875,-0.9827431440353394,-0.4009362459182739,-0.15268097817897797
1783696058227201300,9.513201171875,-0.9549226760864258,-0.42224153876304626,-0.09230045974254608
1783696058237164300,9.523164306640625,-0.9197825193405151,-0.43935707211494446,-0.016478246077895164
1783696058247128300,9.53312841796875,-0.8802430629730225,-0.4409504234790802,0.0640951618552208
1783696058257092400,9.54309228515625,-0.828718364238739,-0.43033263087272644,0.14552554488182068
1783696058267055400,9.553055419921876,-0.7728540301322937,-0.41824454069137573,0.21005819737911224
1783696058277019100,9.56301904296875,-0.7130110859870911,-0.3970489501953125,0.2620345652103424
1783696058286983200,9.572983154296875,-0.6561057567596436,-0.35376858711242676,0.3064552843570709
1783696058296946200,9.5829462890625,-0.6059000492095947,-0.28325575590133667,0.34442028403282166
1783696058306910200,9.59291015625,-0.5671454668045044,-0.19360388815402985,0.37969839572906494
1783696058316874200,9.602874267578125,-0.5385950207710266,-0.1377837210893631,0.39303234219551086
1783696058326837000,9.6128369140625,-0.532949686050415,-0.18089629709720612,0.3779447376728058
1783696058336801000,9.622801025390626,-0.5579967498779297,-0.3124161958694458,0.34771496057510376
1783696058346765300,9.632765380859375,-0.6196752786636353,-0.4523991346359253,0.3316105604171753
1783696058356728000,9.64272802734375,-0.6939294934272766,-0.5410686135292053,0.3426915109157562
1783696058366692000,9.652692138671876,-0.757568895816803,-0.5488943457603455,0.3819129467010498
1783696058376656100,9.66265625,-0.7990152835845947,-0.478889137506485,0.4391005337238312
1783696058386620200,9.6726201171875,-0.80661541223526,-0.35896381735801697,0.48988914489746094
1783696058396583200,9.682583251953124,-0.7817906737327576,-0.2364220768213272,0.5029420256614685
1783696058406547000,9.692546875,-0.737533450126648,-0.13800868391990662,0.4631669521331787
1783696058416511000,9.702510986328125,-0.6935105919837952,-0.07927145063877106,0.38316741585731506
1783696058426474000,9.712473876953124,-0.6673034429550171,-0.05758586898446083,0.28518760204315186
1783696058436438000,9.72243798828125,-0.6608370542526245,-0.0724453404545784,0.18831847608089447
1783696058446402000,9.732402099609375,-0.6704334616661072,-0.13823500275611877,0.11158480495214462
1783696058456365000,9.742364990234375,-0.6919861435890198,-0.22590875625610352,0.056533120572566986
1783696058466329000,9.7523291015625,-0.7178172469139099,-0.31181567907333374,0.033234186470508575
1783696058476293000,9.762293212890626,-0.7366065382957458,-0.37912654876708984,0.04007992148399353
1783696058486256000,9.772256103515625,-0.7468873858451843,-0.42042043805122375,0.06465477496385574
1783696058496220200,9.78222021484375,-0.7438184022903442,-0.4313909113407135,0.08707047253847122
1783696058506184200,9.79218408203125,-0.7202180027961731,-0.4073662757873535,0.10345477610826492
1783696058516147200,9.802147216796875,-0.6895657181739807,-0.35394564270973206,0.1184171810746193
1783696058526111200,9.812111328125,-0.6472460031509399,-0.29613587260246277,0.14347407221794128
1783696058536075000,9.822074951171874,-0.6063233613967896,-0.24447999894618988,0.1734708696603775
1783696058546038300,9.832038330078126,-0.5712593793869019,-0.2003042846918106,0.21887724101543427
1783696058556002000,9.842001953125,-0.5427000522613525,-0.15501777827739716,0.25926658511161804
1783696058565966000,9.851966064453125,-0.5280625224113464,-0.11506956070661545,0.2899235785007477
1783696058575929000,9.86192919921875,-0.521582841873169,-0.11480395495891571,0.3003867566585541
1783696058585893000,9.87189306640625,-0.5284234285354614,-0.17095057666301727,0.29813531041145325
1783696058595857200,9.881857177734375,-0.5430946946144104,-0.25328680872917175,0.28961071372032166
1783696058605820200,9.891820068359374,-0.5672085285186768,-0.3466692268848419,0.27583152055740356
1783696058615784200,9.9017841796875,-0.5833657383918762,-0.44564536213874817,0.2729527950286865
1783696058625748200,9.911748291015625,-0.5932791233062744,-0.5278217196464539,0.2838882505893707
1783696058635711200,9.921711181640624,-0.598360538482666,-0.5750676393508911,0.31396904587745667
1783696058645675300,9.93167529296875,-0.5813754200935364,-0.6564631462097168,0.323918879032135
1783696058655639300,9.941639404296875,-0.5498616099357605,-0.7446334362030029,0.31629857420921326
1783696058665602300,9.951602294921875,-0.5395820736885071,-0.8080858588218689,0.28610658645629883
1783696058675566000,9.961566162109374,-0.5539719462394714,-0.8288173079490662,0.2258167415857315
1783696058685530000,9.971530029296876,-0.5905336737632751,-0.8094516396522522,0.13705332577228546
1783696058695493000,9.9814931640625,-0.6470288038253784,-0.7384780645370483,0.050112076103687286
1783696058705457200,9.99145703125,-0.7218753099441528,-0.6529005765914917,-0.009950993582606316
1783696058715421200,10.001421142578126,-0.7902552485466003,-0.580402672290802,-0.03965437039732933
1783696058725385200,10.01138525390625,-0.839359700679779,-0.5032061338424683,-0.031565286219120026
1783696058735348200,10.02134814453125,-0.8152791857719421,-0.3532254993915558,-0.008231600746512413
1783696058745312300,10.031312255859374,-0.8038752675056458,-0.1916043758392334,0.0253098476678133
1783696058755276300,10.0412763671875,-0.7878850698471069,-0.1186879575252533,0.03882727399468422
1783696058765239300,10.0512392578125,-0.7579308748245239,-0.11895054578781128,0.06924749165773392
1783696058775203300,10.061203369140625,-0.780251145362854,-0.16819071769714355,0.11023350059986115
1783696058785167000,10.0711669921875,-0.819706380367279,-0.23616629838943481,0.15375302731990814
1783696058795130400,10.08113037109375,-0.8614060282707214,-0.3238080143928528,0.18161405622959137
1783696058805094100,10.09109423828125,-0.9130505919456482,-0.39811766147613525,0.18789245188236237
1783696058815058200,10.10105810546875,-0.9599087238311768,-0.45339468121528625,0.18671485781669617
1783696058825021200,10.111021240234376,-1.0041509866714478,-0.5191819071769714,0.17554982006549835
1783696058834985200,10.120985107421875,-1.0430877208709717,-0.6035112738609314,0.173283189535141
1783696058844949200,10.13094921875,-1.078602910041809,-0.6843100190162659,0.18679261207580566
1783696058854912300,10.140912353515626,-1.100354790687561,-0.7438364624977112,0.2062673568725586
1783696058864876300,10.150876220703125,-1.115009069442749,-0.7923781275749207,0.22490470111370087
1783696058874840300,10.16084033203125,-1.1296825408935547,-0.8395176529884338,0.23105046153068542
1783696058884803000,10.170802978515624,-1.137738823890686,-0.8735008835792542,0.22253181040287018
1783696058894767400,10.180767333984376,-1.150168538093567,-0.87767493724823,0.21017126739025116
1783696058904731400,10.1907314453125,-1.1660170555114746,-0.8664765954017639,0.19565171003341675
1783696058914694100,10.200694091796874,-1.1823371648788452,-0.8432135581970215,0.18360155820846558
1783696058924658200,10.210658203125,-1.1990219354629517,-0.8141731023788452,0.17537932097911835
1783696058934622000,10.2206220703125,-1.2159364223480225,-0.7774565815925598,0.1611134260892868
1783696058944585000,10.2305849609375,-1.235866665840149,-0.7413622736930847,0.14086009562015533
1783696058954549000,10.240549072265624,-1.2552863359451294,-0.7027101516723633,0.11476662009954453
1783696058964513000,10.250512939453126,-1.2707041501998901,-0.6716020107269287,0.08637279272079468
1783696058974476000,10.26047607421875,-1.287968635559082,-0.6670918464660645,0.08068256080150604
1783696058984440000,10.270440185546875,-1.3060760498046875,-0.7103586196899414,0.09616698324680328
1783696058994404000,10.280404052734376,-1.313246488571167,-0.7955557703971863,0.10640180110931396
1783696059004367000,10.2903671875,-1.3092894554138184,-0.8819146156311035,0.10834670811891556
1783696059014331100,10.3003310546875,-1.3062348365783691,-0.9294549822807312,0.12000828236341476
1783696059024295200,10.310295166015624,-1.3149257898330688,-0.9480153322219849,0.15421420335769653
1783696059034258200,10.320258056640625,-1.3281614780426025,-0.9474651217460632,0.2154213935136795
1783696059044222200,10.33022216796875,-1.343724250793457,-0.955623984336853,0.29056328535079956
1783696059054186000,10.34018603515625,-1.3646132946014404,-0.9832708835601807,0.35162726044654846
1783696059064149200,10.350149169921876,-1.37576425075531,-0.9916270971298218,0.40059560537338257
1783696059074113000,10.360113037109375,-1.3889657258987427,-0.9856750965118408,0.43590593338012695
1783696059084077000,10.3700771484375,-1.4090619087219238,-1.0002306699752808,0.4469900131225586
1783696059094040000,10.3800400390625,-1.4674545526504517,-0.9300253391265869,0.6173781752586365
1783696059104004000,10.390004150390626,-1.4854137897491455,-1.2081530094146729,0.667036235332489
1783696059113968000,10.399968017578125,-1.4573578834533691,-1.5013858079910278,0.6777769327163696
1783696059123932200,10.40993212890625,-1.4234925508499146,-1.7008014917373657,0.6603332757949829
1783696059133895200,10.419895263671876,-1.4275028705596924,-1.7430702447891235,0.6430788040161133
1783696059143859200,10.429859130859375,-1.4521552324295044,-1.7267924547195435,0.5742363333702087
1783696059153823200,10.4398232421875,-1.4683618545532227,-1.6281909942626953,0.4601326882839203
1783696059163786200,10.4497861328125,-1.5079747438430786,-1.4420422315597534,0.3355012834072113
1783696059173750300,10.459750244140626,-1.5465773344039917,-1.2437593936920166,0.20316575467586517
1783696059183714000,10.469714111328125,-1.5975571870803833,-1.0784043073654175,0.09930700808763504
1783696059193677300,10.47967724609375,-1.636766791343689,-0.9746978282928467,0.051463767886161804
