time,seconds_elapsed,z,y,x
1783696016591323000,0.060322998046875,-0.07999524474143982,0.03157835081219673,0.37979841232299805
1783696016601287000,0.070286865234375,-0.07269316911697388,0.08252570033073425,0.3766307234764099
1783696016611251000,0.0802509765625,-0.060582976788282394,0.13272760808467865,0.35598137974739075
1783696016621215000,0.090215087890625,-0.048163626343011856,0.18519291281700134,0.3219926357269287
1783696016631178000,0.100177978515625,-0.02911563217639923,0.23001603782176971,0.2723763585090637
1783696016641142000,0.11014208984375,-0.010283964686095715,0.22366072237491608,0.19367364048957825
1783696016651105800,0.120105712890625,0.003759149694815278,0.1596124917268753,0.08582839369773865
1783696016661069800,0.13006982421875,0.013538124971091747,0.06417649239301682,-0.0359688363969326
1783696016671033900,0.140033935546875,0.018900400027632713,-0.04081331193447113,-0.15241368114948273
1783696016680996900,0.149996826171875,0.021361693739891052,-0.13859523832798004,-0.2418535202741623
1783696016690961000,0.1599609375,0.030271032825112343,-0.20996582508087158,-0.28545454144477844
1783696016700925000,0.169925048828125,0.042219799011945724,-0.23599229753017426,-0.2881595492362976
1783696016710889000,0.179888916015625,0.061912812292575836,-0.22737644612789154,-0.263624906539917
1783696016720852700,0.189852783203125,0.08642161637544632,-0.1913348138332367,-0.2252357006072998
1783696016730816000,0.19981591796875,0.11752334982156754,-0.13388830423355103,-0.18636447191238403
1783696016740779800,0.20977978515625,0.16304384171962738,-0.08547664433717728,-0.15039706230163574
1783696016750743800,0.219743896484375,0.212105393409729,-0.026920925825834274,-0.1272113174200058
1783696016760707800,0.229707763671875,0.2562861740589142,0.004820994101464748,-0.11129444092512131
1783696016770671900,0.239671875,0.29024839401245117,0.013681863434612751,-0.10560353100299835
1783696016780635000,0.249634765625,0.3130759596824646,-0.0051107024773955345,-0.1021198108792305
1783696016790599000,0.259598876953125,0.33128878474235535,-0.02647644467651844,-0.09441288560628891
1783696016800563000,0.26956298828125,0.3366250991821289,-0.052394334226846695,-0.08385913074016571
1783696016810526700,0.279526611328125,0.32918158173561096,-0.09267996996641159,-0.06474535167217255
1783696016820490000,0.289489990234375,0.32231011986732483,-0.14723828434944153,-0.04129664972424507
1783696016830453800,0.299453857421875,0.3201201856136322,-0.23687496781349182,-0.01340403500944376
1783696016840417800,0.309417724609375,0.3381426930427551,-0.341663658618927,0.015118698589503765
1783696016850381800,0.3193818359375,0.33827903866767883,-0.39221739768981934,0.060934390872716904
1783696016860345900,0.329345947265625,0.33421850204467773,-0.39137953519821167,0.124879851937294
1783696016870308900,0.339308837890625,0.2991284430027008,-0.30159690976142883,0.15095727145671844
1783696016880273000,0.34927294921875,0.243313267827034,-0.19760611653327942,0.10523542761802673
1783696016890237000,0.35923681640625,0.20803304016590118,-0.08563750982284546,0.010184278711676598
1783696016900201000,0.369200927734375,0.18605725467205048,0.04197322204709053,-0.10648133605718613
1783696016910164700,0.379164794921875,0.17859959602355957,0.15662071108818054,-0.22289156913757324
1783696016920127700,0.389127685546875,0.17699487507343292,0.24357904493808746,-0.3077118396759033
1783696016930091800,0.399091796875,0.18701821565628052,0.31275519728660583,-0.3439081907272339
1783696016940055800,0.409055908203125,0.19232255220413208,0.35559985041618347,-0.3469521403312683
1783696016950019800,0.419019775390625,0.2022755891084671,0.3778204619884491,-0.3295923173427582
1783696016959983900,0.42898388671875,0.21721383929252625,0.36985281109809875,-0.3044434189796448
1783696016969947000,0.43894677734375,0.23887225985527039,0.3332090377807617,-0.2730655074119568
1783696016979911000,0.448910888671875,0.2664557099342346,0.27508339285850525,-0.23085595667362213
1783696016989875000,0.458875,0.29331690073013306,0.21910294890403748,-0.1736251562833786
1783696016999838700,0.468838623046875,0.31799229979515076,0.17591160535812378,-0.10457206517457962
1783696017009802000,0.478802001953125,0.33692657947540283,0.13547922670841217,-0.028628027066588402
1783696017019765800,0.488765869140625,0.35352393984794617,0.0932275801897049,0.04345381632447243
1783696017029729800,0.498729736328125,0.35589998960494995,0.049662258476018906,0.09397025406360626
1783696017039693800,0.50869384765625,0.35072898864746094,0.005309758707880974,0.1220444068312645
1783696017049657900,0.518657958984375,0.33678358793258667,0.008013932034373283,0.12627696990966797
1783696017059620900,0.528620849609375,0.31716760993003845,0.09146702289581299,0.12541541457176208
1783696017069585000,0.5385849609375,0.2815142869949341,0.2449766844511032,0.15163610875606537
1783696017079549000,0.548548828125,0.2614688575267792,0.44372305274009705,0.19078321754932404
1783696017089512700,0.5585126953125,0.2749474048614502,0.6160444617271423,0.23049227893352509
1783696017099476700,0.568476806640625,0.314578652381897,0.6592113971710205,0.252069890499115
1783696017109439700,0.578439697265625,0.345583975315094,0.5179141759872437,0.22995156049728394
1783696017119403800,0.58840380859375,0.3716873824596405,0.29013726115226746,0.18093368411064148
1783696017129367800,0.598367919921875,0.40121543407440186,0.11181093007326126,0.14351865649223328
1783696017139331800,0.608331787109375,0.4156133830547333,0.03077695704996586,0.12569431960582733
1783696017149295900,0.6182958984375,0.4046052098274231,0.018414031714200974,0.12431694567203522
1783696017159259000,0.6282587890625,0.387559175491333,0.03947438672184944,0.13045573234558105
1783696017169223000,0.638222900390625,0.3812914192676544,0.11439630389213562,0.14546583592891693
1783696017179187000,0.64818701171875,0.38533222675323486,0.23401480913162231,0.15660980343818665
1783696017189150700,0.658150634765625,0.39456379413604736,0.33740565180778503,0.14848050475120544
1783696017199113700,0.66811376953125,0.40630966424942017,0.38434547185897827,0.1134844422340393
1783696017209078000,0.678078125,0.43111515045166016,0.3602891266345978,0.04567503184080124
1783696017219042000,0.6880419921875,0.4646161198616028,0.3323512673377991,-0.03371083363890648
1783696017229006000,0.698006103515625,0.5115521550178528,0.31903865933418274,-0.10862768441438675
1783696017238970000,0.70797021484375,0.556156575679779,0.34727373719215393,-0.1497129201889038
1783696017248933000,0.71793310546875,0.5953335165977478,0.4222981631755829,-0.14347206056118011
1783696017258897200,0.727897216796875,0.6326521039009094,0.5099174976348877,-0.10344376415014267
1783696017268861000,0.73786083984375,0.6605660319328308,0.5814143419265747,-0.040758006274700165
1783696017278825000,0.747824951171875,0.6758816242218018,0.6504128575325012,0.03961562365293503
1783696017288789000,0.7577890625,0.6872032284736633,0.6855961084365845,0.12468977272510529
1783696017298752000,0.767751953125,0.7007178664207458,0.6753005981445312,0.19908232986927032
1783696017308716000,0.777716064453125,0.7109390497207642,0.6173281073570251,0.2538835108280182
1783696017318680000,0.78768017578125,0.712897002696991,0.5074479579925537,0.2704557180404663
1783696017328644000,0.79764404296875,0.7057677507400513,0.3712659180164337,0.2486279159784317
1783696017338608000,0.807608154296875,0.69460529088974,0.23151303827762604,0.1947774589061737
1783696017348571100,0.817571044921875,0.6794663071632385,0.09716693311929703,0.11899853497743607
1783696017358535200,0.82753515625,0.6612895727157593,-0.007355452515184879,0.03590547293424606
1783696017368499000,0.8374990234375,0.6399089694023132,-0.05402548611164093,-0.03709204122424126
1783696017378463000,0.847462890625,0.6234523057937622,-0.03709730878472328,-0.09507104009389877
1783696017388426000,0.857426025390625,0.606279194355011,0.026741856709122658,-0.13245196640491486
1783696017398390000,0.86739013671875,0.5905219316482544,0.10638150572776794,-0.16502098739147186
1783696017408354000,0.87735400390625,0.5804032683372498,0.1550491601228714,-0.19558341801166534
1783696017418318000,0.887318115234375,0.5771980881690979,0.17213252186775208,-0.22462449967861176
1783696017428282400,0.897282470703125,0.5901141166687012,0.18292418122291565,-0.2295023500919342
1783696017438245000,0.9072451171875,0.613800585269928,0.22333760559558868,-0.21251040697097778
1783696017448209200,0.917209228515625,0.6430711150169373,0.28815892338752747,-0.17502641677856445
1783696017458173000,0.9271728515625,0.6790143847465515,0.37987658381462097,-0.12691834568977356
1783696017468137000,0.937136962890625,0.7128141522407532,0.4755208194255829,-0.07771778851747513
1783696017478101200,0.947101318359375,0.7309891581535339,0.5561105608940125,-0.03501686081290245
1783696017488064000,0.95706396484375,0.7427811026573181,0.6041497588157654,-0.008190039545297623
1783696017498028000,0.967028076171875,0.7509547472000122,0.59417325258255,0.005197787191718817
1783696017507992000,0.976991943359375,0.7565287351608276,0.5157737731933594,0.007048684172332287
1783696017517956400,0.986956298828125,0.7565402984619141,0.41383618116378784,0.015611660666763783
1783696017527919000,0.996919189453125,0.7402122020721436,0.33390647172927856,0.035690031945705414
1783696017537883100,1.006883056640625,0.7168097496032715,0.2637927532196045,0.04940592497587204
1783696017547847000,1.016846923828125,0.6926975250244141,0.20413047075271606,0.054379645735025406
1783696017557811200,1.026811279296875,0.6708698272705078,0.1618884801864624,0.052403662353754044
1783696017567775200,1.036775146484375,0.6490084528923035,0.13828833401203156,0.05237969383597374
1783696017577738000,1.046738037109375,0.6333272457122803,0.1200365275144577,0.05900442972779274
1783696017587702000,1.056701904296875,0.6180002093315125,0.11026565730571747,0.06647726148366928
1783696017597666000,1.066666015625,0.6049126982688904,0.10574793815612793,0.07647748291492462
1783696017607630300,1.07663037109375,0.5868125557899475,0.11249318718910217,0.08563396334648132
1783696017617594400,1.086594482421875,0.5519619584083557,0.13185568153858185,0.0904635414481163
1783696017627557000,1.09655712890625,0.5129961967468262,0.15531493723392487,0.08420298248529434
1783696017637521200,1.106521240234375,0.46629098057746887,0.17193783819675446,0.07485898584127426
1783696017647485200,1.116485107421875,0.42043399810791016,0.18991418182849884,0.06900588423013687
1783696017657449200,1.12644921875,0.38134658336639404,0.20372717082500458,0.07741651684045792
1783696017667412000,1.136411865234375,0.34713321924209595,0.21106098592281342,0.1009916216135025
1783696017677376000,1.1463759765625,0.3209373652935028,0.19893936812877655,0.13852138817310333
1783696017687340300,1.15634033203125,0.29649460315704346,0.17111359536647797,0.17923739552497864
1783696017697304300,1.16630419921875,0.2685340642929077,0.14436936378479004,0.2201155126094818
1783696017707268400,1.176268310546875,0.2410142719745636,0.12520365417003632,0.2499711513519287
1783696017717231000,1.186231201171875,0.20594070851802826,0.1273306906223297,0.27001139521598816
1783696017727195100,1.196195068359375,0.17463286221027374,0.12544997036457062,0.270394891500473
1783696017737159200,1.2061591796875,0.14857792854309082,0.10576755553483963,0.2647112011909485
1783696017747123200,1.216123291015625,0.12703002989292145,0.10223513841629028,0.26696690917015076
1783696017757087200,1.226087158203125,0.11489134281873703,0.13057467341423035,0.2816918194293976
1783696017767050000,1.236050048828125,0.11315762251615524,0.17992304265499115,0.30690982937812805
1783696017777014300,1.24601416015625,0.11659012734889984,0.22581332921981812,0.3301974833011627
1783696017786978300,1.255978271484375,0.11471899598836899,0.1895703822374344,0.3230184018611908
1783696017796942300,1.2659423828125,0.10698152333498001,0.11051951348781586,0.29308417439460754
1783696017806906000,1.275906005859375,0.09894569963216782,0.06822744756937027,0.2574494779109955
1783696017816869400,1.285869384765625,0.08766310662031174,0.049959998577833176,0.2104800045490265
1783696017826833200,1.295833251953125,0.07227855920791626,0.004169340245425701,0.145399272441864
1783696017836797200,1.305797119140625,0.035918302834033966,-0.02211899310350418,0.07070551812648773
1783696017846761200,1.31576123046875,-0.017527343705296516,-0.012724959291517735,-0.021113619208335876
1783696017856724200,1.32572412109375,-0.06455979496240616,-0.0022352789528667927,-0.12671101093292236
1783696017866688300,1.335688232421875,-0.09922110289335251,0.04767928272485733,-0.22365620732307434
1783696017876652300,1.34565234375,-0.12905938923358917,0.11250463873147964,-0.2934926748275757
1783696017886616300,1.3556162109375,-0.15403930842876434,0.16813912987709045,-0.33264514803886414
1783696017896580000,1.365580078125,-0.15639472007751465,0.22075441479682922,-0.33380717039108276
1783696017906543400,1.37554345703125,-0.14182642102241516,0.265863299369812,-0.2993890047073364
1783696017916507100,1.385507080078125,-0.1309380829334259,0.298662394285202,-0.24407553672790527
1783696017926471200,1.39547119140625,-0.12889836728572845,0.28692078590393066,-0.17639794945716858
1783696017936435200,1.405435302734375,-0.13863593339920044,0.241262286901474,-0.09853600710630417
1783696017946398200,1.415398193359375,-0.1509716957807541,0.16929861903190613,-0.011429335922002792
1783696017956362200,1.4253623046875,-0.16683118045330048,0.10514124482870102,0.08863333612680435
1783696017966326300,1.435326171875,-0.1854322999715805,0.05190359428524971,0.18136142194271088
1783696017976290300,1.445290283203125,-0.20056937634944916,0.011391540989279747,0.2536464333534241
1783696017986254300,1.45525439453125,-0.21079298853874207,-0.0033501205034554005,0.2962748408317566
1783696017996217300,1.46521728515625,-0.21586006879806519,0.01235454436391592,0.3072439730167389
1783696018006181000,1.47518115234375,-0.22426073253154755,0.05443834513425827,0.29790106415748596
1783696018016145200,1.485145263671875,-0.23153920471668243,0.0890687108039856,0.2744874656200409
1783696018026109200,1.495109130859375,-0.242312490940094,0.11281824856996536,0.24354895949363708
1783696018036073200,1.5050732421875,-0.2533695101737976,0.13893939554691315,0.20990337431430817
1783696018046036200,1.5150361328125,-0.2671891748905182,0.15819218754768372,0.17098528146743774
1783696018056000300,1.525000244140625,-0.2852696478366852,0.15328185260295868,0.12026669830083847
1783696018065964300,1.53496435546875,-0.30926817655563354,0.1320071816444397,0.05268393084406853
1783696018075928300,1.54492822265625,-0.33441171050071716,0.08250302821397781,-0.024888835847377777
1783696018085891300,1.554891357421875,-0.3520522117614746,0.03753049299120903,-0.09566953033208847
1783696018095855400,1.56485546875,-0.3643066883087158,0.020631395280361176,-0.15164560079574585
1783696018105819100,1.574819091796875,-0.3646039068698883,0.014658723957836628,-0.19422315061092377
1783696018115783200,1.584783203125,-0.3621389865875244,-0.00017997424583882093,-0.2351851612329483
1783696018125747200,1.594747314453125,-0.3463975787162781,-0.019763527438044548,-0.2552874982357025
1783696018135710200,1.604710205078125,-0.3254415988922119,-0.029283642768859863,-0.24859179556369781
1783696018145674200,1.61467431640625,-0.30395016074180603,-0.0175247211009264,-0.2228643298149109
1783696018155638300,1.62463818359375,-0.2744521498680115,-0.00874357670545578,-0.19336502254009247
1783696018165602300,1.634602294921875,-0.2342970222234726,0.00022142287343740463,-0.17603982985019684
1783696018175565300,1.6445654296875,-0.1995552033185959,-0.016091225668787956,-0.17019394040107727
1783696018185529300,1.654529296875,-0.17494653165340424,-0.06263422220945358,-0.1657792180776596
1783696018195493000,1.6644931640625,-0.15738993883132935,-0.12214385718107224,-0.15288400650024414
1783696018205457200,1.67445703125,-0.14021281898021698,-0.1627165824174881,-0.11530040949583054
1783696018215421400,1.68442138671875,-0.1268303245306015,-0.1795952469110489,-0.05816710367798805
1783696018225384200,1.69438427734375,-0.11975909024477005,-0.18812136352062225,-0.00008489307947456837
1783696018235348500,1.704348388671875,-0.11762107163667679,-0.18308790028095245,0.044397562742233276
1783696018245312500,1.7143125,-0.1170428991317749,-0.16699308156967163,0.07737122476100922
1783696018255276500,1.724276611328125,-0.12439374625682831,-0.14723388850688934,0.0957370474934578
1783696018265239300,1.7342392578125,-0.13727092742919922,-0.14881235361099243,0.09910860657691956
1783696018275203600,1.74420361328125,-0.15134228765964508,-0.14190347492694855,0.10571521520614624
1783696018285167400,1.75416748046875,-0.16436034440994263,-0.1344711184501648,0.10222221165895462
1783696018295131400,1.76413134765625,-0.16991113126277924,-0.11412958800792694,0.0868450254201889
1783696018305095400,1.774095458984375,-0.17610883712768555,-0.08288484811782837,0.05163190886378288
1783696018315058400,1.784058349609375,-0.18674805760383606,-0.044995639473199844,-0.001990094780921936
1783696018325022500,1.7940224609375,-0.21141478419303894,0.007844937965273857,-0.07200406491756439
1783696018334986500,1.803986572265625,-0.23362404108047485,0.05554945394396782,-0.1384255290031433
1783696018344950500,1.813950439453125,-0.24391475319862366,0.1055937111377716,-0.1835634559392929
1783696018354914300,1.823914306640625,-0.24615295231342316,0.16211603581905365,-0.1996535211801529
1783696018364877600,1.833877685546875,-0.2327290177345276,0.1970258206129074,-0.18795745074748993
1783696018374841300,1.84384130859375,-0.20530427992343903,0.19141508638858795,-0.15597541630268097
1783696018384805400,1.853805419921875,-0.16705621778964996,0.15547999739646912,-0.1136479303240776
1783696018394769400,1.863769287109375,-0.1242266595363617,0.1019088625907898,-0.06533908098936081
1783696018404732400,1.873732421875,-0.07294110208749771,0.04637875780463219,-0.02519565261900425
1783696018414696400,1.883696533203125,-0.02898300625383854,-0.0025085839442908764,-0.006146932020783424
1783696018424660500,1.893660400390625,-0.00020302207849454135,-0.04175585135817528,0.0020081999246031046
1783696018434624500,1.90362451171875,0.01418789941817522,-0.06191568449139595,0.009413419291377068
1783696018444588500,1.913588623046875,0.017857735976576805,-0.053517140448093414,0.018617304041981697
1783696018454551600,1.923551513671875,0.00695423036813736,-0.032329123467206955,0.03084803745150566
1783696018464515300,1.933515380859375,-0.008417535573244095,-0.023302342742681503,0.04686135798692703
1783696018474479400,1.943479248046875,-0.026102948933839798,-0.017669156193733215,0.0685311108827591
1783696018484443400,1.953443359375,-0.04017296060919762,-0.012839247472584248,0.09888608753681183
1783696018494406400,1.963406494140625,-0.04448157921433449,-0.0040635643526911736,0.13078023493289948
1783696018504370400,1.973370361328125,-0.03919600322842598,0.007169382646679878,0.15958444774150848
1783696018514334500,1.98333447265625,-0.022453924641013145,0.0307167898863554,0.19537954032421112
1783696018524298500,1.993298583984375,-0.005053364206105471,0.06498981267213821,0.23883673548698425
1783696018534262500,2.003262451171875,0.009288753382861614,0.1169075295329094,0.281421959400177
1783696018544225500,2.0132255859375,0.018303819000720978,0.18064923584461212,0.31103047728538513
1783696018554189600,2.023189453125,0.008900461718440056,0.2053186595439911,0.29926759004592896
1783696018564153300,2.0331533203125,-0.015159067697823048,0.1959829479455948,0.2468041032552719
1783696018574117400,2.043117431640625,-0.051750410348176956,0.16141460835933685,0.18416009843349457
1783696018584080400,2.053080322265625,-0.10946989804506302,0.12674051523208618,0.14317084848880768
1783696018594044400,2.06304443359375,-0.1837446540594101,0.11658591032028198,0.15095557272434235
1783696018604008400,2.073008544921875,-0.25327208638191223,0.14376559853553772,0.21433773636817932
1783696018613972500,2.082972412109375,-0.296235591173172,0.222909078001976,0.311842679977417
1783696018623936500,2.0929365234375,-0.31210270524024963,0.31465205550193787,0.41693341732025146
1783696018633899500,2.1028994140625,-0.3076633810997009,0.34434083104133606,0.49852195382118225
1783696018643863600,2.112863525390625,-0.3007407486438751,0.26754671335220337,0.5371218323707581
1783696018653827300,2.122827392578125,-0.2988256514072418,0.11763294041156769,0.5384721159934998
1783696018663791400,2.132791259765625,-0.310170441865921,-0.02953440509736538,0.5105845332145691
1783696018673754400,2.14275439453125,-0.32675376534461975,-0.09560685604810715,0.47583624720573425
1783696018683718400,2.152718505859375,-0.34398895502090454,-0.09306779503822327,0.4453795552253723
1783696018693682400,2.162682373046875,-0.36251866817474365,-0.044990815222263336,0.41696983575820923
1783696018703646500,2.172646484375,-0.3764885365962982,0.018723178654909134,0.3955116868019104
1783696018713610500,2.182610595703125,-0.3781903386116028,0.07130833715200424,0.37579110264778137
1783696018723573500,2.192573486328125,-0.36782851815223694,0.09121333062648773,0.35492363572120667
1783696018733537500,2.20253759765625,-0.347330242395401,0.0722399652004242,0.3483846187591553
1783696018743501300,2.212501220703125,-0.31922245025634766,0.05597417429089546,0.3671109080314636
1783696018753465300,2.22246533203125,-0.28788501024246216,0.056129902601242065,0.3965339660644531
1783696018763428400,2.232428466796875,-0.24985933303833008,0.03035210259258747,0.4168650805950165
1783696018773392400,2.242392333984375,-0.21592476963996887,-0.03380552679300308,0.42887476086616516
1783696018783356400,2.2523564453125,-0.2002992033958435,-0.10125886648893356,0.4370027184486389
1783696018793320400,2.262320556640625,-0.20312748849391937,-0.1611490696668625,0.45675647258758545
1783696018803284500,2.272284423828125,-0.20781464874744415,-0.1999417394399643,0.47632113099098206
1783696018813247500,2.28224755859375,-0.2143152803182602,-0.24687141180038452,0.48578888177871704
1783696018823211500,2.29221142578125,-0.2144753336906433,-0.3099853992462158,0.47608643770217896
1783696018833175300,2.30217529296875,-0.21290293335914612,-0.3734123408794403,0.4531254470348358
1783696018843139300,2.312139404296875,-0.21880023181438446,-0.43509432673454285,0.4119628369808197
1783696018853102300,2.322102294921875,-0.22788697481155396,-0.5142621397972107,0.36543911695480347
1783696018863066400,2.33206640625,-0.24074019491672516,-0.576556921005249,0.3417239189147949
1783696018873030400,2.342030517578125,-0.27408668398857117,-0.6107004880905151,0.34684067964553833
1783696018882994400,2.351994384765625,-0.315529465675354,-0.6472318768501282,0.37262779474258423
1783696018892958500,2.36195849609375,-0.3628702759742737,-0.696980893611908,0.40497174859046936
1783696018902921500,2.37192138671875,-0.4019676148891449,-0.7282301187515259,0.42772233486175537
1783696018912885500,2.381885498046875,-0.44193461537361145,-0.7461885809898376,0.42062437534332275
1783696018922849500,2.391849609375,-0.47637251019477844,-0.7562689185142517,0.37652403116226196
1783696018932813300,2.401813232421875,-0.5008476972579956,-0.7514187693595886,0.3142595589160919
1783696018942776300,2.4117763671875,-0.5201489329338074,-0.7151741981506348,0.25849321484565735
1783696018952740400,2.421740234375,-0.5393403768539429,-0.6542984247207642,0.23264069855213165
1783696018962704400,2.431704345703125,-0.5671712160110474,-0.6152956485748291,0.23088647425174713
1783696018972668400,2.44166845703125,-0.604357898235321,-0.6071529984474182,0.24060583114624023
1783696018982631400,2.45163134765625,-0.6298981308937073,-0.6093266606330872,0.26297053694725037
1783696018992595500,2.461595458984375,-0.6524712443351746,-0.6157025098800659,0.2863129675388336
1783696019002559500,2.4715595703125,-0.6868420243263245,-0.6358871459960938,0.2944912612438202
1783696019012523500,2.4815234375,-0.730338454246521,-0.6665198802947998,0.2851967215538025
1783696019022487300,2.4914873046875,-0.775160014629364,-0.7124024629592896,0.26870936155319214
1783696019032450600,2.501450439453125,-0.8122270107269287,-0.7486192584037781,0.26807254552841187
1783696019042414300,2.511414306640625,-0.8512532711029053,-0.7821449637413025,0.2878393232822418
1783696019052378400,2.52137841796875,-0.8878725171089172,-0.818795382976532,0.31693652272224426
1783696019062342400,2.53134228515625,-0.9179766178131104,-0.8747063279151917,0.3377920091152191
1783696019072305400,2.541305419921875,-0.944064736366272,-0.9327129125595093,0.3477620780467987
1783696019082269400,2.55126953125,-0.9664427042007446,-0.9567157030105591,0.36489179730415344
1783696019092233500,2.5612333984375,-0.9869779348373413,-0.9685239195823669,0.3806617856025696
1783696019102197500,2.571197509765625,-1.0021119117736816,-0.9928723573684692,0.4041886627674103
1783696019112161300,2.581161376953125,-1.0119246244430542,-1.0267342329025269,0.42875343561172485
1783696019122124500,2.59112451171875,-1.0203242301940918,-1.0859637260437012,0.4521162807941437
1783696019132088300,2.60108837890625,-1.0302672386169434,-1.1544532775878906,0.47059366106987
1783696019142052400,2.61105224609375,-1.0439082384109497,-1.1871942281723022,0.4955250918865204
1783696019152016400,2.621016357421875,-1.058576226234436,-1.1885061264038086,0.5255407691001892
1783696019161979400,2.6309794921875,-1.0704385042190552,-1.1866430044174194,0.5405471324920654
1783696019171943400,2.640943359375,-1.0748250484466553,-1.1975449323654175,0.5565859079360962
1783696019181907500,2.650907470703125,-1.089977741241455,-1.207645297050476,0.5663615465164185
1783696019191871500,2.66087158203125,-1.1197832822799683,-1.2315659523010254,0.5745877027511597
1783696019201835500,2.67083544921875,-1.1323201656341553,-1.256882667541504,0.5973135232925415
1783696019211798300,2.68079833984375,-1.1306979656219482,-1.2475131750106812,0.6359816789627075
1783696019221762300,2.69076220703125,-1.1366645097732544,-1.2129898071289062,0.6798625588417053
1783696019231726000,2.70072607421875,-1.1772135496139526,-1.1781461238861084,0.6870483756065369
1783696019241690000,2.710690185546875,-1.217603087425232,-1.18332040309906,0.6345497369766235
1783696019251653000,2.720653076171875,-1.2559243440628052,-1.2053275108337402,0.5278348326683044
1783696019261617200,2.7306171875,-1.3130412101745605,-1.1719766855239868,0.3839162588119507
1783696019271581200,2.740581298828125,-1.3585096597671509,-1.0814307928085327,0.23331023752689362
1783696019281545200,2.750545166015625,-1.3930306434631348,-0.9763613343238831,0.09840169548988342
1783696019291508200,2.76050830078125,-1.4297233819961548,-0.8991435766220093,0.0040041483007371426
1783696019301472300,2.77047216796875,-1.478187084197998,-0.8685720562934875,-0.06001318618655205
1783696019311436300,2.780436279296875,-1.5421267747879028,-0.8777151703834534,-0.11445161700248718
1783696019321400000,2.790400146484375,-1.6162395477294922,-0.928183913230896,-0.15756100416183472
1783696019331364000,2.800364013671875,-1.7029949426651,-0.9703801870346069,-0.19072075188159943
1783696019341327000,2.8103271484375,-1.7861745357513428,-0.9915419220924377,-0.1989256888628006
1783696019351291100,2.820291015625,-1.8614397048950195,-1.0011740922927856,-0.18366065621376038
1783696019361255200,2.830255126953125,-1.9315383434295654,-1.0377681255340576,-0.15347984433174133
1783696019371219200,2.84021923828125,-1.9866870641708374,-1.1167879104614258,-0.11711425334215164
1783696019381182200,2.85018212890625,-2.0369489192962646,-1.2314929962158203,-0.0844804048538208
1783696019391146200,2.860146240234375,-2.0835721492767334,-1.3615868091583252,-0.06946185976266861
1783696019401110300,2.8701103515625,-2.125980854034424,-1.4741545915603638,-0.07497966289520264
1783696019411074000,2.880073974609375,-2.1686480045318604,-1.5446947813034058,-0.09183900058269501
1783696019421038000,2.8900380859375,-2.1964666843414307,-1.5562821626663208,-0.10943423956632614
1783696019431001000,2.9000009765625,-2.2122392654418945,-1.5209877490997314,-0.130762979388237
1783696019440965000,2.909965087890625,-2.212695837020874,-1.4550992250442505,-0.1595381796360016
1783696019450929200,2.91992919921875,-2.198274612426758,-1.3682161569595337,-0.1977052241563797
1783696019460893200,2.92989306640625,-2.167022228240967,-1.2767126560211182,-0.23588483035564423
1783696019470856200,2.939856201171875,-2.127830743789673,-1.2199015617370605,-0.2725033462047577
1783696019480820200,2.9498203125,-2.0880417823791504,-1.1998977661132812,-0.28393790125846863
1783696019490784300,2.9597841796875,-2.0401294231414795,-1.2275614738464355,-0.2678311765193939
1783696019500748000,2.969748046875,-1.9944055080413818,-1.3098262548446655,-0.2394256442785263
1783696019510712000,2.979712158203125,-1.9544693231582642,-1.43198561668396,-0.211767315864563
1783696019520675000,2.989675048828125,-1.9258531332015991,-1.5734302997589111,-0.1966022104024887
1783696019530639000,2.99963916015625,-1.913666009902954,-1.6974278688430786,-0.19834895431995392
1783696019540603100,3.00960302734375,-1.9132217168807983,-1.7773808240890503,-0.20615573227405548
1783696019550567200,3.019567138671875,-1.9129706621170044,-1.8191972970962524,-0.21012984216213226
1783696019560530200,3.0295302734375,-1.9110729694366455,-1.8332324028015137,-0.20029665529727936
1783696019570494200,3.039494140625,-1.9016867876052856,-1.7961148023605347,-0.1622798591852188
1783696019580458200,3.049458251953125,-1.8882501125335693,-1.7362512350082397,-0.11003423482179642
1783696019590422300,3.05942236328125,-1.8730862140655518,-1.6755478382110596,-0.061785534024238586
1783696019600386000,3.069385986328125,-1.8572481870651245,-1.6390210390090942,-0.029163405299186707
1783696019610349000,3.07934912109375,-1.8355413675308228,-1.6429654359817505,-0.0012882136506959796
1783696019620313000,3.08931298828125,-1.8214607238769531,-1.6636587381362915,0.02281845360994339
1783696019630277000,3.099277099609375,-1.8097198009490967,-1.6966030597686768,0.047890227288007736
1783696019640241200,3.1092412109375,-1.7929304838180542,-1.7247610092163086,0.07845772802829742
1783696019650204200,3.1192041015625,-1.7662030458450317,-1.7351949214935303,0.11555308103561401
1783696019660168200,3.129168212890625,-1.7401914596557617,-1.730570673942566,0.14130425453186035
1783696019670132200,3.13913232421875,-1.7239176034927368,-1.723065733909607,0.14849558472633362
1783696019680096300,3.14909619140625,-1.7192201614379883,-1.6975231170654297,0.13261622190475464
1783696019690059300,3.159059326171875,-1.7223135232925415,-1.6598800420761108,0.09928524494171143
1783696019700023300,3.169023193359375,-1.7406134605407715,-1.5989912748336792,0.050169095396995544
1783696019709987000,3.178987060546875,-1.7690497636795044,-1.5493261814117432,-0.0030491056386381388
1783696019719951000,3.188951171875,-1.797013759613037,-1.5127849578857422,-0.0458650104701519
1783696019729915100,3.1989150390625,-1.8193014860153198,-1.4544320106506348,-0.05318181961774826
1783696019739878100,3.208878173828125,-1.840024709701538,-1.3915635347366333,-0.028666887432336807
1783696019749842200,3.21884228515625,-1.862216830253601,-1.3250267505645752,0.01091095246374607
1783696019759806200,3.22880615234375,-1.8842732906341553,-1.2857261896133423,0.046071335673332214
1783696019769770200,3.238770263671875,-1.9013924598693848,-1.2538923025131226,0.0635460838675499
1783696019779733200,3.248733154296875,-1.9191477298736572,-1.2434403896331787,0.04336491599678993
1783696019789697300,3.258697265625,-1.9303756952285767,-1.231305718421936,0.004480770789086819
1783696019799661000,3.2686611328125,-1.940044641494751,-1.199567198753357,-0.03914313763380051
1783696019809625000,3.278625,-1.9371185302734375,-1.1592466831207275,-0.0785292237997055
1783696019819589000,3.288589111328125,-1.9172502756118774,-1.1309865713119507,-0.10233575850725174
1783696019829552000,3.29855224609375,-1.8904114961624146,-1.1052632331848145,-0.10546740144491196
1783696019839516200,3.30851611328125,-1.8525773286819458,-1.0850533246994019,-0.09593302011489868
1783696019849480200,3.318480224609375,-1.8070086240768433,-1.0820508003234863,-0.07945037633180618
1783696019859444200,3.3284443359375,-1.7619575262069702,-1.094249963760376,-0.06539127975702286
1783696019869407200,3.3384072265625,-1.7098233699798584,-1.1097513437271118,-0.05690016224980354
1783696019879371300,3.348371337890625,-1.6498827934265137,-1.101979374885559,-0.04203519597649574
1783696019889335000,3.3583349609375,-1.582290530204773,-1.0692782402038574,-0.025700392201542854
1783696019899299000,3.368299072265625,-1.5129197835922241,-1.0402781963348389,-0.018009983003139496
1783696019909263000,3.37826318359375,-1.4391077756881714,-1.0069085359573364,-0.016624825075268745
1783696019919226000,3.38822607421875,-1.3788566589355469,-0.9588857293128967,-0.0303206630051136
1783696019929190100,3.398190185546875,-1.3223482370376587,-0.8735150694847107,-0.06512955576181412
1783696019939154200,3.408154296875,-1.2638274431228638,-0.7556095123291016,-0.11306672543287277
1783696019949118200,3.4181181640625,-1.2089084386825562,-0.6333538889884949,-0.16278250515460968
1783696019959081200,3.428081298828125,-1.1616120338439941,-0.5584101676940918,-0.20765995979309082
1783696019969045200,3.438045166015625,-1.1244115829467773,-0.529862642288208,-0.22883228957653046
1783696019979009000,3.448009033203125,-1.0774983167648315,-0.5523034930229187,-0.21857938170433044
1783696019988973000,3.45797314453125,-1.0435914993286133,-0.5808877348899841,-0.1696939915418625
1783696019998936000,3.46793603515625,-1.0204118490219116,-0.6013493537902832,-0.10877657681703568
1783696020008900000,3.477900146484375,-1.0017226934432983,-0.6130965948104858,-0.0628100037574768
1783696020018864000,3.487864013671875,-0.9834076762199402,-0.6153605580329895,-0.027605941519141197
1783696020028828200,3.497828125,-0.9851109981536865,-0.6234116554260254,-0.020438572391867638
1783696020038792200,3.507792236328125,-0.9824893474578857,-0.661181628704071,-0.022960051894187927
1783696020048755200,3.517755126953125,-0.9650769829750061,-0.6730337142944336,-0.022292057052254677
1783696020058719200,3.52771923828125,-0.9449496269226074,-0.6553577780723572,-0.013375792652368546
1783696020068683300,3.537683349609375,-0.915503203868866,-0.6226812601089478,0.002865043468773365
1783696020078647000,3.54764697265625,-0.8810213804244995,-0.5759499669075012,0.02675599604845047
1783696020088610000,3.557610107421875,-0.8422415256500244,-0.5146196484565735,0.050083622336387634
1783696020098574000,3.567573974609375,-0.8033612370491028,-0.44061729311943054,0.0717199370265007
1783696020108538000,3.5775380859375,-0.7770363688468933,-0.38920339941978455,0.07824942469596863
1783696020118502100,3.587502197265625,-0.7584799528121948,-0.3507630527019501,0.07862492650747299
1783696020128466200,3.597466064453125,-0.7453480958938599,-0.3145075738430023,0.08905863761901855
1783696020138429200,3.60742919921875,-0.7287454605102539,-0.2818838357925415,0.13110941648483276
1783696020148393200,3.617393310546875,-0.7055008411407471,-0.2538580000400543,0.19401361048221588
1783696020158357200,3.627357177734375,-0.6873931884765625,-0.2767185866832733,0.2513080835342407
1783696020168321000,3.637321044921875,-0.6784437894821167,-0.3127421438694,0.3073842227458954
1783696020178284300,3.6472841796875,-0.682156503200531,-0.3553500771522522,0.3455537259578705
1783696020188248000,3.657248046875,-0.7003219127655029,-0.40659213066101074,0.3591577708721161
1783696020198212000,3.667212158203125,-0.7314808964729309,-0.4225737452507019,0.3558677136898041
1783696020208176000,3.677176025390625,-0.7647616267204285,-0.41543781757354736,0.3413468301296234
1783696020218138600,3.687138671875,-0.78294837474823,-0.36710304021835327,0.3361392915248871
1783696020228102700,3.6971025390625,-0.7901332378387451,-0.27634575963020325,0.3492085635662079
1783696020238066700,3.707066650390625,-0.7845762968063354,-0.18227331340312958,0.3706350326538086
1783696020248030700,3.71703076171875,-0.7613990902900696,-0.12661804258823395,0.39220237731933594
1783696020257994800,3.726994873046875,-0.7303151488304138,-0.12357696890830994,0.40240734815597534
1783696020267957800,3.736957763671875,-0.6986342072486877,-0.15398691594600677,0.3860194683074951
1783696020277921800,3.746921875,-0.6622141599655151,-0.21771609783172607,0.3480875492095947
1783696020287885600,3.756885498046875,-0.6351884007453918,-0.3244456350803375,0.2907634675502777
1783696020297849600,3.766849609375,-0.618212878704071,-0.44696757197380066,0.2337968647480011
1783696020307812600,3.7768125,-0.6063954830169678,-0.5136690735816956,0.1913057565689087
1783696020317776600,3.786776611328125,-0.5939867496490479,-0.524848222732544,0.1657242327928543
1783696020327740700,3.79674072265625,-0.5802537202835083,-0.4977193772792816,0.1642226278781891
1783696020337704700,3.80670458984375,-0.5630022883415222,-0.4340447783470154,0.18427063524723053
1783696020347668700,3.816668701171875,-0.5322691798210144,-0.3488772213459015,0.21866372227668762
1783696020357631700,3.8266318359375,-0.48249635100364685,-0.25466710329055786,0.26037442684173584
1783696020367595800,3.836595703125,-0.44305241107940674,-0.1951478123664856,0.28523221611976624
1783696020377559600,3.8465595703125,-0.4120132625102997,-0.21719107031822205,0.2847523093223572
1783696020387523600,3.856523681640625,-0.3881244659423828,-0.2928178906440735,0.26683059334754944
1783696020397486600,3.866486572265625,-0.37208133935928345,-0.41294270753860474,0.2360716164112091
1783696020407450600,3.87645068359375,-0.3635658919811249,-0.5381869673728943,0.21403858065605164
1783696020417414700,3.88641455078125,-0.3766747713088989,-0.6194477081298828,0.20739559829235077
1783696020427378700,3.896378662109375,-0.39742422103881836,-0.6531761288642883,0.1855042427778244
1783696020437341700,3.906341796875,-0.4153880476951599,-0.6461033225059509,0.14133651554584503
1783696020447305700,3.9163056640625,-0.4377785623073578,-0.6257544159889221,0.07106099277734756
1783696020457269800,3.926269775390625,-0.4632682204246521,-0.5790364742279053,-0.009358747862279415
1783696020467233500,3.936233642578125,-0.48068904876708984,-0.5177781581878662,-0.090864397585392
1783696020477197600,3.946197509765625,-0.48907560110092163,-0.457572340965271,-0.16846412420272827
1783696020487160600,3.95616064453125,-0.4855911433696747,-0.40275880694389343,-0.2341841757297516
1783696020497124600,3.96612451171875,-0.4748189151287079,-0.3486015498638153,-0.27864617109298706
1783696020507088600,3.976088623046875,-0.46187737584114075,-0.2958739101886749,-0.3033190369606018
1783696020517052700,3.986052734375,-0.4513051509857178,-0.24280859529972076,-0.3076874315738678
1783696020527015700,3.996015625,-0.43182241916656494,-0.1885540634393692,-0.29167234897613525
1783696020536979700,4.005979736328125,-0.4191524386405945,-0.1264755129814148,-0.26572784781455994
1783696020546943700,4.01594384765625,-0.4091869294643402,-0.08877642452716827,-0.24419809877872467
1783696020556907800,4.02590771484375,-0.4054372012615204,-0.10273351520299911,-0.22596955299377441
1783696020566871600,4.03587158203125,-0.4012291133403778,-0.1259661167860031,-0.20017164945602417
1783696020576834600,4.04583447265625,-0.39273548126220703,-0.14810417592525482,-0.16223864257335663
1783696020586798600,4.055798583984375,-0.38373926281929016,-0.16641709208488464,-0.12170931696891785
1783696020596762600,4.0657626953125,-0.37875568866729736,-0.17718185484409332,-0.08610232174396515
1783696020606726700,4.0757265625,-0.3717954754829407,-0.17568951845169067,-0.06660851091146469
1783696020616689700,4.085689697265625,-0.3596266806125641,-0.16233642399311066,-0.06247768551111221
1783696020626653700,4.09565380859375,-0.3451853096485138,-0.15077635645866394,-0.07701719552278519
1783696020636617700,4.10561767578125,-0.33585330843925476,-0.1670442819595337,-0.10867658257484436
1783696020646581800,4.115581787109375,-0.3294931650161743,-0.1958218663930893,-0.14396479725837708
1783696020656545500,4.125545654296875,-0.32162538170814514,-0.2160448431968689,-0.16712337732315063
1783696020666508800,4.1355087890625,-0.3221440315246582,-0.23117488622665405,-0.17284972965717316
1783696020676472600,4.14547265625,-0.33001500368118286,-0.24427656829357147,-0.1684264838695526
1783696020686436600,4.1554365234375,-0.34188973903656006,-0.22280797362327576,-0.14781157672405243
1783696020696400600,4.165400634765625,-0.3604373335838318,-0.1856992095708847,-0.12335125356912613
1783696020706363600,4.17536376953125,-0.3749896287918091,-0.1440955549478531,-0.0956607311964035
1783696020716327700,4.18532763671875,-0.395578533411026,-0.12104029953479767,-0.07067602127790451
1783696020726291700,4.195291748046875,-0.41628122329711914,-0.13440202176570892,-0.043387483805418015
1783696020736255700,4.205255859375,-0.44112372398376465,-0.14248284697532654,-0.008400204591453075
1783696020746218800,4.21521875,-0.4579966962337494,-0.1606278121471405,0.02473428100347519
1783696020756182800,4.225182861328125,-0.4644750952720642,-0.17940442264080048,0.046128783375024796
1783696020766146600,4.235146484375,-0.46486321091651917,-0.1977052241563797,0.05583154037594795
1783696020776110600,4.245110595703125,-0.46724432706832886,-0.2100958377122879,0.0663190707564354
1783696020786074600,4.25507470703125,-0.46514686942100525,-0.1998310685157776,0.08877795934677124
1783696020796037600,4.26503759765625,-0.4531554579734802,-0.1834331899881363,0.11437759548425674
1783696020806001700,4.275001708984375,-0.4307256042957306,-0.1640908569097519,0.1503535360097885
1783696020815965700,4.284965576171875,-0.4070996344089508,-0.13879401981830597,0.1907305270433426
1783696020825929700,4.2949296875,-0.3883276581764221,-0.12293171137571335,0.22827301919460297
1783696020835892700,4.304892822265625,-0.36719414591789246,-0.10046475380659103,0.24696893990039825
1783696020845856800,4.314856689453125,-0.343656450510025,-0.06860722601413727,0.24039910733699799
1783696020855820500,4.324820556640625,-0.3214257061481476,-0.029479797929525375,0.22303210198879242
1783696020865784600,4.33478466796875,-0.29265254735946655,0.008639159612357616,0.20092108845710754
1783696020875748600,4.34474853515625,-0.2610277831554413,0.04003223404288292,0.18508939445018768
1783696020885711600,4.354711669921875,-0.23509761691093445,0.026896897703409195,0.17372611165046692
1783696020895675600,4.364675537109375,-0.23289304971694946,-0.027323994785547256,0.1729612499475479
1783696020905639700,4.3746396484375,-0.24554646015167236,-0.08431879431009293,0.18211401998996735
1783696020915603700,4.384603759765625,-0.2649920880794525,-0.12391307204961777,0.20060382783412933
1783696020925566700,4.394566650390625,-0.28110215067863464,-0.15699468553066254,0.21049034595489502
1783696020935530800,4.40453076171875,-0.30341917276382446,-0.18266943097114563,0.19784832000732422
1783696020945494500,4.41449462890625,-0.33354800939559937,-0.19236479699611664,0.173700749874115
1783696020955458600,4.42445849609375,-0.3578517436981201,-0.16930235922336578,0.13794462382793427
1783696020965421600,4.434421630859375,-0.3618795871734619,-0.12749986350536346,0.10041504353284836
1783696020975385600,4.444385498046875,-0.3579261004924774,-0.08012142032384872,0.06811968982219696
1783696020985349600,4.454349609375,-0.3523930311203003,-0.04175594076514244,0.04308885335922241
1783696020995313700,4.464313720703125,-0.34835729002952576,-0.02581479214131832,0.02603743225336075
1783696021005277700,4.474277587890625,-0.34465232491493225,-0.029692910611629486,0.010904680006206036
1783696021015240700,4.48424072265625,-0.3525400757789612,-0.05697273463010788,0.0005279387114569545
1783696021025204700,4.494204833984375,-0.36353132128715515,-0.10173090547323227,-0.011425103060901165
1783696021035168800,4.504168701171875,-0.38102108240127563,-0.1636667102575302,-0.024012001231312752
1783696021045132500,4.514132568359375,-0.39964795112609863,-0.22531506419181824,-0.0393001027405262
1783696021055095600,4.524095458984375,-0.4207836091518402,-0.2812750041484833,-0.041925977915525436
1783696021065059600,4.5340595703125,-0.4377797842025757,-0.3031997084617615,-0.029851092025637627
1783696021075023600,4.544023681640625,-0.44592398405075073,-0.2930525541305542,-0.0017893633339554071
1783696021084987600,4.553987548828125,-0.4413219690322876,-0.2616073489189148,0.030065912753343582
1783696021094950700,4.56395068359375,-0.42800644040107727,-0.2250986099243164,0.0647336095571518
1783696021104914700,4.573914794921875,-0.4070480465888977,-0.17117995023727417,0.09544290602207184
1783696021114878700,4.583878662109375,-0.3848804235458374,-0.10224215686321259,0.1347154676914215
1783696021124842800,4.5938427734375,-0.37406402826309204,-0.03961315006017685,0.1706315279006958
1783696021134806500,4.603806640625,-0.3681451678276062,-0.020328935235738754,0.20129382610321045
1783696021144769800,4.613769775390625,-0.3650987148284912,-0.0319557748734951,0.22118347883224487
1783696021154733600,4.623733642578125,-0.36945831775665283,-0.0669798031449318,0.2337232381105423
1783696021164697600,4.633697509765625,-0.372963547706604,-0.10021819919347763,0.23316915333271027
1783696021174661600,4.64366162109375,-0.3716500699520111,-0.11209030449390411,0.2106124460697174
1783696021184624600,4.653624755859375,-0.36796557903289795,-0.1158442571759224,0.1754012256860733
1783696021194588700,4.663588623046875,-0.36600521206855774,-0.10471969842910767,0.11983995884656906
1783696021204552700,4.673552734375,-0.3626153767108917,-0.09489957988262177,0.04861054569482803
1783696021214517000,4.68351708984375,-0.3600749969482422,-0.09156796336174011,-0.0382002517580986
1783696021224480800,4.693480712890625,-0.35844486951828003,-0.10608375817537308,-0.13895027339458466
1783696021234443800,4.70344384765625,-0.35358646512031555,-0.1283496469259262,-0.23907554149627686
1783696021244407800,4.71340771484375,-0.3421245515346527,-0.14570142328739166,-0.31794095039367676
1783696021254371800,4.723371826171875,-0.32959145307540894,-0.16413448750972748,-0.3795854151248932
1783696021264336000,4.7333359375,-0.3198617994785309,-0.18780262768268585,-0.43080052733421326
1783696021274299000,4.743298828125,-0.3118717670440674,-0.21133644878864288,-0.4734925925731659
1783696021284263000,4.753262939453125,-0.3042115271091461,-0.22542138397693634,-0.492958664894104
1783696021294227000,4.76322705078125,-0.29768118262290955,-0.23469185829162598,-0.4862224757671356
1783696021304191000,4.77319091796875,-0.2931536138057709,-0.2389286458492279,-0.45543789863586426
1783696021314154000,4.783154052734375,-0.2818668782711029,-0.24532556533813477,-0.40028807520866394
1783696021324118000,4.793117919921875,-0.27112478017807007,-0.23998329043388367,-0.3234322965145111
1783696021334081800,4.803081787109375,-0.26352038979530334,-0.23733477294445038,-0.23826149106025696
1783696021344045800,4.8130458984375,-0.25744569301605225,-0.2502261996269226,-0.1579703688621521
1783696021354009900,4.823009765625,-0.2381950467824936,-0.2792336046695709,-0.09068427979946136
1783696021363972900,4.832972900390625,-0.21658119559288025,-0.29071328043937683,-0.03765483573079109
1783696021373937000,4.84293701171875,-0.20192208886146545,-0.2882522642612457,-0.009096425957977772
1783696021383901000,4.85290087890625,-0.19058392941951752,-0.2765754759311676,-0.017026618123054504
1783696021393865000,4.862864990234375,-0.18270497024059296,-0.2607903778553009,-0.05094783380627632
1783696021403828000,4.872827880859375,-0.18434302508831024,-0.2196555733680725,-0.09520360827445984
1783696021413792000,4.8827919921875,-0.19124780595302582,-0.1533127725124359,-0.12813997268676758
1783696021423755800,4.892755859375,-0.2037382870912552,-0.08439582586288452,-0.1442183405160904
1783696021433719800,4.9027197265625,-0.2222459316253662,-0.02475300058722496,-0.13809333741664886
1783696021443682800,4.912682861328125,-0.2444496750831604,0.016491180285811424,-0.11980314552783966
1783696021453646800,4.922646728515625,-0.26043689250946045,0.03169303387403488,-0.09133368730545044
1783696021463611000,4.93261083984375,-0.27459070086479187,0.02668118104338646,-0.06207096204161644
1783696021473575000,4.942574951171875,-0.27910637855529785,0.01904190331697464,-0.03668837249279022
1783696021483539000,4.9525390625,-0.28064268827438354,0.003989142365753651,-0.01808212697505951
1783696021493502000,4.962501953125,-0.27076423168182373,-0.0225782860070467,-0.0028962488286197186
1783696021503466000,4.972466064453125,-0.24282097816467285,-0.036550767719745636,0.015390782617032528
1783696021513429800,4.9824296875,-0.21474753320217133,-0.03375311568379402,0.04862916097044945
1783696021523393800,4.992393798828125,-0.18297220766544342,-0.032949693500995636,0.08517830073833466
1783696021533356800,5.002356689453125,-0.15312883257865906,-0.035836562514305115,0.12929914891719818
1783696021543320800,5.01232080078125,-0.12521465122699738,-0.031706467270851135,0.18252915143966675
1783696021553284900,5.022284912109375,-0.09874548763036728,-0.003733154386281967,0.24922029674053192
1783696021563249000,5.032248779296875,-0.07846973836421967,0.026451870799064636,0.3201102614402771
1783696021573213000,5.042212890625,-0.05725553259253502,0.04211658239364624,0.37573012709617615
1783696021583176000,5.052176025390625,-0.03818075731396675,0.04923178255558014,0.41371527314186096
1783696021593140000,5.062139892578125,-0.027387764304876328,0.01661071926355362,0.42095133662223816
1783696021603104000,5.07210400390625,-0.02711193636059761,-0.061508066952228546,0.4036528170108795
1783696021613067800,5.08206787109375,-0.036282528191804886,-0.13332900404930115,0.3733731806278229
1783696021623030800,5.09203076171875,-0.049828119575977325,-0.1829381287097931,0.3443770110607147
1783696021632994800,5.101994873046875,-0.06635063886642456,-0.19497108459472656,0.31801146268844604
1783696021642958800,5.111958740234375,-0.07199355214834213,-0.15707816183567047,0.3027801513671875
1783696021652923000,5.1219228515625,-0.06919936090707779,-0.06895256787538528,0.2932524085044861
1783696021662886000,5.131885986328125,-0.06654596328735352,0.044851116836071014,0.2950214147567749
1783696021672850000,5.141849853515625,-0.058797501027584076,0.14678625762462616,0.2919188439846039
1783696021682814000,5.15181396484375,-0.04884949326515198,0.1938089281320572,0.2752459645271301
1783696021692778000,5.161778076171875,-0.03393232822418213,0.17712369561195374,0.24254901707172394
1783696021702741000,5.171740966796875,-0.017608562484383583,0.1020183116197586,0.19825458526611328
1783696021712705000,5.181705078125,-0.007651536259800196,-0.0047438242472708225,0.151016503572464
1783696021722668800,5.191668701171875,-0.005098323803395033,-0.09348249435424805,0.10172148793935776
1783696021732632800,5.2016328125,-0.006584634073078632,-0.12674324214458466,0.0595087893307209
1783696021742596900,5.211596923828125,-0.012367377988994122,-0.11494894325733185,0.03183062747120857
1783696021752559900,5.221559814453125,-0.0013677238021045923,-0.06581494957208633,0.022624347358942032
1783696021762524000,5.23152392578125,0.01811518892645836,-0.028305543586611748,0.03691137954592705
1783696021772488000,5.241488037109375,0.03813736513257027,-0.04021253436803818,0.07096469402313232
1783696021782452000,5.251451904296875,0.05170750245451927,-0.06350800395011902,0.12367743998765945
1783696021792415000,5.2614150390625,0.07564319670200348,-0.08097194880247116,0.17079487442970276
1783696021802379000,5.27137890625,0.11278807371854782,-0.05889607220888138,0.20376113057136536
1783696021812342800,5.2813427734375,0.15264467895030975,-0.0132987629622221,0.2175091803073883
1783696021822306800,5.291306884765625,0.18993768095970154,0.03834526613354683,0.21905982494354248
1783696021832270800,5.301270751953125,0.2219262272119522,0.0885075032711029,0.21401233971118927
1783696021842233900,5.31123388671875,0.24440284073352814,0.12741850316524506,0.20000654458999634
1783696021852198000,5.321197998046875,0.25354281067848206,0.14330585300922394,0.17491291463375092
1783696021862162000,5.331161865234375,0.25104013085365295,0.12368280440568924,0.13794170320034027
1783696021872126000,5.3411259765625,0.23778851330280304,0.06455504149198532,0.0948171317577362
1783696021882089000,5.3510888671875,0.210595041513443,-0.014651049859821796,0.04847573861479759
1783696021892053000,5.361052978515625,0.18232931196689606,-0.08912501484155655,0.004908291157335043
1783696021902016800,5.371016845703125,0.17842859029769897,-0.18953847885131836,-0.027835840359330177
1783696021911980800,5.380980712890625,0.1742386370897293,-0.3002737760543823,-0.051955290138721466
1783696021921943800,5.39094384765625,0.1704665720462799,-0.38056567311286926,-0.06850403547286987
1783696021931907800,5.400907958984375,0.16528566181659698,-0.42430463433265686,-0.09238007664680481
1783696021941871900,5.410871826171875,0.14808164536952972,-0.43764546513557434,-0.1339552104473114
1783696021951836000,5.4208359375,0.13155806064605713,-0.41142213344573975,-0.1892477571964264
1783696021961799000,5.430798828125,0.12854470312595367,-0.3372744917869568,-0.255749374628067
1783696021971763000,5.440762939453125,0.1317618042230606,-0.23448657989501953,-0.31596770882606506
1783696021981727000,5.45072705078125,0.1468104124069214,-0.10666727274656296,-0.363050252199173
1783696021991690800,5.460690673828125,0.16682246327400208,0.02575867809355259,-0.3909279704093933
1783696022001654800,5.47065478515625,0.1916583776473999,0.14414069056510925,-0.398668497800827
1783696022011617800,5.48061767578125,0.21666252613067627,0.23012803494930267,-0.3837239146232605
1783696022021581800,5.490581787109375,0.22961457073688507,0.2810594439506531,-0.34439095854759216
1783696022031545900,5.5005458984375,0.23059488832950592,0.3106154799461365,-0.28789201378822327
1783696022041510000,5.510510009765625,0.22852714359760284,0.3398614525794983,-0.2266678512096405
1783696022051473000,5.520472900390625,0.2187592089176178,0.34484633803367615,-0.16999870538711548
1783696022061437000,5.53043701171875,0.21134670078754425,0.3130391538143158,-0.12115854769945145
1783696022071401000,5.54040087890625,0.2090872824192047,0.25975674390792847,-0.07827126979827881
1783696022081365000,5.550364990234375,0.2132512629032135,0.19339074194431305,-0.05262897536158562
1783696022091328000,5.560327880859375,0.21705852448940277,0.11325541883707047,-0.04632234573364258
1783696022101291800,5.570291748046875,0.22080400586128235,0.025646571069955826,-0.05822061374783516
1783696022111255800,5.580255859375,0.21496927738189697,-0.040678124874830246,-0.08005639910697937
1783696022121219800,5.5902197265625,0.2010749727487564,-0.0911218672990799,-0.10750637948513031
1783696022131183900,5.600183837890625,0.19767652451992035,-0.10988117754459381,-0.1219383180141449
1783696022141147000,5.61014697265625,0.19273017346858978,-0.10698660463094711,-0.12382423132658005
1783696022151111000,5.62011083984375,0.19348038733005524,-0.09001348167657852,-0.11007513105869293
1783696022161075000,5.630074951171875,0.19048050045967102,-0.08511494100093842,-0.08734094351530075
1783696022171039000,5.6400390625,0.18453553318977356,-0.08808622509241104,-0.05842486768960953
1783696022181002000,5.650001953125,0.16828827559947968,-0.08489593118429184,-0.0192785132676363
1783696022190966000,5.659966064453125,0.14739550650119781,-0.09790760278701782,0.024056177586317062
1783696022200929800,5.6699296875,0.11951025575399399,-0.1109541803598404,0.06754322350025177
1783696022210893800,5.679893798828125,0.08475068211555481,-0.12156820297241211,0.09896320104598999
1783696022220856300,5.689856201171875,0.05449423938989639,-0.12129120528697968,0.12258148193359375
1783696022230820400,5.6998203125,0.02697792649269104,-0.12573309242725372,0.13172490894794464
1783696022240784400,5.709784423828125,0.002739171264693141,-0.1246153935790062,0.13135868310928345
1783696022250748400,5.71974853515625,-0.016651039943099022,-0.11030809581279755,0.12830324470996857
1783696022260712400,5.72971240234375,-0.03057987242937088,-0.0697861835360527,0.12510628998279572
1783696022270675500,5.739675537109375,-0.04560462757945061,0.000748706515878439,0.11864493042230606
1783696022280639500,5.749639404296875,-0.05067713186144829,0.05307036638259888,0.1059335246682167
1783696022290603500,5.759603515625,-0.05024862661957741,0.08249642699956894,0.09610539674758911
1783696022300567300,5.7695673828125,-0.05571241304278374,0.10111117362976074,0.09430849552154541
1783696022310530300,5.7795302734375,-0.047161005437374115,0.0935339480638504,0.09187036752700806
1783696022320494300,5.789494384765625,-0.03745987266302109,0.04657312110066414,0.08134755492210388
1783696022330458400,5.799458251953125,-0.042440518736839294,-0.01678800769150257,0.0548216737806797
1783696022340422400,5.80942236328125,-0.056140534579753876,-0.06394518911838531,0.01612558774650097
1783696022350385400,5.819385498046875,-0.07326652109622955,-0.07894597947597504,-0.032567381858825684
1783696022360349400,5.829349365234375,-0.09209678322076797,-0.06930530071258545,-0.08436457812786102
1783696022370313500,5.8393134765625,-0.1195925921201706,-0.0474759005010128,-0.13233770430088043
1783696022380277500,5.849277587890625,-0.1449013650417328,0.01789613626897335,-0.1618390530347824
1783696022390241300,5.8592412109375,-0.16644687950611115,0.10398148000240326,-0.1728389710187912
1783696022400204500,5.86920458984375,-0.1856927126646042,0.12655450403690338,-0.17691397666931152
1783696022410168300,5.879168212890625,-0.19837282598018646,0.06915618479251862,-0.18557937443256378
1783696022420132400,5.88913232421875,-0.2064332216978073,-0.028788235038518906,-0.19603891670703888
1783696022430096400,5.899096435546875,-0.21689918637275696,-0.12409558892250061,-0.20934300124645233
1783696022440059400,5.909059326171875,-0.24121642112731934,-0.18875841796398163,-0.2139206975698471
1783696022450023400,5.9190234375,-0.27155569195747375,-0.20670226216316223,-0.2061368077993393
1783696022459987500,5.928987548828125,-0.3056386411190033,-0.19280372560024261,-0.184689000248909
1783696022469951500,5.938951416015625,-0.3402882218360901,-0.1703498214483261,-0.1415279358625412
1783696022479914500,5.94891455078125,-0.36060747504234314,-0.14568592607975006,-0.07037128508090973
1783696022489878500,5.95887841796875,-0.37314748764038086,-0.14381426572799683,0.02120230905711651
1783696022499842300,5.96884228515625,-0.38160979747772217,-0.1609039306640625,0.1271006464958191
1783696022509806300,5.978806396484375,-0.37998872995376587,-0.17502161860466003,0.22865734994411469
1783696022519769300,5.988769287109375,-0.37434956431388855,-0.17258939146995544,0.30979445576667786
1783696022529733400,5.9987333984375,-0.3736414313316345,-0.17938098311424255,0.355102002620697
1783696022539697400,6.008697509765625,-0.3857932984828949,-0.1985228955745697,0.3603369891643524
1783696022549661400,6.018661376953125,-0.40440988540649414,-0.2190963476896286,0.3281281888484955
1783696022559625500,6.02862548828125,-0.43116235733032227,-0.23975339531898499,0.2745359241962433
1783696022569588500,6.03858837890625,-0.45225006341934204,-0.25418558716773987,0.20771776139736176
1783696022579552500,6.048552490234375,-0.48692139983177185,-0.24663299322128296,0.136276975274086
1783696022589516300,6.058516357421875,-0.5185243487358093,-0.23158054053783417,0.058687109500169754
1783696022599480300,6.068480224609375,-0.533991277217865,-0.21733267605304718,-0.015623455867171288
1783696022609443300,6.078443359375,-0.5410798192024231,-0.1972806751728058,-0.0866510272026062
1783696022619407400,6.088407470703125,-0.5511772632598877,-0.18472157418727875,-0.15172305703163147
1783696022629371400,6.098371337890625,-0.5592695474624634,-0.2020704597234726,-0.2096758335828781
1783696022639335400,6.10833544921875,-0.5612165927886963,-0.24043206870555878,-0.2535344660282135
1783696022649298400,6.11829833984375,-0.5635742545127869,-0.28138965368270874,-0.28602367639541626
1783696022659262500,6.128262451171875,-0.5672478079795837,-0.3133305013179779,-0.30309149622917175
1783696022669226500,6.1382265625,-0.5689160227775574,-0.3353380560874939,-0.3042478561401367
1783696022679190300,6.148190185546875,-0.5655664205551147,-0.3544709384441376,-0.29482436180114746
1783696022689154300,6.158154296875,-0.5601988434791565,-0.3745564818382263,-0.27885711193084717
1783696022699117300,6.168117431640625,-0.5536096096038818,-0.3985806703567505,-0.2515351474285126
1783696022709081300,6.178081298828125,-0.5454646348953247,-0.4236873686313629,-0.2096708118915558
1783696022719045400,6.18804541015625,-0.5438492894172668,-0.437679648399353,-0.1564996838569641
1783696022729009400,6.198009521484375,-0.5415626764297485,-0.4410541355609894,-0.10360292345285416
1783696022738972400,6.207972412109375,-0.5373117923736572,-0.43862131237983704,-0.060651957988739014
1783696022748936400,6.2179365234375,-0.5333977341651917,-0.4211408495903015,-0.03398892283439636
1783696022758900500,6.227900390625,-0.5285736918449402,-0.38392290472984314,-0.023948004469275475
1783696022768864500,6.237864501953125,-0.525688111782074,-0.34310010075569153,-0.03720175847411156
1783696022778827500,6.24782763671875,-0.5192009806632996,-0.3067058026790619,-0.0705656111240387
1783696022788791300,6.257791259765625,-0.5210707783699036,-0.2736099064350128,-0.11137695610523224
1783696022798755300,6.26775537109375,-0.5206528306007385,-0.24541693925857544,-0.15202024579048157
1783696022808719400,6.27771923828125,-0.5218536257743835,-0.22212839126586914,-0.1764339655637741
1783696022818682400,6.287682373046875,-0.5207048058509827,-0.21101613342761993,-0.18315990269184113
1783696022828646400,6.297646484375,-0.5172259211540222,-0.21538211405277252,-0.16831038892269135
1783696022838610400,6.3076103515625,-0.5132911205291748,-0.22215425968170166,-0.13077235221862793
1783696022848574500,6.317574462890625,-0.5048025250434875,-0.22072546184062958,-0.07822099328041077
1783696022858538500,6.32753857421875,-0.48495280742645264,-0.20514115691184998,-0.011748644523322582
1783696022868501500,6.33750146484375,-0.45322364568710327,-0.16874772310256958,0.05380399897694588
1783696022878465500,6.347465576171875,-0.4213426411151886,-0.11743266135454178,0.10753560066223145
1783696022888429300,6.35742919921875,-0.38349220156669617,-0.06498783081769943,0.1451554149389267
1783696022898393300,6.367393310546875,-0.3417760729789734,-0.02610407955944538,0.15277694165706635
1783696022908356400,6.3773564453125,-0.29987388849258423,-0.004176943097263575,0.14517174661159515
1783696022918320400,6.3873203125,-0.2712652087211609,0.0022176834754645824,0.1285189837217331
1783696022928284400,6.397284423828125,-0.2524736821651459,0.0014922384871169925,0.10151667147874832
1783696022938248400,6.40724853515625,-0.23722809553146362,-0.0008237565634772182,0.08221221715211868
1783696022948211500,6.41721142578125,-0.23044316470623016,-0.0227357130497694,0.0761181116104126
1783696022958175500,6.427175537109375,-0.22920182347297668,-0.055214039981365204,0.09247508645057678
1783696022968139500,6.437139404296875,-0.2241058647632599,-0.08803457021713257,0.13532614707946777
1783696022978103300,6.447103271484375,-0.2157968282699585,-0.10079969465732574,0.1937280297279358
1783696022988066600,6.457066650390625,-0.20289140939712524,-0.08991961181163788,0.25256016850471497
1783696022998030300,6.4670302734375,-0.19077685475349426,-0.06735377758741379,0.296252965927124
1783696023007994400,6.476994384765625,-0.17477552592754364,-0.032064761966466904,0.3280324637889862
1783696023017958400,6.48695849609375,-0.15497325360774994,0.013064347207546234,0.3392123579978943
1783696023027922400,6.49692236328125,-0.13072596490383148,0.05285383760929108,0.32821401953697205
1783696023037885400,6.506885498046875,-0.10550495982170105,0.08913648873567581,0.29823240637779236
1783696023047849500,6.516849365234375,-0.08372030407190323,0.0928228348493576,0.24596573412418365
1783696023057813500,6.5268134765625,-0.06632048636674881,0.06611448526382446,0.18839173018932343
1783696023067777300,6.53677734375,-0.060822129249572754,0.05286606028676033,0.1390683948993683
1783696023077740500,6.546740478515625,-0.06188877671957016,0.037855494767427444,0.09915155172348022
1783696023087704300,6.556704345703125,-0.08547240495681763,0.030871622264385223,0.06458905339241028
1783696023097668400,6.56666845703125,-0.12307288497686386,0.03648076951503754,0.034397777169942856
1783696023107632400,6.57663232421875,-0.16758549213409424,0.057583656162023544,0.02630975842475891
1783696023117595400,6.586595458984375,-0.20723871886730194,0.10662369430065155,0.04726759344339371
1783696023127559400,6.596559326171875,-0.2365095168352127,0.15894176065921783,0.09449076652526855
1783696023137523500,6.6065234375,-0.2452181875705719,0.18862654268741608,0.14873769879341125
1783696023147487500,6.616487548828125,-0.23428617417812347,0.1918066293001175,0.2014978528022766
1783696023157450500,6.626450439453125,-0.21073639392852783,0.16325974464416504,0.22799451649188995
1783696023167414500,6.63641455078125,-0.1887434720993042,0.11821876466274261,0.23646283149719238
1783696023177378300,6.64637841796875,-0.17068389058113098,0.06848209351301193,0.23406031727790833
1783696023187342300,6.65634228515625,-0.15942589938640594,0.025280563160777092,0.22560212016105652
1783696023197306400,6.666306396484375,-0.16182462871074677,0.004130571149289608,0.21816793084144592
1783696023207269400,6.676269287109375,-0.17199577391147614,0.013292111456394196,0.22391077876091003
1783696023217233700,6.686233642578125,-0.18309549987316132,0.050181109458208084,0.24727796018123627
1783696023227198000,6.696197998046875,-0.1923888772726059,0.09266065806150436,0.283969908952713
1783696023237162000,6.706161865234375,-0.19566592574119568,0.10225839912891388,0.3158576488494873
1783696023247124700,6.716124755859375,-0.1885630041360855,0.0817406103014946,0.3451593518257141
1783696023257088800,6.7260888671875,-0.17887723445892334,0.04719654470682144,0.36662179231643677
1783696023267052500,6.736052490234375,-0.16439016163349152,-0.006539122201502323,0.38296428322792053
1783696023277016800,6.746016845703125,-0.14583325386047363,-0.06906185299158096,0.39129653573036194
1783696023286979600,6.7559794921875,-0.1255602091550827,-0.1341676265001297,0.4026711583137512
1783696023296943600,6.765943603515625,-0.10115918517112732,-0.19277502596378326,0.40472784638404846
1783696023306907600,6.77590771484375,-0.08554640412330627,-0.22478969395160675,0.40360453724861145
1783696023316872000,6.785871826171875,-0.08433481305837631,-0.23384949564933777,0.38331320881843567
1783696023326834700,6.795834716796875,-0.08858655393123627,-0.24995362758636475,0.3374863266944885
1783696023336798700,6.805798828125,-0.10323136299848557,-0.2420777976512909,0.27165570855140686
1783696023346762800,6.8157626953125,-0.12890742719173431,-0.19866454601287842,0.18638664484024048
1783696023356726800,6.825726806640625,-0.15214627981185913,-0.15474240481853485,0.09732136130332947
1783696023366690800,6.83569091796875,-0.15992377698421478,-0.16402192413806915,0.03419378772377968
1783696023376653600,6.845653564453125,-0.18019704520702362,-0.19160622358322144,0.002778382273390889
1783696023386617600,6.85561767578125,-0.19900615513324738,-0.2374996840953827,-0.013447991572320461
1783696023396581600,6.86558154296875,-0.19870780408382416,-0.2822205126285553,-0.02364153042435646
1783696023406546000,6.8755458984375,-0.19365312159061432,-0.3094811737537384,-0.03909692168235779
1783696023416508700,6.8855087890625,-0.18492045998573303,-0.30704018473625183,-0.04774405062198639
1783696023426472700,6.89547265625,-0.1749463826417923,-0.28224268555641174,-0.051274869590997696
1783696023436436700,6.905436767578125,-0.16770294308662415,-0.23940351605415344,-0.05359968915581703
1783696023446400800,6.91540087890625,-0.16535963118076324,-0.2031847983598709,-0.05070696398615837
1783696023456363800,6.92536376953125,-0.16831165552139282,-0.20304901897907257,-0.04496527463197708
1783696023466327600,6.93532763671875,-0.1738763302564621,-0.21987514197826385,-0.025264009833335876
1783696023476291600,6.94529150390625,-0.18707484006881714,-0.26092833280563354,-0.0002819123910740018
1783696023486255900,6.955255859375,-0.19953416287899017,-0.29331183433532715,0.019279805943369865
1783696023496218600,6.965218505859375,-0.2165481299161911,-0.3288804590702057,0.02432042546570301
1783696023506182700,6.9751826171875,-0.23489969968795776,-0.3915102779865265,0.003640713868662715
1783696023516146700,6.985146728515625,-0.2543846666812897,-0.46032553911209106,-0.032462555915117264
1783696023526111000,6.995111083984375,-0.27585268020629883,-0.5241184234619141,-0.07179638743400574
1783696023536073700,7.00507373046875,-0.29473263025283813,-0.5674849152565002,-0.10432949662208557
1783696023546037800,7.015037841796875,-0.32381170988082886,-0.5871244072914124,-0.12392450124025345
1783696023556001500,7.02500146484375,-0.35962924361228943,-0.5809205770492554,-0.13120633363723755
1783696023565965600,7.034965576171875,-0.39950793981552124,-0.5623865723609924,-0.12208713591098785
1783696023575929900,7.044929931640625,-0.44411563873291016,-0.5442587733268738,-0.11285475641489029
1783696023585892600,7.054892578125,-0.4964374303817749,-0.5410438179969788,-0.10456806421279907
1783696023595856600,7.064856689453125,-0.548251748085022,-0.5455725789070129,-0.10233455896377563
1783696023605820700,7.074820556640625,-0.5954675078392029,-0.550805926322937,-0.0972476527094841
1783696023615785000,7.084784912109375,-0.6415019035339355,-0.5547753572463989,-0.0918244943022728
1783696023625747700,7.094747802734375,-0.6837649345397949,-0.5618032217025757,-0.07617096602916718
1783696023635711700,7.104711669921875,-0.7318812608718872,-0.5782868266105652,-0.04847079515457153
1783696023645675800,7.11467578125,-0.7823294997215271,-0.6035701036453247,-0.011658186092972755
1783696023655639800,7.124639892578125,-0.8246451020240784,-0.6251989006996155,0.03754110634326935
1783696023665602600,7.1346025390625,-0.8675230741500854,-0.6459022760391235,0.07966805249452591
1783696023675566600,7.144566650390625,-0.9074557423591614,-0.6868802309036255,0.10544265061616898
1783696023685530600,7.154530517578125,-0.9391729235649109,-0.7440207004547119,0.11293598264455795
1783696023695494700,7.16449462890625,-0.9633252620697021,-0.7933998107910156,0.10745101422071457
1783696023705457700,7.174457763671875,-0.9760580658912659,-0.8067787289619446,0.10998847335577011
1783696023715421700,7.184421630859375,-0.9801630973815918,-0.7747638821601868,0.11296103149652481
1783696023725385700,7.1943857421875,-0.9832478165626526,-0.7153527736663818,0.10920623689889908
1783696023735349800,7.204349853515625,-0.9856390953063965,-0.6420638561248779,0.09864360839128494
1783696023745313800,7.214313720703125,-0.9894269108772278,-0.5724453926086426,0.07245541363954544
1783696023755276800,7.22427685546875,-0.9894919991493225,-0.5391643047332764,0.0330328606069088
1783696023765240600,7.234240478515625,-0.9870924949645996,-0.5580839514732361,0.002046717330813408
1783696023775204600,7.24420458984375,-0.9952693581581116,-0.6111549735069275,-0.012997377663850784
1783696023785169000,7.2541689453125,-1.016382098197937,-0.6608301401138306,-0.00302676809951663
1783696023795131600,7.264131591796875,-1.052246332168579,-0.6939387917518616,0.03743318095803261
1783696023805095700,7.274095703125,-1.0763455629348755,-0.7065824270248413,0.09900013357400894
1783696023815059700,7.284059814453125,-1.0913351774215698,-0.6888190507888794,0.16795121133327484
1783696023825023700,7.294023681640625,-1.1061968803405762,-0.6752300262451172,0.2092648297548294
1783696023834986800,7.30398681640625,-1.1171817779541016,-0.6888846755027771,0.2185010015964508
1783696023844950800,7.31395068359375,-1.1207445859909058,-0.6995822787284851,0.20468665659427643
1783696023854914600,7.32391455078125,-1.1191760301589966,-0.6976448893547058,0.18051403760910034
1783696023864878600,7.333878662109375,-1.1175535917282104,-0.6967892646789551,0.1586604118347168
1783696023874841600,7.343841552734375,-1.121117115020752,-0.698472797870636,0.146317720413208
1783696023884805600,7.3538056640625,-1.142502784729004,-0.6889432072639465,0.14402420818805695
1783696023894769700,7.363769775390625,-1.1678242683410645,-0.6818146109580994,0.14649122953414917
1783696023904733700,7.373733642578125,-1.188838243484497,-0.6773415803909302,0.13918697834014893
1783696023914696700,7.38369677734375,-1.2069519758224487,-0.6714375615119934,0.10980038344860077
1783696023924660700,7.39366064453125,-1.2218213081359863,-0.6727113127708435,0.06483717262744904
1783696023934624800,7.403624755859375,-1.2332968711853027,-0.6737670302391052,-0.0019408197840675712
1783696023944588500,7.413588623046875,-1.2401241064071655,-0.6659327745437622,-0.08506260812282562
1783696023954551800,7.4235517578125,-1.2334294319152832,-0.6599478721618652,-0.168720081448555
1783696023964515600,7.433515625,-1.235403299331665,-0.6686028838157654,-0.25179073214530945
1783696023974479600,7.443479736328125,-1.247935175895691,-0.6979236602783203,-0.3215041160583496
1783696023984443600,7.453443603515625,-1.2551158666610718,-0.7314438223838806,-0.36872196197509766
1783696023994407700,7.46340771484375,-1.261971116065979,-0.7392770051956177,-0.3713957965373993
1783696024004370700,7.47337060546875,-1.2718894481658936,-0.7372252941131592,-0.3338817059993744
1783696024014334700,7.483334716796875,-1.2879719734191895,-0.7376871705055237,-0.2632911205291748
1783696024024298800,7.493298828125,-1.3025152683258057,-0.7436937093734741,-0.1718304604291916
1783696024034262800,7.5032626953125,-1.3156583309173584,-0.7620543241500854,-0.0745515376329422
1783696024044225800,7.513225830078125,-1.3288811445236206,-0.7607293725013733,0.016081953421235085
1783696024054189600,7.523189453125,-1.340542197227478,-0.7401942014694214,0.0852377712726593
1783696024064153600,7.533153564453125,-1.3382092714309692,-0.7001945376396179,0.12536148726940155
1783696024074117600,7.54311767578125,-1.3233543634414673,-0.6479740738868713,0.1449120193719864
1783696024084080600,7.55308056640625,-1.302376389503479,-0.6121801137924194,0.1403963714838028
1783696024094044700,7.563044677734375,-1.286030888557434,-0.604191780090332,0.11354635655879974
1783696024104008700,7.5730087890625,-1.2774478197097778,-0.6553985476493835,0.0578085221350193
1783696024113972700,7.58297265625,-1.2811899185180664,-0.749979555606842,-0.010299077257514
1783696024123935700,7.592935791015625,-1.2910988330841064,-0.8519653081893921,-0.08664098381996155
1783696024133899800,7.602899658203125,-1.304626226425171,-0.9080418944358826,-0.1663479506969452
1783696024143863600,7.612863525390625,-1.3204216957092285,-0.9115013480186462,-0.24067305028438568
1783696024153827600,7.62282763671875,-1.3402018547058105,-0.8915678262710571,-0.3075660169124603
1783696024163790600,7.63279052734375,-1.3582911491394043,-0.8674095273017883,-0.36199596524238586
1783696024173754600,7.642754638671875,-1.36825692653656,-0.8373106718063354,-0.3973805904388428
1783696024183718700,7.65271875,-1.3657587766647339,-0.8025609254837036,-0.4062635898590088
1783696024193682700,7.6626826171875,-1.348554015159607,-0.7593777775764465,-0.3811756670475006
1783696024203646700,7.672646728515625,-1.317600965499878,-0.6899808645248413,-0.3173660635948181
1783696024213609700,7.682609619140625,-1.277142882347107,-0.635553240776062,-0.228624165058136
1783696024223574000,7.692573974609375,-1.2296669483184814,-0.6126881241798401,-0.1285790652036667
1783696024233537800,7.702537841796875,-1.1833518743515015,-0.6068293452262878,-0.024705423042178154
1783696024243501800,7.712501708984375,-1.1524163484573364,-0.6114214062690735,0.06968366354703903
1783696024253464800,7.72246484375,-1.1371182203292847,-0.6249009370803833,0.14303679764270782
1783696024263428900,7.732428955078125,-1.1402194499969482,-0.6552931666374207,0.18037031590938568
1783696024273393000,7.742392822265625,-1.1469987630844116,-0.6784262657165527,0.17342759668827057
1783696024283357000,7.75235693359375,-1.1559480428695679,-0.6972777247428894,0.12130073457956314
1783696024293320000,7.76231982421875,-1.1645361185073853,-0.7093372344970703,0.052187129855155945
1783696024303284000,7.772283935546875,-1.1689649820327759,-0.7335895895957947,-0.022965943440794945
1783696024313248000,7.782248046875,-1.1777979135513306,-0.7602571845054626,-0.08749617636203766
1783696024323212000,7.7922119140625,-1.1857681274414062,-0.773378312587738,-0.1299634724855423
1783696024333175000,7.802175048828125,-1.191405177116394,-0.7648340463638306,-0.16094927489757538
1783696024343138800,7.812138916015625,-1.1936651468276978,-0.7364304065704346,-0.1682647168636322
1783696024353102800,7.822102783203125,-1.1916996240615845,-0.704342782497406,-0.16395899653434753
1783696024363067000,7.83206689453125,-1.1824471950531006,-0.6652994751930237,-0.1447504162788391
1783696024373030000,7.84202978515625,-1.1671969890594482,-0.6305318474769592,-0.11887025833129883
1783696024382994000,7.851993896484375,-1.1490590572357178,-0.60625821352005,-0.09126659482717514
1783696024392958000,7.8619580078125,-1.1238834857940674,-0.596246063709259,-0.06667980551719666
1783696024402922000,7.871921875,-1.1043965816497803,-0.5982189178466797,-0.044295404106378555
1783696024412886000,7.881885986328125,-1.084077000617981,-0.6086565256118774,-0.018796667456626892
1783696024422849000,7.89184912109375,-1.067731261253357,-0.6162148118019104,0.005974991712719202
1783696024432813000,7.90181298828125,-1.0574110746383667,-0.6342175006866455,0.026488957926630974
1783696024442776800,7.91177685546875,-1.0470668077468872,-0.6529924869537354,0.05311497673392296
1783696024452739800,7.92173974609375,-1.0426068305969238,-0.6676497459411621,0.08484408259391785
1783696024462703900,7.931703857421875,-1.033111333847046,-0.6713507175445557,0.12407618016004562
1783696024472668000,7.94166796875,-1.0209013223648071,-0.6514236330986023,0.1719173640012741
1783696024482632000,7.9516318359375,-1.0005888938903809,-0.6107057332992554,0.22711430490016937
1783696024492596000,7.961595947265625,-0.9705876708030701,-0.5536988973617554,0.28343743085861206
1783696024502559000,7.97155908203125,-0.9268471598625183,-0.48353391885757446,0.33916595578193665
1783696024512523000,7.98152294921875,-0.8774067759513855,-0.3900044858455658,0.3924019932746887
1783696024522487000,7.991487060546875,-0.8298576474189758,-0.28182581067085266,0.4395625591278076
1783696024532450800,8.001450927734375,-0.775345504283905,-0.189107745885849,0.4764385223388672
1783696024542413800,8.011413818359374,-0.727155327796936,-0.1534930169582367,0.49276289343833923
1783696024552377900,8.0213779296875,-0.7034811973571777,-0.19780531525611877,0.4835863411426544
1783696024562342000,8.031341796875,-0.708376407623291,-0.2861519455909729,0.4524127244949341
1783696024572306000,8.041305908203125,-0.7384436130523682,-0.37992343306541443,0.4045603275299072
1783696024582269000,8.05126904296875,-0.7830893993377686,-0.4543244242668152,0.34305357933044434
1783696024592233000,8.06123291015625,-0.8288365602493286,-0.49122118949890137,0.28261637687683105
1783696024602197000,8.071197021484375,-0.8543943762779236,-0.5119369029998779,0.23512397706508636
1783696024612161000,8.0811611328125,-0.8649585247039795,-0.5237448215484619,0.2061532437801361
1783696024622124000,8.0911240234375,-0.8621968030929565,-0.5077195167541504,0.19061291217803955
1783696024632088000,8.101088134765625,-0.84442138671875,-0.48097822070121765,0.1813848465681076
1783696024642051800,8.1110517578125,-0.8220588564872742,-0.47737520933151245,0.14828388392925262
1783696024652015900,8.121015869140624,-0.8046819567680359,-0.510516345500946,0.09102082997560501
1783696024661979000,8.130978759765625,-0.7970820665359497,-0.5577025413513184,0.016294660046696663
1783696024671943000,8.14094287109375,-0.7923135161399841,-0.593244194984436,-0.06653115898370743
1783696024681907000,8.150906982421875,-0.7797487378120422,-0.5817185640335083,-0.15192435681819916
1783696024691871000,8.16087109375,-0.7685005068778992,-0.5422452688217163,-0.2236529290676117
1783696024701835000,8.1708349609375,-0.7580987811088562,-0.47838348150253296,-0.2701517343521118
1783696024711798000,8.180798095703125,-0.7396316528320312,-0.3768351972103119,-0.2840534448623657
1783696024721762000,8.190761962890624,-0.7139380574226379,-0.26818835735321045,-0.25934678316116333
1783696024731725800,8.200725830078126,-0.6734078526496887,-0.16262516379356384,-0.2007969617843628
1783696024741689900,8.21068994140625,-0.6306217312812805,-0.07257862389087677,-0.11554410308599472
1783696024751652900,8.22065283203125,-0.584636926651001,-0.006542977411299944,-0.00497030932456255
1783696024761617000,8.230616943359376,-0.5434111952781677,0.02130170352756977,0.09994997829198837
1783696024771581000,8.240580810546875,-0.5096328854560852,0.008288347162306309,0.176240012049675
1783696024781545000,8.250544921875,-0.4981362819671631,-0.03927624225616455,0.22556574642658234
1783696024791508000,8.260508056640624,-0.4969816207885742,-0.11317463964223862,0.24307450652122498
1783696024801472000,8.270471923828126,-0.5116734504699707,-0.2055748850107193,0.23837003111839294
1783696024811436000,8.28043603515625,-0.5287553668022156,-0.28410452604293823,0.2263568639755249
1783696024821399800,8.29039990234375,-0.5438956618309021,-0.3274078071117401,0.2138061821460724
1783696024831363000,8.300363037109374,-0.5652270317077637,-0.3454277515411377,0.20166447758674622
1783696024841326800,8.310326904296875,-0.5914045572280884,-0.36541691422462463,0.1792300045490265
1783696024851291000,8.320290771484375,-0.6152192950248718,-0.3871838450431824,0.14093628525733948
1783696024861255000,8.3302548828125,-0.631930410861969,-0.4074915051460266,0.08922436088323593
1783696024871218000,8.340218017578126,-0.6463623046875,-0.42417284846305847,0.025912705808877945
1783696024881182000,8.350181884765625,-0.6523696184158325,-0.43593284487724304,-0.029256273061037064
1783696024891146000,8.36014599609375,-0.6633440256118774,-0.4302917718887329,-0.06260818243026733
1783696024901110000,8.370110107421874,-0.6764062643051147,-0.4214516878128052,-0.06966768950223923
1783696024911073000,8.380072998046876,-0.6948469877243042,-0.4081289768218994,-0.06089133396744728
1783696024921037000,8.390037109375,-0.7081870436668396,-0.3649085462093353,-0.038294944912195206
1783696024931000800,8.400000732421875,-0.7132754325866699,-0.29854387044906616,0.0057731312699615955
1783696024940964900,8.40996484375,-0.7148149609565735,-0.2068038433790207,0.05501125007867813
1783696024950928000,8.419927978515625,-0.7083242535591125,-0.108333520591259,0.10990506410598755
1783696024960892000,8.429891845703125,-0.699312150478363,-0.017210805788636208,0.16220848262310028
1783696024970856000,8.43985595703125,-0.6883033514022827,0.048344455659389496,0.20068670809268951
1783696024980820000,8.449820068359376,-0.68199223279953,0.07295605540275574,0.21052202582359314
1783696024990784000,8.459783935546875,-0.6760891079902649,0.053282301872968674,0.19823148846626282
1783696025000747000,8.4697470703125,-0.6788537502288818,0.008598189800977707,0.17562738060951233
1783696025010711000,8.4797109375,-0.6993427276611328,-0.07035843282938004,0.15281176567077637
1783696025020674800,8.4896748046875,-0.7331305146217346,-0.171105295419693,0.1343722939491272
1783696025030638800,8.499638916015625,-0.7780340313911438,-0.2555500566959381,0.1172129213809967
1783696025040601900,8.509601806640624,-0.8263914585113525,-0.3275715112686157,0.10226273536682129
1783696025050566000,8.51956591796875,-0.8729599118232727,-0.3890415132045746,0.09166863560676575
1783696025060530000,8.529530029296875,-0.9201623201370239,-0.441085547208786,0.0818876400589943
1783696025070494000,8.539493896484375,-0.961494505405426,-0.4875829517841339,0.07520803809165955
1783696025080457000,8.54945703125,-0.9957715272903442,-0.5385777354240417,0.06859301030635834
1783696025090421000,8.5594208984375,-1.0266448259353638,-0.5824163556098938,0.06571025401353836
1783696025100385000,8.569385009765625,-1.060041904449463,-0.6177831292152405,0.06720562279224396
1783696025110349000,8.57934912109375,-1.0925413370132446,-0.6459665298461914,0.06677918136119843
1783696025120312000,8.58931201171875,-1.129791259765625,-0.6556316614151001,0.06392534077167511
1783696025130275800,8.59927587890625,-1.1615551710128784,-0.6626990437507629,0.05345318093895912
1783696025140240000,8.609239990234375,-1.183627963066101,-0.6658660769462585,0.044154755771160126
1783696025150204000,8.619203857421875,-1.1960351467132568,-0.6639721989631653,0.031517352908849716
1783696025160167000,8.6291669921875,-1.2047393321990967,-0.655109167098999,0.017650805413722992
1783696025170131000,8.639130859375,-1.2150640487670898,-0.6446789503097534,-0.0040344432927668095
1783696025180095000,8.649094970703125,-1.2220817804336548,-0.646210789680481,-0.028561091050505638
1783696025190059000,8.65905908203125,-1.2302731275558472,-0.6618905663490295,-0.047641269862651825
1783696025200022000,8.66902197265625,-1.2398045063018799,-0.6757534146308899,-0.04368354380130768
1783696025209986000,8.678986083984375,-1.2480409145355225,-0.6869648098945618,-0.019021375104784966
1783696025219949800,8.68894970703125,-1.2598237991333008,-0.701513946056366,0.011395120061933994
1783696025229913600,8.69891357421875,-1.2728010416030884,-0.7231292128562927,0.042527925223112106
1783696025239877600,8.708877685546875,-1.2844736576080322,-0.7472939491271973,0.06377861648797989
1783696025249840600,8.718840576171875,-1.2969940900802612,-0.7613219618797302,0.07947596907615662
1783696025259804700,8.7288046875,-1.3038301467895508,-0.7527703046798706,0.08821938931941986
1783696025269768700,8.738768798828126,-1.295090913772583,-0.7270443439483643,0.09671144932508469
1783696025279731700,8.748731689453125,-1.2785383462905884,-0.701578676700592,0.1022108793258667
1783696025289695700,8.75869580078125,-1.2674964666366577,-0.6807830333709717,0.10494592785835266
1783696025299659800,8.76865966796875,-1.2584139108657837,-0.6700542569160461,0.1028905063867569
1783696025309623800,8.778623779296876,-1.2466645240783691,-0.663093626499176,0.09954792261123657
1783696025319587600,8.788587646484375,-1.2371128797531128,-0.6510737538337708,0.09472573548555374
1783696025329550800,8.79855078125,-1.2305055856704712,-0.6487396955490112,0.08348705619573593
1783696025339514600,8.8085146484375,-1.2320947647094727,-0.6543791890144348,0.0787476897239685
1783696025349478700,8.818478759765625,-1.2541266679763794,-0.6478031277656555,0.08247629553079605
1783696025359442700,8.828442626953125,-1.2827173471450806,-0.6318310499191284,0.09931333363056183
1783696025369405700,8.83840576171875,-1.3073769807815552,-0.6191717386245728,0.11217886954545975
1783696025379369700,8.84836962890625,-1.3235594034194946,-0.607046902179718,0.11141454428434372
1783696025389333800,8.858333740234375,-1.3431286811828613,-0.5962768793106079,0.10339786857366562
1783696025399297800,8.8682978515625,-1.357204794883728,-0.574688196182251,0.10150063037872314
1783696025409260800,8.8782607421875,-1.3620688915252686,-0.5500006079673767,0.10207641869783401
1783696025419224800,8.888224853515625,-1.3702759742736816,-0.525849461555481,0.10966189950704575
1783696025429188600,8.898188720703125,-1.3816698789596558,-0.5124332904815674,0.11463651806116104
1783696025439152600,8.908152587890624,-1.3984205722808838,-0.5095565319061279,0.11086893826723099
1783696025449115600,8.91811572265625,-1.4206079244613647,-0.5164538621902466,0.10072585940361023
1783696025459079700,8.92807958984375,-1.4319511651992798,-0.5211452841758728,0.08313461393117905
1783696025469043700,8.938043701171875,-1.4405152797698975,-0.5264856815338135,0.068854920566082
1783696025479007700,8.9480078125,-1.4469712972640991,-0.5377463102340698,0.062326446175575256
1783696025488970800,8.957970703125,-1.4492558240890503,-0.5610748529434204,0.05673772096633911
1783696025498934800,8.967934814453125,-1.44589364528656,-0.5883051753044128,0.059465862810611725
1783696025508898800,8.97789892578125,-1.4471943378448486,-0.6253234148025513,0.0616459958255291
1783696025518862800,8.98786279296875,-1.446146845817566,-0.6809688806533813,0.06027393415570259
1783696025528825900,8.997825927734375,-1.4455572366714478,-0.7322742938995361,0.06463505327701569
1783696025538789600,9.00778955078125,-1.4500060081481934,-0.7583873867988586,0.07174143195152283
1783696025548753700,9.017753662109374,-1.4481395483016968,-0.7493748068809509,0.09130072593688965
1783696025558717700,9.0277177734375,-1.4399350881576538,-0.7251166105270386,0.11814139783382416
1783696025568681700,9.037681640625,-1.4337098598480225,-0.7002949714660645,0.1495145708322525
1783696025578644700,9.047644775390625,-1.4269827604293823,-0.692940890789032,0.17657256126403809
1783696025588608800,9.05760888671875,-1.4194886684417725,-0.7048972249031067,0.20063164830207825
1783696025598572800,9.06757275390625,-1.4096696376800537,-0.7065848708152771,0.2230069935321808
1783696025608536800,9.077536865234375,-1.393918752670288,-0.7048748135566711,0.2496384084224701
1783696025618499800,9.087499755859374,-1.3799004554748535,-0.7264314889907837,0.26298537850379944
1783696025628463900,9.0974638671875,-1.3632069826126099,-0.753044068813324,0.2660490870475769
1783696025638427600,9.107427734375,-1.3504490852355957,-0.7629051804542542,0.2556300163269043
1783696025648391700,9.1173916015625,-1.342570185661316,-0.7782275676727295,0.23394374549388885
1783696025658354700,9.127354736328124,-1.3454970121383667,-0.8110781908035278,0.20050562918186188
1783696025668318700,9.137318603515626,-1.348049283027649,-0.8587736487388611,0.16957247257232666
1783696025678282800,9.14728271484375,-1.3502323627471924,-0.9209230542182922,0.15040463209152222
1783696025688246800,9.157246826171875,-1.3533421754837036,-0.9708402156829834,0.14462901651859283
1783696025698209800,9.167209716796876,-1.349424958229065,-0.9977014064788818,0.14863386750221252
1783696025708173800,9.177173828125,-1.3436907529830933,-1.0352243185043335,0.15086349844932556
1783696025718137900,9.187137939453125,-1.3456131219863892,-1.0791022777557373,0.14578963816165924
1783696025728101600,9.1971015625,-1.341550350189209,-1.1068722009658813,0.13544978201389313
1783696025738064600,9.207064697265626,-1.334833025932312,-1.106619954109192,0.13108620047569275
1783696025748028700,9.217028564453125,-1.335626244544983,-1.0782862901687622,0.1396205574274063
1783696025757992700,9.22699267578125,-1.3279949426651,-1.0454612970352173,0.16611768305301666
1783696025767956700,9.236956787109374,-1.3306658267974854,-1.0172003507614136,0.19522343575954437
1783696025777919500,9.24691943359375,-1.34139084815979,-1.0082111358642578,0.21838361024856567
1783696025787883800,9.2568837890625,-1.3486509323120117,-1.0279948711395264,0.21788138151168823
1783696025797847800,9.266847900390625,-1.355029821395874,-1.0609278678894043,0.1983870416879654
1783696025807811800,9.276811767578126,-1.3623548746109009,-1.0857025384902954,0.17669957876205444
1783696025817774600,9.286774658203125,-1.3662034273147583,-1.0849689245224,0.15980076789855957
1783696025827739000,9.29673876953125,-1.3728864192962646,-1.059661626815796,0.14697661995887756
1783696025837702700,9.30670263671875,-1.3747018575668335,-1.0163304805755615,0.13190020620822906
1783696025847666700,9.316666748046876,-1.3793377876281738,-0.9709814190864563,0.1038282960653305
1783696025857629400,9.32662939453125,-1.3820185661315918,-0.9190503358840942,0.07064477354288101
1783696025867593500,9.336593505859375,-1.377850890159607,-0.8619146347045898,0.028634127229452133
1783696025877557800,9.346557861328124,-1.3662031888961792,-0.8037322759628296,-0.01285179890692234
1783696025887521800,9.356521728515625,-1.3509581089019775,-0.7471219897270203,-0.04446546360850334
1783696025897484500,9.366484619140625,-1.32904052734375,-0.7016279697418213,-0.06191076710820198
1783696025907448600,9.376448486328124,-1.3020535707473755,-0.6659821271896362,-0.06209992989897728
1783696025917412900,9.386412841796876,-1.275140404701233,-0.6371232867240906,-0.04844004660844803
1783696025927376600,9.396376708984375,-1.2463716268539429,-0.5958701372146606,-0.024558577686548233
1783696025937340700,9.406340576171875,-1.2124967575073242,-0.5480858683586121,0.006935698911547661
1783696025947303400,9.416303466796874,-1.1769980192184448,-0.522620439529419,0.03878617659211159
1783696025957267700,9.426267822265626,-1.1474236249923706,-0.5283473134040833,0.06425478309392929
1783696025967231700,9.436231689453125,-1.1102781295776367,-0.5031205415725708,0.0997244343161583
1783696025977195800,9.44619580078125,-1.0677554607391357,-0.4902660548686981,0.1410987675189972
1783696025987158500,9.456158447265626,-1.0252071619033813,-0.4976610243320465,0.1788010150194168
1783696025997122600,9.46612255859375,-0.980928897857666,-0.5115728378295898,0.21665331721305847
1783696026007086800,9.4760869140625,-0.9309290051460266,-0.5161861777305603,0.24677938222885132
1783696026017050600,9.486050537109374,-0.880771279335022,-0.5073269009590149,0.2717433273792267
1783696026027013600,9.496013671875,-0.8351879715919495,-0.4901388883590698,0.27903541922569275
1783696026036977400,9.505977294921875,-0.8001517057418823,-0.4641384482383728,0.28071320056915283
1783696026046941700,9.515941650390625,-0.7712498903274536,-0.43927863240242004,0.2865349352359772
1783696026056905700,9.52590576171875,-0.7431173324584961,-0.404720664024353,0.30164942145347595
1783696026066868500,9.535868408203125,-0.7161597609519958,-0.354110985994339,0.3318389356136322
1783696026076832500,9.54583251953125,-0.6882109642028809,-0.30275192856788635,0.3669218122959137
1783696026086796800,9.555796875,-0.6609316468238831,-0.2590172588825226,0.39765894412994385
1783696026096760800,9.5657607421875,-0.6346526145935059,-0.23181281983852386,0.4140746593475342
1783696026106723600,9.5757236328125,-0.6081594228744507,-0.2047034651041031,0.4148038923740387
1783696026116687600,9.5856875,-0.5905199646949768,-0.16812627017498016,0.40796753764152527
1783696026126651600,9.595651611328124,-0.5726045966148376,-0.15444418787956238,0.3828541338443756
1783696026136615700,9.60561572265625,-0.5637088418006897,-0.21573789417743683,0.34097298979759216
1783696026146578400,9.615578369140625,-0.56218421459198,-0.3418090045452118,0.2895190417766571
1783696026156542500,9.62554248046875,-0.5695343017578125,-0.4566250741481781,0.24718141555786133
1783696026166506500,9.635506591796876,-0.5830427408218384,-0.509345293045044,0.2292787730693817
1783696026176470800,9.645470703125,-0.5978502035140991,-0.5020554661750793,0.23463092744350433
1783696026186433500,9.65543359375,-0.6059023141860962,-0.4706549346446991,0.2630802392959595
1783696026196397600,9.6653974609375,-0.6090530753135681,-0.44417351484298706,0.2876169979572296
1783696026206361600,9.675361572265626,-0.5991314649581909,-0.3581441342830658,0.3142130672931671
1783696026216325600,9.68532568359375,-0.5808461904525757,-0.22028400003910065,0.33388370275497437
1783696026226288600,9.69528857421875,-0.5606130957603455,-0.10882538557052612,0.3396265506744385
1783696026236252700,9.705252685546874,-0.5331586003303528,-0.04095073044300079,0.3354480564594269
1783696026246216400,9.715216552734375,-0.5070034265518188,-0.00991258304566145,0.32429346442222595
1783696026256180500,9.725180419921875,-0.4818970263004303,-0.008090182207524776,0.3097153306007385
1783696026266144500,9.73514453125,-0.4570312201976776,-0.018622249364852905,0.2900031507015228
1783696026276107500,9.745107421875,-0.4355171322822571,-0.030956149101257324,0.2668698728084564
1783696026286071600,9.755071533203125,-0.42148688435554504,-0.04005751758813858,0.24008966982364655
1783696026296035600,9.76503564453125,-0.40940144658088684,-0.045259468257427216,0.2091810256242752
1783696026305999600,9.77499951171875,-0.38879770040512085,-0.056409839540719986,0.1692618876695633
1783696026315962600,9.784962646484376,-0.36549344658851624,-0.08570593595504761,0.12537485361099243
1783696026325926700,9.7949267578125,-0.33090221881866455,-0.12684571743011475,0.08723849803209305
1783696026335890400,9.804890380859375,-0.2855999767780304,-0.16480934619903564,0.06374435126781464
1783696026345854500,9.8148544921875,-0.23282374441623688,-0.18972638249397278,0.04569888487458229
1783696026355817500,9.8248173828125,-0.18423624336719513,-0.1881742924451828,0.028512444347143173
1783696026365781500,9.834781494140625,-0.13341760635375977,-0.16484317183494568,0.019427597522735596
1783696026375745500,9.84474560546875,-0.08479200303554535,-0.13646799325942993,0.03796665742993355
1783696026385709600,9.85470947265625,-0.04564759507775307,-0.11017102003097534,0.0749659389257431
1783696026395672600,9.864672607421875,-0.006071425974369049,-0.08639192581176758,0.1241217702627182
1783696026405636600,9.87463671875,0.02811024710536003,-0.0701889842748642,0.17013666033744812
1783696026415600600,9.8846005859375,0.05398258939385414,-0.05928334221243858,0.1961357742547989
1783696026425564400,9.894564453125,0.07378193736076355,-0.05388912931084633,0.18709829449653625
1783696026435527700,9.904527587890625,0.08948739618062973,-0.05509527772665024,0.15103375911712646
1783696026445491500,9.914491455078124,0.1040816456079483,-0.05278501287102699,0.09955836832523346
1783696026455455500,9.92445556640625,0.12090935558080673,-0.059727076441049576,0.04866988584399223
1783696026465419500,9.93441943359375,0.13916422426700592,-0.08644469827413559,0.004984618164598942
1783696026475382500,9.944382568359375,0.15457673370838165,-0.12052410840988159,-0.04005422815680504
1783696026485346600,9.9543466796875,0.16473089158535004,-0.14899547398090363,-0.08161571621894836
1783696026495310600,9.964310546875,0.1728639155626297,-0.17393837869167328,-0.11475662887096405
1783696026505274600,9.974274658203125,0.17338572442531586,-0.190691739320755,-0.1389465481042862
1783696026515237600,9.984237548828125,0.16695871949195862,-0.18989385664463043,-0.15122398734092712
1783696026525201700,9.99420166015625,0.165191188454628,-0.15651486814022064,-0.15298140048980713
1783696026535165400,10.00416552734375,0.1648460328578949,-0.10532598197460175,-0.15388287603855133
1783696026545129500,10.01412939453125,0.16263733804225922,-0.049986325204372406,-0.15706956386566162
1783696026555092500,10.024092529296874,0.15206006169319153,-0.0047890194691717625,-0.1606011837720871
1783696026565056500,10.034056396484376,0.14146625995635986,0.029853416606783867,-0.16213566064834595
1783696026575020500,10.0440205078125,0.1422811895608902,0.05846055969595909,-0.15856729447841644
1783696026584984600,10.053984619140625,0.1522393673658371,0.09023654460906982,-0.14599859714508057
1783696026594947600,10.063947509765624,0.1676550656557083,0.12264268845319748,-0.11965087056159973
1783696026604911600,10.07391162109375,0.18595831096172333,0.15788519382476807,-0.0926557332277298
1783696026614875600,10.083875732421875,0.2096812129020691,0.19139015674591064,-0.07469430565834045
1783696026624839400,10.09383935546875,0.2299143522977829,0.21977056562900543,-0.06754061579704285
1783696026634802700,10.103802734375,0.24803103506565094,0.25159239768981934,-0.0662069022655487
1783696026644766500,10.113766357421875,0.25107279419898987,0.2681945562362671,-0.06623641401529312
1783696026654730500,10.12373046875,0.24925759434700012,0.2616453170776367,-0.06252982467412949
1783696026664694500,10.133694580078124,0.2412925660610199,0.23094281554222107,-0.06030432507395744
1783696026674657500,10.143657470703126,0.22714772820472717,0.1966189295053482,-0.05368370562791824
1783696026684621600,10.15362158203125,0.20825140178203583,0.17099529504776,-0.04555302485823631
1783696026694585600,10.163585693359375,0.18236759305000305,0.16088168323040009,-0.048276107758283615
1783696026704549600,10.173549560546874,0.1716722995042801,0.14521381258964539,-0.06524238735437393
1783696026714512600,10.1835126953125,0.16508203744888306,0.14029788970947266,-0.0780029222369194
1783696026724476700,10.1934765625,0.14731945097446442,0.15999308228492737,-0.07776368409395218
1783696026734440400,10.2034404296875,0.1330031007528305,0.19196593761444092,-0.0637943372130394
1783696026744404500,10.213404541015626,0.1252649426460266,0.20328930020332336,-0.045294858515262604
1783696026754367500,10.223367431640625,0.1078806221485138,0.21280024945735931,-0.022018564864993095
1783696026764331500,10.23333154296875,0.08689481765031815,0.22502608597278595,0.010944264940917492
1783696026774295600,10.243295654296874,0.06164778769016266,0.22062495350837708,0.048538777977228165
1783696026784259600,10.253259521484376,0.040693189948797226,0.19726188480854034,0.09399167448282242
1783696026794223600,10.2632236328125,0.02935185097157955,0.17468786239624023,0.13790932297706604
1783696026804186600,10.2731865234375,0.032122232019901276,0.15284962952136993,0.17513807117938995
1783696026814150700,10.283150634765626,0.03317950665950775,0.13119573891162872,0.2054443210363388
1783696026824114700,10.29311474609375,0.03566852957010269,0.08698036521673203,0.2266802340745926
1783696026834078500,10.303078369140625,0.04131070524454117,0.02720971219241619,0.23215197026729584
1783696026844041500,10.31304150390625,0.04255083203315735,-0.02579202875494957,0.23014703392982483
1783696026854005500,10.323005615234376,0.03558347001671791,-0.06758368015289307,0.22616852819919586
1783696026863969500,10.332969482421875,0.029592538252472878,-0.0880921483039856,0.2264421135187149
1783696026873933600,10.34293359375,0.021017957478761673,-0.07743444293737411,0.23242144286632538
1783696026883896600,10.352896484375,0.013519457541406155,-0.030806798487901688,0.23535773158073425
1783696026893860600,10.362860595703125,0.010958295315504074,0.04450686648488045,0.22097906470298767
1783696026903824600,10.37282470703125,0.004668618086725473,0.10577081143856049,0.19125773012638092
1783696026913788700,10.38278857421875,-0.011388911865651608,0.11092216521501541,0.15551331639289856
1783696026923751700,10.392751708984376,-0.022487206384539604,0.014866163954138756,0.09376728534698486
1783696026933715500,10.402715576171875,-0.02420680969953537,-0.07628318667411804,0.02925940603017807
1783696026943679500,10.412679443359375,-0.022113606333732605,-0.1059633120894432,-0.01927361637353897
1783696026953643500,10.4226435546875,-0.009995157830417156,-0.09076278656721115,-0.07655847817659378
1783696026963606500,10.4326064453125,0.010411418974399567,-0.030156385153532028,-0.10743398219347
1783696026973570600,10.442570556640625,-0.00025161250960081816,0.031718965619802475,-0.07649204879999161
1783696026983534600,10.45253466796875,-0.0035684488248080015,0.030481860041618347,-0.044604942202568054
1783696026993498600,10.46249853515625,0.008820310235023499,0.037031903862953186,0.015972653403878212
1783696027003461600,10.472461669921875,0.0018868830520659685,-0.007531297393143177,0.08743386715650558
1783696027013425700,10.48242578125,-0.008562562055885792,-0.0631474182009697,0.14588013291358948
1783696027023389700,10.4923896484375,-0.015395515598356724,-0.1072155311703682,0.1574484258890152
1783696027033353500,10.502353515625,-0.02774006687104702,-0.12616710364818573,0.12147098779678345
1783696027043316500,10.51231640625,-0.04249069094657898,-0.11797554790973663,0.06275272369384766
1783696027053280500,10.522280517578125,-0.03613106161355972,-0.07743585109710693,0.026204301044344902
1783696027063244500,10.53224462890625,-0.028331400826573372,-0.07736069709062576,0.0026577021926641464
