time,seconds_elapsed,z,y,x
1783693647221783800,0.05678369140625,0.12131518011689185,0.029050920580513773,0.17837175000868738
1783693647231746800,0.066746826171875,0.19116320784687996,0.01136964487414807,0.1700529075399041
1783693647241709000,0.076708984375,0.23014263458251952,0.004786138297989964,0.15565752163641153
1783693647251672000,0.086672119140625,0.25101006604433057,0.003969780413806438,0.15879136268272995
1783693647261633800,0.0966337890625,0.26961890492439267,-0.012619316141679882,0.12447839338816702
1783693647271596800,0.1065966796875,0.25770050359368324,-0.029185799006558953,0.040213060183823104
1783693647281559000,0.11655908203125,0.18722937552928923,-0.047794528288766736,-0.020925883650779725
1783693647291522000,0.12652197265625,0.07941080584526061,-0.03331975700613111,-0.028022783109173176
1783693647301483800,0.13648388671875,-0.017599954098463058,-0.008341821485571563,-0.028936756148934362
1783693647311446800,0.14644677734375,-0.05628770441114902,0.005888363918848336,-0.05335391598157584
1783693647321409000,0.156408935546875,-0.09741524909138678,0.020732954894565045,-0.04962795426100492
1783693647331372000,0.1663720703125,-0.1305284141421318,0.019906367877312002,-0.03268573341891169
1783693647341333800,0.176333740234375,-0.1428454594016075,0.000591938011161983,-0.04925269120782613
1783693647351297000,0.186297119140625,-0.1598246512532234,-0.028222032008320092,-0.031902620217204095
1783693647361259000,0.196259033203125,-0.15366145244836807,-0.04749744503833353,-0.006730696494504809
1783693647371222000,0.206221923828125,-0.15460487077832222,-0.022065372542105614,0.02847944083549082
1783693647381183700,0.216183837890625,-0.14123042542040348,-0.003635799219086766,0.06118928578235209
1783693647391147000,0.22614697265625,-0.09870704246759414,-0.009484086855873465,0.09553769171647727
1783693647401109000,0.23610888671875,-0.08703297128677367,0.020735366047360003,0.14334347205162049
1783693647411072000,0.246072021484375,-0.09420856200456619,0.06520970040485262,0.13967808141186833
1783693647421034000,0.256033935546875,-0.07606441802680491,0.06754797062668949,0.1102636247485876
1783693647430997000,0.2659970703125,0.021875147199630737,0.0625888503819704,0.0746472447052598
1783693647440959000,0.275958984375,0.1273223115772009,0.03617858050335199,0.02924465305432677
1783693647450922000,0.285921875,0.1908130792349577,0.0029633067850023506,-0.005646043062955141
1783693647460884000,0.295884033203125,0.2234638874709606,-0.009866656432673334,-0.03975779069699347
1783693647470847000,0.305846923828125,0.2307698265701532,-0.02479925448540598,-0.03515409629382193
1783693647480808700,0.31580859375,0.15659925946593284,-0.024544183745793997,-0.06700747054181992
1783693647490771700,0.325771728515625,0.000029226094484329223,-0.010700148114748299,-0.09867650119885801
1783693647500734000,0.33573388671875,-0.16794482934474944,0.005030030056461692,-0.09569427051767707
1783693647510697000,0.345697021484375,-0.2804477574527263,0.019066702182777225,-0.11283047956191003
1783693647520658700,0.35565869140625,-0.29187282230854034,0.01190101180449128,-0.1053779715988785
1783693647530621700,0.36562158203125,-0.2871463783085346,-0.006852934634685516,-0.05511193863004446
1783693647540584000,0.375583984375,-0.2572194420784712,0.02440196226350963,-0.018234525674954056
1783693647550547000,0.385546875,-0.2052244664251804,0.027792627615109085,0.03862681390568614
1783693647560508700,0.3955087890625,-0.0744534756988287,0.02753963923472911,0.0987952322077006
1783693647570471700,0.4054716796875,0.004323708418011665,0.03294069456066936,0.15487097436860203
1783693647580434000,0.415433837890625,-0.03466390162408352,0.08859097785111517,0.15820800983682273
1783693647590397000,0.42539697265625,-0.042649055159091946,0.09788871182203292,0.16598711940571664
1783693647600359700,0.435359619140625,0.011323358047008514,0.07474686915483325,0.1459075503859669
1783693647610321700,0.44532177734375,0.06143383512794971,0.035595446853153405,0.10932546711564063
1783693647620284700,0.45528466796875,0.06612286972701549,0.0008070785991847514,0.032445129596069454
1783693647630247000,0.465246826171875,0.10412263777554034,-0.027881255746632812,-0.03537380345910787
1783693647640209700,0.475209716796875,0.14952537555694578,-0.04359203509762883,-0.07075549796372652
1783693647650171600,0.485171630859375,0.12693185095489024,-0.02546739953793585,-0.09485263206176459
1783693647660135000,0.495135009765625,0.0473784217685461,0.00006214198339730501,-0.10428710762225091
1783693647670097000,0.505096923828125,-0.04676701187193393,0.05421400340963155,-0.09187412770763038
1783693647680059600,0.5150595703125,-0.06608896745741367,0.08191778369750827,-0.0837158095628023
1783693647690021600,0.525021728515625,-0.08260112631916999,0.06009396482631564,-0.042860871278867126
1783693647699985000,0.53498486328125,-0.11052724412083625,0.06514715656265616,-0.010957666539773344
1783693647709947000,0.54494677734375,-0.10795943945944309,0.03733293817024678,-0.016260668318718672
1783693647719910000,0.554909912109375,-0.09317278921604157,-0.0021049363899976014,0.0010324848528951405
1783693647729872000,0.564871826171875,-0.077367901840806,-0.045397988541051745,-0.0020008914936333892
1783693647739835000,0.5748349609375,-0.040484570601582524,-0.03883347892630845,0.01854381081983447
1783693647749796900,0.584796875,-0.006663549542427063,-0.021776363000273705,0.040298108118772505
1783693647759760000,0.594759765625,0.00275017549097538,-0.011426087769120932,0.07952602972276508
1783693647769721900,0.604721923828125,-0.01633329516351223,-0.009207973328232765,0.06549589693509042
1783693647779684900,0.614684814453125,-0.024345336705446242,0.02182528017591685,0.06258446646779775
1783693647789646800,0.624646728515625,-0.014117372679710386,0.01603011096585542,0.08651099323928356
1783693647799609900,0.63460986328125,0.04219897330403328,0.018453575253114102,0.11609415753297507
1783693647809571800,0.64457177734375,0.08568097215592861,0.025690467704087495,0.15517952886112032
1783693647819534800,0.654534912109375,0.04273439535498619,0.0427810475083068,0.1627678650982678
1783693647829496800,0.664496826171875,-0.03169628399014473,0.042974231992848215,0.12559811813309787
1783693647839459800,0.6744599609375,-0.15797463947236537,0.05627784060426056,0.052270139332860704
1783693647849421800,0.684421875,-0.2894990789145231,0.06696651747692375,0.0002651537422090769
1783693647859384800,0.694384765625,-0.31763679364025593,0.03894800868406892,-0.05456782181598246
1783693647869346800,0.704346923828125,-0.26559973241090773,-0.04461571558956057,-0.12222995687425135
1783693647879309800,0.714309814453125,-0.16079904924333094,-0.0730379098124802,-0.10234656801372766
1783693647889271800,0.724271728515625,-0.03758709559440612,-0.06442596614863723,-0.060106824307888745
1783693647899234800,0.73423486328125,0.043564416438341136,-0.0422504477629438,0.023970365913212298
1783693647909196800,0.74419677734375,0.035944004562497134,0.016116181814111768,0.07423259948976338
1783693647919159800,0.754159912109375,0.017879355561733246,0.08320570461619645,0.1107828263171017
1783693647929121800,0.764121826171875,0.03592997603714466,0.0831932835260406,0.16145539426021277
1783693647939084800,0.774084716796875,0.07781915273964404,0.06831782248802483,0.15107618519552052
1783693647949046800,0.784046875,0.10019231258928775,0.04810439795553684,0.10600392147749661
1783693647959009800,0.794009765625,0.10684884786903857,0.02206398430261761,0.055811465201526876
1783693647968971800,0.8039716796875,0.11464753892123698,-0.026595088393613693,-0.00593362783268094
1783693647978934800,0.813934814453125,0.06996084045469761,-0.04860463909525424,-0.0475768669500947
1783693647988896800,0.823896728515625,0.04325578888058662,-0.07164820901975036,-0.06682071579806506
1783693647998859800,0.83385986328125,-0.008283259698748588,-0.060184565719217056,-0.06590637743212283
1783693648008821800,0.84382177734375,-0.10071545968055724,-0.037507052628137166,-0.0354671808309853
1783693648018784800,0.85378466796875,-0.20025193870961666,0.001245579614304006,-0.016511939666047692
1783693648028746800,0.863746826171875,-0.22311258981525897,0.010366824507154523,0.04406484024114907
1783693648038709800,0.873709716796875,-0.2020844148337841,0.013574899833463131,0.05932794888988137
1783693648048671700,0.883671630859375,-0.20924539250433444,0.019013328027725217,0.0670505059659481
1783693648058634800,0.893634765625,-0.1889122140496969,0.036446181930974125,0.08491276426240801
1783693648068596700,0.9035966796875,-0.1193961947530508,0.049575383823551235,0.10872742815725504
1783693648078560000,0.91356005859375,-0.04635317037403583,0.04239296150617301,0.12329517495296895
1783693648088521700,0.923521728515625,-0.03993687359094619,0.04235650195330381,0.10341996939890086
1783693648098484700,0.933484619140625,-0.07332710201740264,0.05380955079458653,0.05771503380052745
1783693648108446700,0.94344677734375,-0.07963876938223838,0.037593561867810786,0.054873745959997174
1783693648118410000,0.953409912109375,-0.03270692233741283,0.018943514194525776,0.022146949878334998
1783693648128371700,0.963371826171875,-0.031689854249358176,0.0010288315910845995,-0.0358033539827913
1783693648138334700,0.973334716796875,-0.011318097350001334,0.00991151848770678,-0.0798022893808782
1783693648148297000,0.983296875,0.04126315375864505,0.006733692169189453,-0.06396561862789094
1783693648158260000,0.993260009765625,0.08342354861795902,0.008210852049663663,-0.061336512233316896
1783693648168221700,1.0032216796875,0.06222469324469566,0.02433890696465969,-0.08496843997240067
1783693648178184700,1.013184814453125,0.05756546926200389,0.03969663509428501,-0.06122910633608698
1783693648188147000,1.02314697265625,0.06492459985315799,0.005161291753314435,-0.05858122217580676
1783693648198110000,1.03310986328125,0.06961071184277534,-0.014629121594130993,-0.06153583419770002
1783693648208071700,1.04307177734375,0.09224924463033675,-0.05320091737695038,-0.05385653174147009
1783693648218034700,1.05303466796875,0.02690729614794254,-0.03483940432146192,-0.03022197365388274
1783693648227997000,1.062996826171875,-0.08122282370328902,-0.022085282818973064,-0.03727759125381708
1783693648237960000,1.0729599609375,-0.1428852068901062,-0.017694062122702598,-0.004592369291558861
1783693648247921700,1.082921630859375,-0.18577800767719743,-0.00009140461049973964,0.05429148909263312
1783693648257884700,1.092884765625,-0.19667408022284508,0.010713336389884353,0.06967245196737348
1783693648267847000,1.102846923828125,-0.18964812710881232,0.04263382105734199,0.09045490855947136
1783693648277810000,1.112809814453125,-0.163510646289587,0.0582527208738029,0.09491934062242507
1783693648287771600,1.122771728515625,-0.15252981806993485,0.06641538640018552,0.07990129277594388
1783693648297734700,1.132734619140625,-0.13359423145353794,0.07591200394406915,0.04167209988571703
1783693648307697000,1.14269677734375,-0.11438041241765022,0.05804148927591741,0.0654586336646229
1783693648317660000,1.152659912109375,-0.1253308454990387,0.08095967925507574,0.04405950647890568
1783693648327621600,1.16262158203125,-0.1419482183009386,0.03779007082059979,-0.029447555215284228
1783693648337584600,1.172584716796875,-0.10106441924870013,-0.024088439334928987,-0.0775771606773138
1783693648347547000,1.182546875,-0.03136836721003056,-0.05887980326358228,-0.08495433838181198
1783693648357510000,1.192510009765625,0.07029869410693645,-0.04999295164849609,-0.06513656210340558
1783693648367471600,1.2024716796875,0.13630465945601464,-0.0442365800788626,-0.031058497543260455
1783693648377434600,1.2124345703125,0.20719372067153452,-0.035468094146437944,-0.01901530078910291
1783693648387396900,1.22239697265625,0.21465455807149408,-0.0027022446960210797,0.04873685064017772
1783693648397359900,1.23235986328125,0.170073658066988,0.057240036699920886,0.09313128816187381
1783693648407321600,1.242321533203125,0.08900281005501746,0.08672456292472779,0.09954846172779798
1783693648417284600,1.25228466796875,-0.04336158734261989,0.08762574954815208,0.07163688390813767
1783693648427246800,1.262246826171875,-0.10299392600655555,0.08553557233586907,0.042477351853996516
1783693648437209900,1.2722099609375,-0.14084230288565158,0.06379059085454791,0.019107070725783704
1783693648447171600,1.282171630859375,-0.18384324022233486,0.05242288220915943,-0.0013496610432863236
1783693648457134800,1.292134765625,-0.19630758499801157,0.04947605163492262,-0.04977634975574911
1783693648467096800,1.302096923828125,-0.1960498108446598,0.021117679895833134,-0.08855031704716385
1783693648477059600,1.3120595703125,-0.12373276265263557,-0.00044635552801191805,-0.060824544123187656
1783693648487021600,1.322021484375,-0.05104629662632942,-0.0036282004345208406,-0.02204597372189164
1783693648496984800,1.33198486328125,-0.027919688060879706,-0.0030114933082833885,-0.013110752920433878
1783693648506946600,1.341946533203125,-0.01730535506606102,0.010421769564785063,0.013727496579289436
1783693648516909600,1.35190966796875,0.027324644777178764,0.004352313457988202,0.059063598865270614
1783693648526871800,1.361871826171875,0.10009586647748947,0.021427951421402393,0.11994557226411998
1783693648536834800,1.371834716796875,0.07917465900182724,0.03559734654929489,0.1406048408679664
1783693648546796500,1.381796630859375,0.0184825821518898,0.04252027768027037,0.120520887934044
1783693648556759600,1.391759521484375,0.0063052376240491865,0.04438632728047669,0.14522468268834055
1783693648566721800,1.4017216796875,0.016418050837516785,0.025817455084621906,0.14120857891477642
1783693648576684800,1.411684814453125,-0.027484803774952885,0.02901957559417933,0.06985635716691613
1783693648586646500,1.421646484375,-0.07317921797931194,0.0211127479923889,0.022355331932008265
1783693648596609500,1.431609619140625,-0.06452595592439174,0.014572349905595182,0.027323402668163178
1783693648606571800,1.44157177734375,-0.019516601374745368,-0.011812420205585658,-0.005025792272761464
1783693648616534800,1.45153466796875,-0.015542437046766281,-0.014145210534706711,-0.014395239773020147
1783693648626496500,1.46149658203125,-0.028518238475918768,0.009207717599906027,-0.0028626228895038365
1783693648636459500,1.47145947265625,-0.09371639457345009,0.023628055281564593,0.016887494980171322
1783693648646421800,1.481421875,-0.11446341452598571,0.011857976380363107,0.015339754081517457
1783693648656384800,1.491384765625,-0.08391045535206794,-0.010184417144954204,0.016402268746495245
1783693648666346500,1.501346435546875,-0.048259296256303784,-0.005013553845696151,0.015062471510097384
1783693648676309500,1.5113095703125,-0.04561433470547199,-0.03782422881852835,0.002001914406940341
1783693648686271700,1.521271728515625,-0.002359130346775055,-0.042334363186731935,0.0039598435416817665
1783693648696234800,1.53123486328125,0.016845920860767364,-0.07533705360032618,-0.015081249275803565
1783693648706196500,1.541196533203125,0.018752631264925,-0.07375723706297577,-0.035126112308353184
1783693648716159500,1.551159423828125,0.029550504133105275,-0.07036185900364071,-0.004063523111864924
1783693648726121700,1.561121826171875,0.056495794203877445,-0.06351721727326512,0.03690400870107114
1783693648736084700,1.571084716796875,0.04941431151032447,-0.06468688210714608,0.074000617364794
1783693648746046700,1.581046630859375,0.015439561194181441,-0.02410060469675809,0.07037088256031275
1783693648756009500,1.591009521484375,-0.022507015362381935,-0.010164178074523807,0.06260945477858186
1783693648765971700,1.6009716796875,-0.05367956773936748,-0.016240904172323642,0.05132357919774949
1783693648775934700,1.610934814453125,-0.06298340265750885,0.019435170168988405,0.0676662267114967
1783693648785896700,1.620896728515625,-0.08100947321355342,0.05973857551738619,0.11598236772157251
1783693648795859500,1.630859375,-0.11663549786806106,0.07304368196614086,0.11736783073060214
1783693648805821700,1.64082177734375,-0.12599836949706078,0.050583282224461436,0.11523980572596192
1783693648815784700,1.65078466796875,-0.11714227834641933,0.05691051248461008,0.05553535167388618
1783693648825746700,1.66074658203125,-0.10848434011638164,0.014899864826910197,0.009767360776662825
1783693648835709700,1.670709716796875,-0.0589899491071701,-0.020490305245108902,-0.017927432487159965
1783693648845671700,1.680671630859375,-0.05852642324864864,-0.0200636407982558,-0.035985651747137304
1783693648855634700,1.690634765625,-0.06712707833349704,-0.024583748571202158,-0.020404197864234447
1783693648865596700,1.7005966796875,-0.03348725906014442,-0.019019721235893666,0.006952522551640868
1783693648875559700,1.7105595703125,0.0354489145219326,-0.04166146889384836,0.015720131701231002
1783693648885521700,1.720521728515625,0.015026304218173026,-0.04523680662997067,0.020844342847168445
1783693648895484700,1.730484619140625,-0.021094810476899147,0.010769815817475319,0.04790156885981559
1783693648905446700,1.74044677734375,-0.006931260567903518,0.05405442893374711,0.08326835805624723
1783693648915409700,1.75040966796875,0.04792202712595463,0.05903872015234082,0.11488412415608763
1783693648925371600,1.76037158203125,0.0711678781569004,0.032661621890962125,0.1011539972282946
1783693648935334700,1.770334716796875,0.02426175007522106,0.03523223956394941,0.049849122731015084
1783693648945296600,1.780296630859375,-0.039029695618152616,0.029787235498428342,-0.0002243833404034376
1783693648955259600,1.790259765625,-0.09131810126006602,0.02611358848698437,-0.04477824920751154
1783693648965221600,1.8002216796875,-0.1256616848886013,0.017034465702809393,-0.06807210409864783
1783693648975184600,1.8101845703125,-0.05956687221229076,0.049151495855674146,-0.1261301061179489
1783693648985147000,1.82014697265625,-0.05148527256548405,-0.06714154525026679,-0.14479330553375183
1783693648995109600,1.830109619140625,-0.008174538627266883,-0.1823548648281023,-0.15563750176168978
1783693649005071600,1.840071533203125,0.06473930641412734,-0.09401577937882392,-0.07923888334445654
1783693649015034600,1.85003466796875,0.03452478541433811,-0.015407339425012469,0.036281639019027354
1783693649024996900,1.859996826171875,-0.008600070562958717,0.07755856557469815,0.1213593115195632
1783693649034959600,1.869959716796875,-0.05181202030181885,0.10770056932754814,0.12415858684927224
1783693649044921600,1.879921630859375,-0.12426467757225036,0.07927680420204997,0.11240385164767504
1783693649054884600,1.889884521484375,-0.1468541105210781,0.02463124097473919,0.05776880981437862
1783693649064846800,1.899846923828125,-0.12752455615103245,-0.03933149157632142,0.01377937289699912
1783693649074809600,1.9098095703125,-0.128450438824296,-0.09112740099355578,-0.008019055804610252
1783693649084771600,1.919771484375,-0.10834347034096717,-0.07502002354040742,-0.015416545644775032
1783693649094734600,1.929734619140625,-0.11358195551633835,-0.01926284580938518,0.003999371834471821
1783693649104696800,1.93969677734375,-0.15045827249288557,0.039672012109681964,0.03907024682424962
1783693649114659600,1.94965966796875,-0.1719949815183878,0.07021748209688812,0.03670147186629474
1783693649124621600,1.95962158203125,-0.13463994111418723,0.062126383969374,0.02092398395463824
1783693649134584600,1.96958447265625,-0.1197749649375677,0.038348946812376376,0.008916223840042948
1783693649144546800,1.979546875,-0.08423954117596148,0.010791844986192881,-0.028271351042762398
1783693649154509600,1.989509521484375,-0.019325462716817853,-0.011839344745129345,-0.06495572564378381
1783693649164471600,1.999471435546875,0.05836626425087452,-0.03231134714856743,-0.05654759745635092
1783693649174434600,2.0094345703125,0.13894085317850113,-0.042229003116115923,-0.04135039365068078
1783693649184396800,2.019396728515625,0.15882278073430062,-0.013777765461802483,-0.0341257761593908
1783693649194359800,2.02935986328125,0.11562427499890326,0.018718436734378337,-0.004197743950784206
1783693649204321500,2.039321533203125,0.09510288049578666,0.03941080389022827,0.037356501708924766
1783693649214284500,2.049284423828125,0.09752747729420662,0.061107891109213226,0.05433430532105267
1783693649224246800,2.059246826171875,0.06647416738271712,0.04448540374077856,0.05265234358347952
1783693649234209800,2.069209716796875,-0.0028337621212005614,0.045237245021387935,0.023845497424528
1783693649244171500,2.079171630859375,0.002846621602773666,0.03078242054823786,-0.0045003801591694354
1783693649254134500,2.089134521484375,-0.014681436303257942,-0.007395992002822458,-0.03322327436171472
1783693649264096800,2.0990966796875,-0.054040802267193794,-0.005614332750439643,-0.07009608420692384
1783693649274059800,2.109059814453125,-0.09312778103053569,-0.0051264396356418725,-0.04634396415427327
1783693649284021500,2.119021484375,-0.10972528008818626,-0.015473353865928947,-0.020682503348961472
1783693649293984800,2.12898486328125,-0.13793313744068145,-0.011982443010248244,-0.011198562623560428
1783693649303946800,2.13894677734375,-0.17742168274223805,-0.0026345862872898577,0.019569792866706848
1783693649313909800,2.14890966796875,-0.232817991271615,0.007280695060081779,0.06814801887907088
1783693649323871500,2.15887158203125,-0.2515536714017391,0.022921952838823197,0.08890468344278633
1783693649333834800,2.168834716796875,-0.20612930631041526,0.024106742176599798,0.11256371838450431
1783693649343796700,2.178796630859375,-0.11073767200112342,-0.02354183830283582,0.10485877003036438
1783693649353759700,2.188759765625,-0.015185294172167777,-0.03385759020987898,0.09295936566106974
1783693649363721700,2.1987216796875,0.09205518336296081,-0.02789857220761478,0.09327690717764198
1783693649373684700,2.208684814453125,0.1825730741560459,-0.011323723373189569,0.08539375271238386
1783693649383646700,2.218646728515625,0.17062427768707275,0.009776384333334862,0.10178951865285635
1783693649393609700,2.228609619140625,0.08633388310670852,0.0630566870894283,0.07138963114880024
1783693649403571700,2.23857177734375,0.04569032255113124,0.07330708214268088,0.020494579561427233
1783693649413534700,2.24853466796875,0.0048000937581062315,0.021930019192025065,-0.005548574037849903
1783693649423496700,2.25849658203125,-0.03710135790407657,-0.007429455881007015,-0.044490956698730585
1783693649433459700,2.268459716796875,-0.023848493099212643,-0.016756269815936684,-0.053914399408549064
1783693649443421700,2.278421630859375,-0.013241758888959884,-0.039984950516372915,-0.02607793265171349
1783693649453384700,2.288384765625,-0.03182780141532421,-0.025223361648991704,-0.009410144836828113
1783693649463346700,2.2983466796875,-0.03499649457931518,0.010007526208087801,0.015088117408007383
1783693649473309700,2.308309814453125,-0.04747194527089595,0.026729345765151083,0.06181691616140306
1783693649483271700,2.318271728515625,-0.1040109940946102,0.04475307823363691,0.07146364623308181
1783693649493234700,2.328234619140625,-0.14413082303702832,0.0261158169766888,0.06088080435506999
1783693649503196700,2.33819677734375,-0.12732523418664932,-0.016209997577406467,0.05703508871234953
1783693649513159700,2.34815966796875,-0.17387714200317858,-0.008055259629152715,0.045607539638504384
1783693649523121700,2.35812158203125,-0.17387421939373016,-0.004074446364678443,0.030928295292332767
1783693649533084700,2.368084716796875,-0.132999188169837,0.0056046516066417095,0.024531433862075208
1783693649543046700,2.378046630859375,-0.049479193440079686,0.005360942511260509,0.06635134472064673
1783693649553009700,2.388009765625,0.03404898459613323,0.011856734271347522,0.0736339760094881
1783693649562971600,2.3979716796875,0.1141547869682312,0.02146020972318947,0.07192826807014643
1783693649572934700,2.4079345703125,0.14951777677237987,0.011781330947577953,0.0920700156059116
1783693649582896600,2.417896728515625,0.12148001528978347,0.052990708692371845,0.0713387046791613
1783693649592859600,2.427859619140625,0.046996728974580765,0.06661412384267897,0.05187763288393616
1783693649602821600,2.437821533203125,-0.01383972478210926,0.05647489754632115,0.020161840475723145
1783693649612784600,2.44778466796875,-0.058980596756935115,0.030133382054977117,-0.0238792535636574
1783693649622746600,2.45774658203125,-0.08568214119970798,0.010896730132773518,-0.047598932651430365
1783693649632708900,2.467708984375,-0.07976093445718288,0.00030376871954649687,-0.06838796511478722
1783693649642671900,2.477671875,-0.05274725532531738,-0.022123495937511322,-0.10043233189024031
1783693649652634600,2.487634521484375,-0.052829088389873505,-0.01622859268002212,-0.07942300773970783
1783693649662596600,2.4975966796875,-0.058761985570192334,0.011809424530901015,-0.031190672555565832
1783693649672558800,2.507558837890625,-0.07655307832658291,0.04021401003189385,0.013384455295279622
1783693649682521900,2.51752197265625,-0.09857318695485591,0.04875025811102241,0.05430442163944244
1783693649692483600,2.527483642578125,-0.08982990852892399,0.031094336041621862,0.08310995262414217
1783693649702446600,2.537446533203125,-0.07247603814601898,0.003246251912228763,0.07015760513581334
1783693649712408800,2.547408935546875,-0.0891097775608301,-0.005930084168724715,0.054873161438107484
1783693649722371800,2.557371826171875,-0.03736088562309742,-0.020169402727670968,0.03519515895657241
1783693649732333600,2.56733349609375,-0.001163198560476303,-0.03403181426562368,0.014823109796270727
1783693649742296600,2.577296630859375,0.04124561810195446,-0.02631605225652456,0.00311594006344676
1783693649752258800,2.5872587890625,0.0542582444101572,0.020828195429965852,0.0016292086370289325
1783693649762221800,2.597221923828125,0.04914484691917896,0.04661426899563521,0.033337986782565714
1783693649772183600,2.60718359375,0.020038579422235487,0.05756897639334201,0.06684446199983358
1783693649782146800,2.617146728515625,-0.03632160570323467,0.07499251447897404,0.03595174947753548
1783693649792108800,2.62710888671875,-0.0800911893248558,0.04758735181149095,0.015483473401144147
1783693649802071800,2.63707177734375,-0.06850654999315739,0.006845956904627382,-0.0163040690690279
1783693649812033500,2.647033447265625,-0.0658960752338171,-0.016603417341783642,-0.040779388829693196
1783693649821996800,2.656996826171875,-0.04962824652194976,-0.02355751079600304,-0.052916547477617856
1783693649831958800,2.666958740234375,-0.02169511445760727,-0.021678053724952042,-0.031931261789798736
1783693649841921800,2.676921875,0.00635433746278286,-0.012592574265226721,-0.004477218479290604
1783693649851883800,2.6868837890625,-0.02185235084593296,-0.0008421133799478411,0.024858839185535907
1783693649861846800,2.6968466796875,-0.03971358622908592,0.016478950711898505,0.031093130465224383
1783693649871808800,2.706808837890625,-0.07198854689002036,0.03106799602396786,0.052264513309672474
1783693649881771800,2.716771728515625,-0.15368775593340395,0.050796632714197036,0.03609861060231924
1783693649891733800,2.726733642578125,-0.19738953501582143,0.06716832365933806,0.014048033770546316
1783693649901696800,2.73669677734375,-0.1667699403464794,0.04456533710919321,0.024959303885325787
1783693649911658800,2.74665869140625,-0.13004618358314038,-0.0018203472949564455,-0.00010806348435580729
1783693649921621800,2.756621826171875,-0.10468260974586009,-0.00924837840385735,-0.026330446108058094
1783693649931583700,2.766583740234375,-0.04098199872970581,-0.016093348927795886,-0.019392025147005915
1783693649941546800,2.776546630859375,0.01004559319615364,-0.02249908778425306,0.0009906915377825498
1783693649951508700,2.7865087890625,0.10554419501125811,-0.016345168264396488,0.022298487178236244
1783693649961471700,2.7964716796875,0.15645955873429773,-0.013554185838997363,0.033896643578633666
1783693649971433700,2.806433837890625,0.143956050992012,0.008677337050251662,0.0584681171901524
1783693649981396700,2.816396728515625,0.11056231543421745,0.020075696562230586,0.05640994255132973
1783693649991358700,2.826358642578125,0.07884849578738212,0.015031564915180205,0.04042173449844122
1783693650001321700,2.83632177734375,0.02006371386349201,0.021557532617822287,0.006954422247782349
1783693650011283700,2.84628369140625,-0.04905249246060848,0.011755538919195532,0.0010091039773076772
1783693650021246700,2.856246826171875,-0.09739362178146839,0.01962126732561737,0.01005801428630948
1783693650031208700,2.866208740234375,-0.1357347506135702,0.009264635418914258,0.003392638112977147
1783693650041171700,2.876171630859375,-0.18335048826932906,-0.0025277283793315288,-0.02596000536046922
1783693650051133700,2.8861337890625,-0.1536158597409725,-0.007600574664212763,-0.01475413621328771
1783693650061096700,2.8960966796875,-0.11290157203674316,-0.015758381352387368,0.05797076212726533
1783693650071058700,2.90605859375,-0.12011691024303435,-0.007272511753626167,0.06513685436435043
1783693650081021700,2.916021728515625,-0.13406360253095626,0.01182451250217855,0.047392084967717525
1783693650090983700,2.925983642578125,-0.09164017282128334,0.02122837372869253,0.0987384605191648
1783693650100946700,2.93594677734375,-0.03536532789170742,0.020102219242975113,0.08192563821040093
1783693650110908700,2.94590869140625,0.008659107273817062,0.0421214876210317,0.0866166455708444
1783693650120871700,2.95587158203125,0.045379356905817986,0.03868241655044257,0.07798259967304766
1783693650130833700,2.965833740234375,0.04349894998669624,0.05025810539070517,0.06533128095790744
1783693650140796700,2.975796630859375,0.032684125983715055,0.053188130960613485,0.04840352703258395
1783693650150758700,2.985758544921875,0.027928455889225004,0.03132701228633523,-0.0026091595850884913
1783693650160721700,2.9957216796875,0.027479543077945708,-0.011147343892976641,-0.057794017320871346
1783693650170683600,3.00568359375,0.05321428831517696,-0.061448594305664295,-0.09308379575833678
1783693650180646700,3.015646728515625,0.1161895076662302,-0.08793813996557145,-0.09279935279376804
1783693650190608600,3.025608642578125,0.17349954086244104,-0.08774999698232859,-0.06918656814657151
1783693650200571600,3.035571533203125,0.20101532429754732,-0.10104644520059228,0.0050930853553116315
1783693650210533600,3.04553369140625,0.21766835293471812,-0.06936576063837856,0.05557911775037646
1783693650220496600,3.05549658203125,0.19334990423619747,-0.05795834103710949,0.1037355381540954
1783693650230458600,3.065458740234375,0.13189794892966747,-0.03507120378334075,0.18192535083703695
1783693650240422000,3.075421875,0.040592707151174544,-0.0025630919536575674,0.22146832973957062
1783693650250383600,3.085383544921875,-0.08688216463923454,-0.00831851367522031,0.2297240438442677
1783693650260346600,3.0953466796875,-0.16747253565788267,-0.03297258753627538,0.2023395586386323
1783693650270308600,3.10530859375,-0.2638859142303467,-0.04094086300171911,0.16108583029545842
1783693650280272000,3.11527197265625,-0.3564934707790613,-0.02739153600092977,0.13947459472902118
1783693650290233600,3.125233642578125,-0.40845571320652957,-0.03533569993842393,0.11154160879515111
1783693650300196600,3.135196533203125,-0.3737345284372568,-0.06637552931383252,0.08086312354542315
1783693650310158800,3.145158935546875,-0.29304771130681034,-0.09104819827750325,0.05505136754922568
1783693650320121900,3.155121826171875,-0.23760054937303066,-0.11101871743220836,0.045370589077472684
1783693650330083600,3.16508349609375,-0.18555121318399906,-0.08156981051005423,0.0749712890278548
1783693650340046600,3.175046630859375,-0.17399287733733654,-0.044819238805025814,0.08868811808265745
1783693650350008800,3.1850087890625,-0.18900223042070866,0.012617599108628927,0.0985507559273392
1783693650359971800,3.194971923828125,-0.20033903247117996,0.0768622173409909,0.125886506620422
1783693650369933600,3.20493359375,-0.19628537316620348,0.10096596384290606,0.11648023424111306
1783693650379896600,3.214896484375,-0.1639554674476385,0.11674827406015247,0.08295271623581647
1783693650389858800,3.22485888671875,-0.10437865836322308,0.10436145150009542,0.02072152018509805
1783693650399821800,3.23482177734375,-0.010657003092765807,0.07086520541589707,-0.04364369221962988
1783693650409783600,3.244783447265625,0.10678045880794525,0.04629442592412233,-0.08885419536456465
1783693650419746600,3.25474658203125,0.21381460011601447,0.00499349743835628,-0.13017894311733544
1783693650429708800,3.264708740234375,0.24889292775988578,-0.041198673687689,-0.18531397036202252
1783693650439671800,3.274671875,0.21967677014768122,-0.024229382175579666,-0.21554873043224215
1783693650449633500,3.284633544921875,0.15807868436872957,0.011811945281550287,-0.2459112085353583
1783693650459596500,3.294596435546875,0.12096622054874896,0.00391794062871486,-0.2627254921488464
1783693650469558800,3.304558837890625,0.10247428604662417,-0.019501330740377305,-0.2676890328403562
1783693650479521800,3.314521728515625,0.06402092901170253,0.00819510649126023,-0.26123700715675946
1783693650489483500,3.3244833984375,0.041377135527133936,0.01997351482938975,-0.2146261356946081
1783693650499446500,3.334446533203125,0.03990589393079281,0.020576156897656617,-0.16436266000904143
1783693650509408800,3.34440869140625,0.05915303071439266,0.04228606706559658,-0.10330087306387722
1783693650519371800,3.354371826171875,0.04730243392288685,0.03839764479231089,-0.016689122863858936
1783693650529333500,3.36433349609375,0.011932429856061934,0.03255827111434191,0.013257833240926265
1783693650539296500,3.374296630859375,-0.046236850517988204,0.04136040358804166,0.04700447388961911
1783693650549258800,3.3842587890625,-0.09174714032709598,0.061833100111223754,0.0889754105914384
1783693650559221800,3.3942216796875,-0.09817805015742778,0.033636385207250714,0.1046961268145591
1783693650569183500,3.40418359375,-0.09312193581163883,0.002245440839231014,0.10102737517394125
1783693650579146500,3.414146484375,-0.11813128938376903,0.02827467551100999,0.07230930327698588
1783693650589108700,3.424108642578125,-0.1684960334867239,0.05766155004762113,0.04406367119736969
1783693650599071700,3.43407177734375,-0.22608722171187398,0.07076232956331223,0.020858809763938186
1783693650609033700,3.44403369140625,-0.30302959161698817,0.11914517913404851,-0.014013912305235863
1783693650618996700,3.453996826171875,-0.39719372995793817,0.1160491128148511,-0.08287066397555172
1783693650628958700,3.463958740234375,-0.4143687366425991,0.0941829891718924,-0.14204634491316973
1783693650638921700,3.473921630859375,-0.25732114888727664,0.04372296800091863,-0.17446275987140833
1783693650648883700,3.4838837890625,-0.03356324690580368,-0.04895242961961776,-0.17534239225015044
1783693650658846700,3.4938466796875,0.14217618183791636,-0.09538732346035539,-0.1593809991389513
1783693650668808700,3.50380859375,0.2659580443292856,-0.10060977081637829,-0.13674239328615367
1783693650678771700,3.513771728515625,0.3785276079326868,-0.07801690380144864,-0.10280578302331268
1783693650688733700,3.523733642578125,0.42430443972349163,-0.06562891219761222,-0.05159582026787102
1783693650698696700,3.53369677734375,0.3519663487434387,-0.007541903279535472,-0.007102306285873055
1783693650708658700,3.54365869140625,0.17902794889509677,0.06957512907274067,0.042664106597751376
1783693650718621700,3.55362158203125,0.012458499556779861,0.11423296677097677,0.09040463967695832
1783693650728584000,3.563583984375,-0.07108429152667523,0.13807835459765047,0.1388988406676799
1783693650738546700,3.573546630859375,-0.14228490290939808,0.12128540603313594,0.14380758243203162
1783693650748508700,3.5835087890625,-0.16324001265466212,0.08966047024615108,0.11305815083794295
1783693650758471700,3.5934716796875,-0.14607260475456713,0.050210503389313814,0.10223287850618362
1783693650768434000,3.603433837890625,-0.1326595809519291,0.05237860467601567,0.07069514607861638
1783693650778396700,3.613396728515625,-0.16004793861508368,0.07390084678474813,0.07505056480914354
1783693650788358700,3.623358642578125,-0.12604396220445632,0.0778896972252056,0.10005063909627497
1783693650798321700,3.63332177734375,-0.05506196200847625,0.06290602657236158,0.1590226141553372
1783693650808284000,3.643283935546875,-0.03905833719074726,0.030955000636167823,0.19390205822624265
1783693650818246700,3.65324658203125,-0.056065001571178434,0.024216157367825508,0.21480419567525386
1783693650828208600,3.663208740234375,-0.08772329163849353,0.05535769355203956,0.14568908532969652
1783693650838171600,3.673171630859375,-0.0029448212802410125,0.10241104808468371,0.05761603040546179
1783693650848134000,3.6831337890625,-0.03245031722784042,-0.006438691277988255,0.00621770547106862
1783693650858096600,3.6930966796875,0.018021394380927085,-0.03265720144417137,-0.0513897763017565
1783693650868058600,3.70305859375,0.03815174373984337,-0.04185421498697251,-0.10399038969799876
1783693650878021600,3.713021728515625,-0.15866086817085742,-0.16526673270929604,-0.17149170817136764
1783693650887983900,3.72298388671875,-0.12392565487623214,-0.07681958377566188,-0.17440569592192767
1783693650897946600,3.732946533203125,0.04401216020584106,-0.08646821354348212,-0.07890387923642993
1783693650907908600,3.74290869140625,0.1400876851260662,-0.096533643951267,0.036454219106957314
1783693650917871600,3.75287158203125,0.084195702034235,-0.08044997616726905,0.03746303082332015
1783693650927833900,3.762833740234375,0.07794073329269885,-0.13464143895152955,0.049517260428145526
1783693650937796600,3.772796630859375,0.15154782129526137,-0.10708400833178311,0.09924882119409739
1783693650947758600,3.782758544921875,0.05995031857192516,-0.14713314665816724,0.16229834789037703
1783693650957721600,3.7927216796875,-0.04370470169186592,-0.10594525009281933,0.25575689524523915
1783693650967683800,3.802683837890625,-0.11044541105628013,-0.07210274785421789,0.31417620485760267
1783693650977645600,3.8126455078125,-0.22892156835496424,-0.06459774251896888,0.35675504432469607
1783693650987608600,3.822608642578125,-0.32311201018095015,-0.03151891812924296,0.3003859452404082
1783693650997570800,3.83257080078125,-0.36208266908824444,-0.028594445517286658,0.25291692257896065
1783693651007533800,3.842533935546875,-0.3596405366331339,-0.00631221535410732,0.21153715670332313
1783693651017495600,3.85249560546875,-0.3714151455789804,-0.005026961316540837,0.1284782036140561
1783693651027458600,3.86245849609375,-0.332372005957365,0.061697417967580256,0.06082878190688788
1783693651037420800,3.8724208984375,-0.2206061599522829,0.06959949632901698,0.07039126776121557
1783693651047383800,3.8823837890625,-0.14137187971770762,0.08867591618821025,0.012619023880735039
1783693651057345500,3.892345458984375,-0.13387421743869782,0.06785557527113706,-0.10428739988319576
1783693651067308500,3.90230859375,-0.043376200389862056,0.09992043684534728,-0.1578329659793526
1783693651077270800,3.912270751953125,0.10395137286186218,0.12644786683022974,-0.11380049363784492
1783693651087233800,3.92223388671875,0.1530669936865568,0.13727850945685058,-0.07288425362072884
1783693651097195500,3.932195556640625,0.12324059522151946,0.17044808086995034,-0.10230484776385128
1783693651107158800,3.94215869140625,0.09322773427367209,0.12443820750825106,-0.17771430901326238
1783693651117120800,3.952120849609375,0.11134791285395622,0.01969604959487915,-0.2156570131123066
1783693651127083800,3.962083740234375,0.18107728264033793,-0.024145247556082904,-0.1717540123693645
1783693651137045500,3.97204541015625,0.266399358355999,-0.04209240765701979,-0.11866758821755646
1783693651147008800,3.9820087890625,0.26501930217444897,-0.026347799101658163,-0.06444931049160658
1783693651156970800,3.991970703125,0.1856616878211498,0.004435790490359068,-0.032635099210217594
1783693651166933800,4.001933837890625,0.08926467586159706,0.02691368935611099,-0.020439561438560485
1783693651176895700,4.011895751953125,-0.007427519652247428,0.05419781945981085,-0.033998569583147766
1783693651186858800,4.021858642578125,-0.10168108984231948,0.06485997365172952,-0.0339353681538254
1783693651196820700,4.03182080078125,-0.11472995650768279,0.005304097757488488,-0.02133950595296919
1783693651206783700,4.04178369140625,-0.06463116986453533,0.02521894120220095,-0.04093976702317595
1783693651216745700,4.051745849609375,-0.08887363071739673,-0.010831300213746725,-0.050635596933588385
1783693651226708700,4.061708740234375,-0.21028993312120436,0.004933510879427195,-0.020936478110030292
1783693651236670700,4.071670654296875,-0.2981698766261339,0.08619414584245533,0.0015785013630986212
1783693651246633700,4.0816337890625,-0.3290343859672546,0.10614617949239909,0.0597737198960036
1783693651256595700,4.091595703125,-0.3388122681379318,0.10917053228225558,0.08553630298823117
1783693651266558700,4.101558837890625,-0.2619523158192634,0.13331062873918562,0.11645246945135294
1783693651276520700,4.111520751953125,-0.15487725797891616,0.058148822107911106,0.1527691797837615
1783693651286483700,4.121483642578125,-0.033012627285718917,0.005187156846933066,0.16220489745326339
1783693651296445700,4.13144580078125,0.07585048301517963,0.009627696577645837,0.22298706373944877
1783693651306408700,4.14140869140625,0.14984686259627342,0.032349523734487594,0.24923596904389558
1783693651316370700,4.15137060546875,0.20966274113357067,0.07192567425426095,0.23752485378831623
1783693651326333700,4.161333740234375,0.2161228770583868,0.1265783978747204,0.22316351628489792
1783693651336295700,4.171295654296875,0.15811960090100766,0.1429129351472482,0.19254026835374533
1783693651346258700,4.1812587890625,0.11200959163308143,0.10617982603367418,0.13708097759075463
1783693651356220700,4.191220703125,0.052508770394325256,0.07542199193742126,0.05563771606981754
1783693651366183700,4.20118359375,-0.006453121662139892,0.049999198726192115,-0.001241232232749462
1783693651376145700,4.211145751953125,-0.010606734210252761,-0.012987711062654853,-0.0725518067959696
1783693651386108700,4.221108642578125,-0.041378304570913314,-0.02405187018420547,-0.1314869569759816
1783693651396070700,4.231070556640625,-0.05193067824542522,-0.01441368874516338,-0.1801576835773885
1783693651406033700,4.24103369140625,-0.02160392904281616,-0.06328519861567765,-0.1799436024352908
1783693651415995600,4.25099560546875,-0.005983166062831878,-0.07001892731748521,-0.1470538708768785
1783693651425958700,4.260958740234375,-0.002589431971311569,-0.016924867848493157,-0.09268317906819283
1783693651435920600,4.270920654296875,-0.06911854441165924,0.029035284619964657,-0.04616100880280137
1783693651445883600,4.280883544921875,-0.12443944961726665,0.050840691051632164,-0.0033781711962074037
1783693651455845600,4.290845703125,-0.17140402988791464,0.0686929394107312,0.011834960830956696
1783693651465808600,4.30080859375,-0.19864976420998573,0.03395586295258254,0.01404562261775136
1783693651475770600,4.3107705078125,-0.19283435592949388,-0.004750372864864767,-0.010600012208521366
1783693651485734100,4.320734130859375,-0.14615911399424075,-0.040858591545745726,-0.015636764266714454
1783693651495696400,4.3306962890625,-0.05177870255410671,-0.07662424386665224,-0.018961013318598268
1783693651505659400,4.340659423828125,-0.031799744364619256,-0.08793017585482447,-0.011632716257125138
1783693651515621000,4.35062109375,-0.017338672813773156,-0.016081914218328892,-0.0022309739224612712
1783693651525584100,4.360584228515625,-0.02288929267823696,0.018605952803231775,0.0016634031675755976
1783693651535546400,4.37054638671875,-0.025900749453902243,0.02606938401907682,-0.004623714277893305
1783693651545509400,4.38050927734375,-0.029963176587224007,0.030829657223448156,-0.009480725855007767
1783693651555471000,4.39047119140625,-0.05837853921055793,0.02780238182414323,-0.003384235610812902
1783693651565434000,4.40043408203125,-0.05192015685141086,0.01539904652070254,0.008006196323037148
1783693651575396400,4.410396240234375,-0.06118950497806072,0.025748481501638887,0.02807093309983611
1783693651585359400,4.420359375,-0.07466390357911587,0.019243300858698784,0.011708119580894709
1783693651595321000,4.430321044921875,-0.08815057713985443,0.001994023361429572,0.021888298942148682
1783693651605284000,4.4402841796875,-0.05243161350488663,-0.01235715807415545,0.021114611155912278
1783693651615246300,4.450246337890625,-0.01749824728965759,-0.0348805035168305,0.01125738013871014
1783693651625209300,4.460209228515625,-0.034036125114560126,-0.038853023876994845,0.042802126828953624
1783693651635171000,4.470171142578125,-0.028695348608493803,-0.01081789274290204,0.05374233077727258
1783693651645134300,4.48013427734375,-0.020486323189735412,0.0021256503844633698,0.06966025007292628
1783693651655096300,4.490096435546875,-0.0412567240178585,0.00176171244289726,0.0864282833918929
1783693651665059300,4.500059326171875,-0.010546528455615043,0.0031532763991504904,0.0990078520450741
1783693651675021000,4.51002099609375,0.05319441457092762,-0.025559900126978754,0.11443338471390306
1783693651684984300,4.519984375,0.04592588487267494,-0.06919040407147257,0.1206903992820531
1783693651694946300,4.5299462890625,0.02457505380809307,-0.060325910418666896,0.07743760607615113
1783693651704909300,4.539909423828125,-0.031122868016362187,-0.019795052989944814,0.08350735444389283
1783693651714871300,4.549871337890625,-0.032443302965164185,0.03266490982659161,0.10257255878932774
1783693651724834300,4.559834228515625,0.017904490002989767,0.04954593853335827,0.0861979817673564
1783693651734796300,4.56979638671875,0.06016542262732982,0.026688611895963547,0.08558386845700443
1783693651744759300,4.57975927734375,0.017733225089311598,0.049733423929475246,0.06321743060909212
1783693651754721300,4.58972119140625,-0.05280979916751385,0.03529829053748399,0.04978891697637736
1783693651764684300,4.599684326171875,-0.11363806961774825,0.00833133662417531,0.029727395069971678
1783693651774646300,4.609646240234375,-0.15026011957228183,-0.007118892094492912,0.0008140928618609904
1783693651784609300,4.619609375,-0.13839549425542355,0.007105996080301702,-0.03229366536140442
1783693651794571500,4.629571533203125,-0.13341419871151447,0.014937566488794981,-0.021730185770988463
1783693651804534300,4.6395341796875,-0.12245207519233225,0.02184566537681967,-0.047335897801071405
1783693651814496300,4.649496337890625,-0.07320844407379627,0.01833195816744119,-0.057203431016579265
1783693651824459300,4.659459228515625,-0.05766659154891968,-0.004659516243636608,-0.046187531483545895
1783693651834421500,4.66942138671875,-0.11812135251164435,0.020383958793804047,-0.03718969377465546
1783693651844384300,4.67938427734375,-0.1245329731196165,0.016375709533132613,-0.034898002640902995
1783693651854346200,4.68934619140625,-0.017122984236478806,-0.02786470647063106,-0.02552504800930619
1783693651864309200,4.699309326171875,0.043409518137574196,-0.05821911086514592,-0.004803673954680562
1783693651874271500,4.709271484375,0.0861561884522438,-0.07252064447272569,0.004550283715501428
1783693651884234200,4.719234130859375,0.12324117974340915,-0.07524930225163698,0.04757394434064626
1783693651894196200,4.7291962890625,0.09913491249084472,-0.03353606663793325,0.10010273460969328
1783693651904159200,4.7391591796875,0.046481765189766884,0.02442775429189205,0.1187697334177792
1783693651914121500,4.74912158203125,0.0042763621449470515,0.0333642537349835,0.12345789123401045
1783693651924084200,4.759084228515625,-0.04694762913584709,0.022042028199136254,0.12477525744289159
1783693651934046200,4.769046142578125,-0.0942781201094389,0.014228906762786209,0.07035225092507899
1783693651944008400,4.779008544921875,-0.1391986273318529,0.017583952811732886,0.02963423689380288
1783693651953971500,4.788971435546875,-0.14578443546295164,0.015613091130182145,0.02266366722881794
1783693651963934200,4.798934326171875,-0.09310206206738948,-0.0006528013529255986,0.01803242723159492
1783693651973896200,4.808896240234375,-0.009333061012625694,-0.001412022222392261,0.04100179940871894
1783693651983858400,4.8188583984375,0.026694530180096626,0.02864507972598076,0.048401335075497626
1783693651993821400,4.828821533203125,0.04943476977646351,0.06468176754061132,0.06690203740596772
1783693652003783200,4.838783203125,0.08464052319228649,0.06819686298947782,0.06615063451677561
1783693652013746200,4.84874609375,0.129125561606884,0.02195314433928579,0.024576807373762128
1783693652023708400,4.85870849609375,0.08489771282374858,0.025876820589043198,-0.015020093673095106
1783693652033671400,4.86867138671875,0.00438099156320095,0.030482012829557058,-0.040348669262230394
1783693652043633200,4.878633056640625,-0.01102116023004055,0.024465748214721677,-0.07881978114955127
1783693652053596200,4.88859619140625,-0.03826046481132507,-0.007713862312957644,-0.06851794817000627
1783693652063558400,4.898558349609375,-0.10294190355837345,-0.019832462390884757,-0.0717410018697381
1783693652073521400,4.908521484375,-0.13951602271795271,-0.022764643385261296,-0.0931859409585595
1783693652083483100,4.918483154296875,-0.16381459767222403,-0.038303025311417875,-0.06471417197287083
1783693652093446100,4.928446044921875,-0.13352291978299616,-0.046134924513474104,-0.038698783163353796
1783693652103408400,4.938408447265625,-0.09222820184230804,-0.03957476228028536,-0.008280264024063944
1783693652113371400,4.948371337890625,-0.08855506628751754,-0.010647943003475666,0.019788330988213417
1783693652123333000,4.9583330078125,-0.058869537597894664,-0.0017506795922294259,0.04259454849287867
1783693652133296000,4.968296142578125,-0.06450257504880427,-0.008029248405061662,0.018661445850133896
1783693652143258400,4.97825830078125,-0.029115035325288773,-0.03411700833104551,0.02772014690078795
1783693652153221400,4.988221435546875,-0.04941138890087604,-0.0484599333949387,0.05229337407797575
1783693652163183000,4.99818310546875,-0.07186579729318618,-0.03502542841285467,0.05494834556616843
1783693652173146400,5.008146484375,-0.06309270825088024,-0.009063706019334495,0.022051380549371242
1783693652183108400,5.0181083984375,-0.06991290965974331,-0.013210888826660811,0.004675663660839199
1783693652193071400,5.0280712890625,-0.07674772411584854,-0.013288484107516705,0.0047295127399265766
1783693652203033000,5.038033203125,-0.06262275265157223,-0.0002707797653973102,-0.026596184372156856
1783693652212996400,5.047996337890625,-0.024858546924591062,-0.006607070114836096,-0.056025400213152166
1783693652222958300,5.057958251953125,-0.012534487402439117,-0.033866138842515645,-0.06020685061626136
1783693652232921300,5.06792138671875,-0.046564767298102376,-0.03646631140355021,-0.07269552611559629
1783693652242883300,5.07788330078125,-0.049424248382449146,-0.036496560411341486,-0.07688603660799563
1783693652252846300,5.087846435546875,-0.04976327107846737,-0.022747290391661224,-0.048838922775164245
1783693652262808300,5.097808349609375,-0.036214638197422024,-0.014327362168580294,0.0026524142049252986
1783693652272771300,5.107771240234375,-0.03569382919371128,-0.005331168427504598,0.06252550282217562
1783693652282733300,5.1177333984375,-0.010958616387844086,0.0015940277257934213,0.10211743543297051
1783693652292696300,5.1276962890625,-0.015293430721759795,0.03366440572533756,0.09506824757382273
1783693652302658300,5.137658203125,0.02062660844326019,0.016829846508800983,0.08381934300251305
1783693652312621300,5.147621337890625,0.055553544917702674,-0.006813589004985987,0.06257979029268027
1783693652322583300,5.157583251953125,0.03057809361517429,-0.0109661421071738,0.06624474254101514
1783693652332546300,5.16754638671875,0.024036709147691727,-0.018995865436270833,0.05867043482922017
1783693652342508300,5.17750830078125,0.03329319779276848,-0.011009287129156291,0.08702076939232647
1783693652352471300,5.18747119140625,-0.018953706794977185,-0.0035015783801674843,0.08005933288186788
1783693652362433300,5.197433349609375,-0.10020634111464023,-0.00047587388344109055,0.04299699181392789
1783693652372396300,5.207396240234375,-0.14450316348075865,-0.023740466147474944,0.025653131368383764
1783693652382358300,5.217358154296875,-0.17235738508999346,-0.05259765425417572,-0.029236177486926314
1783693652392321300,5.2273212890625,-0.12315291693806647,-0.04656867628823966,-0.0408428825199604
1783693652402283300,5.237283203125,-0.054986558684706685,-0.02909402906987816,-0.0017192980732768774
1783693652412246300,5.247246337890625,-0.001516249781847,-0.01587174206636846,0.018843451353535056
1783693652422208300,5.257208251953125,0.040164837127923965,-0.01739844017699361,0.009347454864159227
1783693652432171300,5.267171142578125,0.012594108635187149,-0.004561060837842524,0.00408003585524857
1783693652442133200,5.27713330078125,-0.02257423537969589,0.006161774032749236,-0.010929463358595966
1783693652452096300,5.28709619140625,-0.049479193440079686,0.03832067056596279,-0.015028642305731773
1783693652462058200,5.297058349609375,-0.07849719813168049,0.0386353260057047,0.010179083382710815
1783693652472021200,5.307021240234375,-0.07403788063526154,0.019428082841075955,0.02939458291903138
1783693652481983700,5.316983642578125,-0.05970423485636711,0.011753968016617,0.012351678181439637
1783693652491946800,5.32694677734375,-0.038192075750231744,-0.003391067210398614,0.0328025647316128
1783693652501908700,5.33690869140625,-0.04618248998224735,-0.003028334845229983,0.08348799215629696
1783693652511871500,5.34687158203125,-0.06882394537925719,0.018362974360212683,0.09067176618054508
1783693652521833700,5.356833740234375,-0.08964461508989334,0.046092400545999404,0.10315803052708505
1783693652531796700,5.366796630859375,-0.11704232510328293,0.05651723885070532,0.11918773963414132
1783693652541758700,5.3767587890625,-0.07112929971218108,0.018420147907547653,0.11314371022954582
1783693652551721500,5.386721435546875,-0.011330372309684754,-0.008961158960312604,0.11582644650749861
1783693652561683700,5.39668359375,-0.005455927318334579,-0.011317878154292702,0.09375986838899553
1783693652571646700,5.406646728515625,-0.03939443727731704,0.020763021239265798,0.07849741732738912
1783693652581608700,5.416608642578125,-0.08124971171021461,0.03890139306336641,0.0629162557054311
1783693652591571500,5.426571533203125,-0.10810323184430598,0.042611864953860636,0.03804828336536884
1783693652601533700,5.43653369140625,-0.12771627933084964,0.04009195455480367,-0.010472148045152426
1783693652611496700,5.44649658203125,-0.10538111340403557,0.019050116374157367,-0.018391469802334904
1783693652621458700,5.456458740234375,-0.04096446307301521,0.002063691064156592,-0.00517637972459197
1783693652631421400,5.46642138671875,0.004787818798422813,-0.0028540011916309595,0.015056480160728096
1783693652641383700,5.4763837890625,0.031275428229570384,-0.0036367125345394013,0.043208954064175485
1783693652651346700,5.4863466796875,0.07093933009803295,-0.02062098242007196,0.057868178535625335
1783693652661308700,5.49630859375,0.09979659126996994,-0.007135039511695504,0.08569098209328949
1783693652671271700,5.506271728515625,0.09538695813417435,-0.01973744105119258,0.10378003488294779
1783693652681233700,5.516233642578125,0.06353694488704204,-0.014629596518166362,0.10364837132729589
1783693652691195600,5.526195556640625,0.023360417321324347,0.007234079439379274,0.09604242636822163
1783693652701158700,5.53615869140625,-0.05956862577795982,0.027176833804324268,0.07701463142372668
1783693652711120600,5.54612060546875,-0.16535364380776882,0.07675609008539468,0.0283692584592849
1783693652721083600,5.556083740234375,-0.2818494409441948,0.0984306366790086,-0.04122866696715355
1783693652731045600,5.566045654296875,-0.34942309400141236,0.1076928244125098,-0.09081007867269217
1783693652741008600,5.576008544921875,-0.34681904898285865,0.06145834851469844,-0.10145992137230932
1783693652750970600,5.585970703125,-0.26363690790534017,0.01733107402920723,-0.0857099059894681
1783693652760933600,5.59593359375,-0.1986462570786476,0.005666976253129541,-0.08508059510998428
1783693652770895600,5.6058955078125,-0.09232757056355476,-0.0076700231712311506,-0.06596380670778453
1783693652780859000,5.61585888671875,-0.02819792048037052,0.041691279510222376,-0.033217136881873006
1783693652790820600,5.625820556640625,-0.05149287135004997,0.05156582698840648,0.009033493544161319
1783693652800783600,5.63578369140625,0.02734218043386936,0.1321452016890049,-0.017381342911720273
1783693652810745600,5.64574560546875,0.03656184419989586,0.14955193477030843,-0.07206701895371079
1783693652820708900,5.655708984375,0.037379590323567385,0.10138513910304754,-0.05846395247168839
1783693652830670600,5.665670654296875,0.07566694314181804,0.05086637348216027,-0.10501366833113134
1783693652840633600,5.675633544921875,0.08287818969488144,0.014626052854210137,-0.15019589522965252
1783693652850595800,5.685595947265625,0.11835106961429119,0.0009713657828047871,-0.12089366676919161
1783693652860558800,5.695558837890625,0.15071780021190642,0.016550919969566164,-0.04007723190970719
1783693652870520600,5.7055205078125,0.15135434454977512,0.014777699751965702,0.042852395711466665
1783693652880483600,5.715483642578125,0.12560206365585327,0.03962583488039672,0.11470803693681955
1783693652890445800,5.72544580078125,0.07215455110669136,0.11416505263391881,0.14995185734070837
1783693652900408800,5.735408935546875,-0.019693126985430718,0.09928743617143482,0.15359847021475434
1783693652910370600,5.74537060546875,-0.09543547345101833,0.0657833355743438,0.11916479714997112
1783693652920333600,5.75533349609375,-0.09753098442554474,0.062458830794133245,0.05568696203902363
1783693652930295800,5.7652958984375,-0.09660919340550898,0.037083529986441134,-0.0032259032439440486
1783693652940258800,5.7752587890625,-0.09714636902213096,0.03368416987173259,-0.016027444084733725
1783693652950220500,5.785220458984375,-0.06514028843045234,0.008157806688174604,-0.011669760331884025
1783693652960183600,5.79518359375,0.003250526228547096,-0.010971585467271507,-0.026409502693638204
1783693652970145800,5.805145751953125,0.017415245181322096,-0.021073621558398006,0.00454699577987194
1783693652980108800,5.81510888671875,0.0002747252881526947,-0.009001417905464769,0.017825944874063134
1783693652990070500,5.825070556640625,-0.029300328764319417,0.03909633111357689,0.04283865944705903
1783693653000033500,5.835033447265625,-0.03731938456892967,0.06425203435383736,0.07279971714243293
1783693653009995800,5.844995849609375,-0.031246202135086058,0.06932583048678934,0.07747377336807548
1783693653019958800,5.854958740234375,0.004427753314375877,0.08183883670978248,0.11828005020469426
1783693653029920500,5.86492041015625,0.05562719467580318,0.09180383895039558,0.17221973018497228
1783693653039883500,5.874883544921875,0.09402619117498397,0.06455978512875736,0.2020438636276871
1783693653049845800,5.884845703125,0.09212883312106132,0.04263151950240135,0.16459668796062468
1783693653059808800,5.894808837890625,0.05009469498991966,0.014341390693932771,0.12440445136912166
1783693653069770500,5.9047705078125,0.02627601250708103,-0.042879868240281935,0.08082666399255395
1783693653079733500,5.9147333984375,0.01475508606135845,-0.05611154412664473,0.06679251261688768
1783693653089695700,5.92469580078125,-0.010433715730905532,-0.054001675833202895,0.09019216597005725
1783693653099658800,5.93465869140625,-0.04543371744155884,0.002568316118046641,0.08089220350943506
1783693653109620500,5.944620361328125,-0.0917418796300888,-0.0016198928194120525,0.04695968489982187
1783693653119583500,5.95458349609375,-0.131835405087471,-0.03957962111849338,-0.011549056561663747
1783693653129545700,5.964545654296875,-0.14592238262891769,-0.03596201514322311,-0.06189480370320379
1783693653139508700,5.9745087890625,-0.13501228155791759,-0.02998224661387503,-0.0835287625581026
1783693653149470500,5.984470458984375,-0.09012392303943634,-0.004713328790105879,-0.058659109717607495
1783693653159433700,5.994433837890625,-0.026722002708911893,0.0013468480316922067,-0.05284085189290345
1783693653169395700,6.004395751953125,-0.01965630210638046,0.0025092063419520855,-0.04473484845720231
1783693653179358700,6.014358642578125,-0.13081424534618855,0.004605557566694915,-0.052521556810662146
1783693653189320400,6.024320556640625,-0.19703765283823013,0.031898455498740076,-0.06679886929243803
1783693653199283700,6.03428369140625,-0.15799217512905597,0.029732290440797803,-0.041794630286842584
1783693653209245700,6.04424560546875,-0.08851707236468792,0.025628617981635033,-0.008159779449552297
1783693653219208700,6.054208740234375,-0.026187749701738355,-0.0446807801824063,-0.024100860425084827
1783693653229170700,6.064170654296875,0.032902152648568155,-0.0681657737314701,-0.023244828117638824
1783693653239133700,6.0741337890625,0.05704641382396221,-0.08131649333611131,0.0014961568418890238
1783693653249095700,6.084095703125,0.03113455845415592,-0.09206891962736845,0.014313991230353712
1783693653259058700,6.09405859375,0.024457564908266068,-0.07605696537271142,0.052140740799531335
1783693653269020700,6.104020751953125,0.01575286492705345,-0.06952734440825879,0.06724785516895354
1783693653278983700,6.113983642578125,-0.0038701194316148758,-0.08104834391921759,0.0680428049389273
1783693653288945700,6.123945556640625,0.025984336084127424,-0.03801905727088451,0.07138210542947053
1783693653298908700,6.13390869140625,-0.008329436928033828,-0.02762793857268989,0.12487353018559515
1783693653308870700,6.14387060546875,-0.04347323102355003,0.01103548101633787,0.1402773624792695
1783693653318833700,6.153833740234375,-0.10181669892072677,0.037534707820042965,0.12481763527989387
1783693653328795600,6.163795654296875,-0.11633213100731372,0.00019793372489511964,0.12464578584432601
1783693653338758700,6.173758544921875,-0.11099953780770301,0.04529131329618394,0.057440381577610965
1783693653348720600,6.183720703125,-0.1298877781510353,0.056079468487948175,0.004587912312150002
1783693653358683600,6.19368359375,-0.09514555059373378,0.03734218092262745,-0.05806713517382741
1783693653368645600,6.203645751953125,-0.022958850783109663,0.014408099254593252,-0.10299823685549199
1783693653378607900,6.21360791015625,0.01667173333764076,-0.013310147950053215,-0.12546557779461145
1783693653388570600,6.223570556640625,0.05997545301318168,-0.05060688229575753,-0.13193075522072611
1783693653398532600,6.23353271484375,0.09749532859027385,-0.06169416656456887,-0.15170980692394076
1783693653408495600,6.24349560546875,0.07486848624050617,-0.04891344931609928,-0.12704853613711892
1783693653418457900,6.253457763671875,0.03951017261147499,-0.014686185543611644,-0.061521221150457855
1783693653428420900,6.2634208984375,-0.01587619904577732,-0.004492489113658666,-0.026408479780331253
1783693653438382600,6.273382568359375,-0.03153904760181904,0.006938859352469444,-0.036632936674728986
1783693653448345600,6.283345703125,0.013922142368555069,0.006363470617309212,-0.0011893559150397777
1783693653458307800,6.293307861328125,0.02886661352217197,-0.0065559244494885205,0.05631627291850745
1783693653468270800,6.303270751953125,0.06280044730603694,-0.009265548734366894,0.06972703169882297
1783693653478232600,6.313232666015625,0.05108429054915905,-0.011125497387349605,0.07105426171459257
1783693653488195600,6.323195556640625,-0.010796119302511214,0.003186886407807469,0.055791956783458586
1783693653498157600,6.333157470703125,-0.08231704868078231,0.01344824124649167,0.05133125104755163
1783693653508120600,6.34312060546875,-0.1461520997315645,0.0030723201174288985,0.06251578514575958
1783693653518082600,6.35308251953125,-0.2148503729045391,-0.01498407251164317,0.053814811491593714
1783693653528045600,6.363045654296875,-0.2647287947952747,-0.026652663799747824,-0.011503025462850928
1783693653538007600,6.373007568359375,-0.24564473961889743,-0.033728009013459084,-0.01675488157644868
1783693653547970600,6.382970458984375,-0.18490648553967476,-0.04272277798242867,0.018502528961375355
1783693653557932500,6.3929326171875,-0.10693886424005031,-0.02738273163996637,0.0009217910200357436
1783693653567895600,6.4028955078125,-0.10895312667191027,0.011503683049976825,-0.016722732872515914
1783693653577857500,6.412857421875,-0.07088146243095397,0.05937397998869419,-0.015953867391869426
1783693653587820500,6.422820556640625,-0.0348041868776083,0.043832931181415916,-0.01282587156444788
1783693653597782500,6.432782470703125,0.007876432463526725,0.04515950361005962,-0.0026044103447347877
1783693653607745500,6.44274560546875,0.03283610167503357,0.02621105751208961,-0.04641154949776828
1783693653617707500,6.45270751953125,0.12955810780525207,-0.042478301702067255,-0.020214228250086307
1783693653627670500,6.46267041015625,0.2021446205884218,-0.07451594647578895,-0.0034472909096628424
1783693653637632500,6.472632568359375,0.22815526015758514,-0.08461129709780216,-0.009990063616633415
1783693653647595500,6.482595458984375,0.21744331200718878,-0.050943201578035946,-0.041846287408843635
1783693653657557500,6.4925576171875,0.14218553418815136,-0.003902560396492481,-0.0010885989543050526
1783693653667520500,6.5025205078125,0.043752047964930534,0.08148132850900291,0.055662850511074065
1783693653677482500,6.512482421875,-0.05850596498250961,0.033075024997442956,-0.03331920901685953
1783693653687445800,6.52244580078125,-0.16634148580133915,0.05632818255200982,0.10866210783608257
1783693653697407500,6.532407470703125,-0.24165654676556586,0.05475954499579966,0.1422039466276765
1783693653707370500,6.54237060546875,-0.28528701417744157,-0.07185929448716342,0.03183803054839372
1783693653717332500,6.55233251953125,-0.2858171755313873,-0.10244352558217942,-0.0008516483932733535
1783693653727295700,6.562295654296875,-0.2937561518371105,-0.0954123117711395,-0.04832447044700384
1783693653737257500,6.572257568359375,-0.24104513686895368,-0.05746938847638666,-0.014889233835041522
1783693653747220500,6.582220458984375,-0.1558206763088703,-0.0037535803798586127,0.013742182691767812
1783693653757182700,6.5921826171875,-0.07515724005401134,0.014304711945354938,0.054573813165351745
1783693653767145700,6.602145751953125,0.028578444230556485,0.015487565054371951,0.07222045594975351
1783693653777107500,6.612107421875,0.13744856879413128,0.03459083638787269,0.10142200051471591
1783693653787070500,6.622070556640625,0.19162322657406328,0.065016442855075,0.13179887246936559
1783693653797032700,6.63203271484375,0.1914274117410183,0.07268946170099079,0.15919818991795182
1783693653806995700,6.64199560546875,0.17995733869969843,0.07976071526147424,0.14644859846010802
1783693653816957400,6.65195751953125,0.1559217985957861,0.05987601122669875,0.09923581558205187
1783693653826920400,6.66192041015625,0.13610007679462433,0.02858757738508284,0.03552132217101753
1783693653836882700,6.671882568359375,0.15876082141399384,-0.033840821738168596,-0.0049362142931669946
1783693653846845700,6.681845703125,0.1307674835950136,-0.07644596469029784,-0.02756042629443109
1783693653856807400,6.691807373046875,0.03925006037056446,-0.06061696578711271,-0.027961408310756084
1783693653866770400,6.7017705078125,-0.057654316589236254,-0.018434286030754445,0.0020891542989760637
1783693653876732700,6.711732666015625,-0.14834931751489638,0.017179828990250823,0.05827485964037478
1783693653886695700,6.72169580078125,-0.21344985845685005,0.043257980837672946,0.11053148190453647
1783693653896657400,6.731657470703125,-0.263241771107912,0.05693827727437019,0.09985387441515922
1783693653906620400,6.741620361328125,-0.26241291906833647,0.07661803332157432,0.06310337577536702
1783693653916582700,6.751582763671875,-0.2138122620284557,0.04854366615563631,0.05190247506424785
1783693653926545700,6.761545654296875,-0.18606559244692325,0.032955051879584786,0.025181568333879113
1783693653936507400,6.77150732421875,-0.15710428637862203,-0.0021283903308212757,-0.02914338463693857
1783693653946469600,6.7814697265625,-0.09113456138670444,-0.04877089904025197,-0.08109561712704598
1783693653956432600,6.7914326171875,-0.0365033920109272,-0.07351780228391289,-0.04442790139988065
1783693653966394600,6.80139453125,0.030422026270627973,-0.07352671624273062,-0.02584616972245276
1783693653976357600,6.811357666015625,0.07762976764738559,-0.059673766652867194,-0.0201871941126883
1783693653986319600,6.821319580078125,0.09897241540551185,-0.0319620953194797,0.022534926282614467
1783693653996282600,6.83128271484375,0.09594400749504566,0.002797960155457258,0.06708667325787246
1783693654006244600,6.84124462890625,0.05481470924913883,0.04329115245491266,0.08123743675053119
1783693654016207600,6.85120751953125,0.02510053898692131,0.0744643624190241,0.08872128969989716
1783693654026169600,6.861169677734375,0.03010112375319004,0.08067476136647164,0.10152560701966284
1783693654036132600,6.871132568359375,-0.05215747273862362,0.08356909456849097,0.09119045629240571
1783693654046094600,6.881094482421875,-0.10317103613913059,0.059592152784019706,0.03101816553287208
1783693654056057600,6.8910576171875,-0.1395253750681877,0.014907134817913174,-0.021411840536817908
1783693654066019600,6.90101953125,-0.14998831689357756,-0.008310805292800068,-0.04970781456418335
1783693654075982600,6.910982666015625,-0.09312953459620475,-0.04247961687631905,-0.07085245553217828
1783693654085944600,6.920944580078125,-0.014279869765043259,-0.031119141689315438,-0.09321998935863375
1783693654095907600,6.930907470703125,0.09122983845472335,-0.0558467557106167,-0.06264737563617527
1783693654105869600,6.94086962890625,0.17675415874421596,-0.044521424902230496,-0.02738134340047836
1783693654115832600,6.95083251953125,0.19846388624906539,0.004638327325135469,0.007451996506378054
1783693654125794600,6.960794677734375,0.13927987587451934,0.03202266640029847,0.03884834770187735
1783693654135757600,6.970757568359375,0.019551088166236876,0.10438647634349763,0.05774075276367366
1783693654145719600,6.980719482421875,-0.0928314284324646,0.15717983583286405,0.07278561555184423
1783693654155682600,6.9906826171875,-0.14491817402243615,0.1311962304010987,0.053852951544895764
1783693654165644500,7.00064453125,-0.13076105385422707,0.06775733906105161,0.05987579203099012
1783693654175607800,7.01060791015625,-0.09001987814307212,0.028655016598105428,0.04854921911358833
1783693654185569500,7.020569580078125,-0.06921499052345752,0.01829436610341072,0.021323358535766602
1783693654195532500,7.030532470703125,-0.08888239854574204,-0.010970014564692973,-0.015573782033100723
1783693654205494500,7.04049462890625,-0.11935527822077274,-0.0026057255189865826,-0.0527143029037863
1783693654215457800,7.050457763671875,-0.14238193354308604,0.00009169687144458293,-0.09392287693098186
1783693654225419500,7.06041943359375,-0.16996259890794754,-0.0033749563258141276,-0.09170147455446422
1783693654235382500,7.070382568359375,-0.1378963125616312,-0.009796513805910944,-0.07424202490523457
1783693654245344500,7.080344482421875,-0.08742927712798118,-0.015524243802949785,-0.08407843233011662
1783693654255307800,7.090307861328125,-0.025279402685165403,-0.02105433233603835,-0.06875935571044683
1783693654265269500,7.10026953125,0.007256839260458945,-0.00448927424326539,-0.007422916542366147
1783693654275232500,7.110232421875,0.06256546950638293,-0.0017206132475286722,0.011637830823659896
1783693654285194800,7.12019482421875,0.09589549217820167,-0.001985036337375641,0.010532207669317721
1783693654295157800,7.13015771484375,0.09109364485442638,0.021334537516906855,0.003904533157870173
1783693654305119500,7.140119384765625,0.07349661336541176,0.021073548493161797,0.028134134529158472
1783693654315082500,7.15008251953125,0.05031739782989025,0.02897650363743305,0.00899805690459907
1783693654325044700,7.160044677734375,0.02388181084692478,0.01023110583089292,-0.006844166806340217
1783693654335007700,7.1700078125,0.007604045262932777,-0.013504647608846424,0.019191388008370995
1783693654344969500,7.179969482421875,-0.05043021055459976,-0.01585749434530735,0.03144530490376055
1783693654354932500,7.189932373046875,-0.09124678958952426,-0.006507628328353166,0.05632869400866329
1783693654364894700,7.199894775390625,-0.09571545943617821,-0.026507994632050395,0.06183576699234545
1783693654374857700,7.209857666015625,-0.05756371569633484,-0.044848757160454986,0.06523980328217148
1783693654384819500,7.2198193359375,-0.038595395854115484,-0.025828780196234583,0.11181143871247767
1783693654394782500,7.229782470703125,-0.02290799737870693,-0.0203120626013726,0.13705482023619114
1783693654404744700,7.23974462890625,-0.025079496198892593,0.0035761779863387345,0.1324269412398338
1783693654414707700,7.249707763671875,-0.08119885830581187,0.024697949535399673,0.13243607439436017
1783693654424669400,7.25966943359375,-0.16145605184733866,0.015027327131479978,0.09500095449127256
1783693654434632400,7.269632568359375,-0.1836971097499132,0.007217822424322366,0.04207249738015234
1783693654444594700,7.2795947265625,-0.19685002131164073,-0.02381882861331105,-0.013311316993832588
1783693654454557700,7.2895576171875,-0.17035247500836848,-0.019428265504166483,-0.04090053099133074
1783693654464519400,7.29951953125,-0.10418050544261932,0.0070749068222939965,-0.048895329137519
1783693654474482400,7.309482421875,-0.010924129596352576,0.02110672011040151,-0.03426628060862422
1783693654484444000,7.31944384765625,0.05105272636711597,-0.01907631026133895,-0.016351780668273568
1783693654494406000,7.329406005859375,0.11365443623065948,-0.02927029895223677,-0.006066168171167373
1783693654504369000,7.339368896484375,0.12429098105728625,-0.03598462883383036,0.0022513591233640907
1783693654514331000,7.349330810546875,0.09330489116311073,-0.03703757195286453,0.018026801208406686
1783693654524294000,7.3592939453125,0.05728431423306465,-0.009600187516212463,0.06145896956920623
1783693654534255900,7.369255859375,0.0021335048973560333,0.027799714943021536,0.11092837226763368
1783693654544219100,7.37921923828125,-0.029682021558284758,0.027364026939496397,0.16560966439545152
1783693654554180900,7.389180908203125,-0.049552843198180194,0.026571122996136544,0.18659268506094812
1783693654564143900,7.399143798828125,-0.05151625222563743,0.017573139156773686,0.13751798076853156
1783693654574105900,7.40910595703125,-0.07429390122294426,-0.0069081719532608984,0.08580364868752657
1783693654584069000,7.419069091796875,-0.10052139841318129,-0.027629326812177894,0.03926825361438095
1783693654594030800,7.42903076171875,-0.10892390057742594,-0.034115985417738554,-0.022085575079917905
1783693654603993900,7.438993896484375,-0.10268412940502167,-0.03910539120286703,-0.023942454992979763
1783693654613956000,7.4489560546875,-0.10362579416930674,-0.02119001447968185,-0.01441942436620593
1783693654623919000,7.458919189453125,-0.06026596039235591,0.01922024877667427,0.019288272511586546
1783693654633880800,7.468880859375,-0.003892331263422966,0.030194793386012313,0.04087203554920852
1783693654643843800,7.47884375,0.08268062129616736,0.037362493058294054,0.04368891960084438
1783693654653806000,7.48880615234375,0.10674480297267436,0.04217741905935109,0.041289968700334426
1783693654663769000,7.49876904296875,0.10142039307951926,0.050936991032958026,0.037729938131198286
1783693654673730800,7.508730712890625,0.049026188975572586,0.06416830159313977,0.020349691198021172
1783693654683693800,7.51869384765625,-0.03011106062531471,0.05548091807290911,0.04574987071864307
1783693654693656000,7.528656005859375,-0.09906710795164107,0.0641631504939869,0.04842157414592802
1783693654703619000,7.538619140625,-0.10850538290441035,0.043646541763842105,0.059034665031731125
1783693654713580800,7.548580810546875,-0.1236743104636669,0.01954842128511518,0.04915142279043793
1783693654723543800,7.558543701171875,-0.09500351177453994,-0.005132211789302527,0.028880349786579607
1783693654733506000,7.568506103515625,-0.026831308302283287,-0.028970475755445656,-0.00013802023120224475
1783693654743469000,7.578468994140625,0.06852993086874484,-0.04417801829203963,0.010135682632401584
1783693654753430800,7.5884306640625,0.11692308263778686,-0.06471917694155127,0.02247289389707148
1783693654763393800,7.598393798828125,0.1093921026110649,-0.03877831467296928,0.00961143956258893
1783693654773356000,7.60835595703125,0.02912906385064125,0.025938852974586188,0.039367695400863885
1783693654783319000,7.618319091796875,-0.1243061786264181,0.07100976498574019,0.050270124622061846
1783693654793280800,7.62828076171875,-0.25847557961940765,0.10309252754282205,0.05844912022873759
1783693654803243800,7.638243896484375,-0.3152455145895481,0.08488587625548243,0.031948724381253124
1783693654813206000,7.6482060546875,-0.31018530859053134,0.08285868127681315,0.004947685535252094
1783693654823169000,7.6581689453125,-0.2562941439270973,0.04248429305143654,0.0003736556179821491
1783693654833130800,7.668130859375,-0.13334873225986957,-0.00644987025912851,0.003714709674194455
1783693654843093800,7.67809375,-0.01115618478655815,-0.051224977661482984,-0.009451499760523438
1783693654853056000,7.688055908203125,0.058117257925868034,-0.04184475303888321,-0.005910246957093477
1783693654863019000,7.69801904296875,0.09451017529964446,-0.022243761316314337,0.025593948527052997
1783693654872981000,7.70798095703125,0.09802665898799896,0.03772785577196627,0.030671617117524145
1783693654882943700,7.71794384765625,0.10308101976811886,0.053958384680747984,0.0325892142418772
1783693654892906000,7.727906005859375,0.08126257119178772,0.046983431101590395,0.010584814639389515
1783693654902869000,7.737868896484375,0.033336452412605286,0.03358122095391154,-0.03453143435083329
1783693654912831000,7.7478310546875,0.021381226202845573,-0.004258643825165927,-0.06348463017791509
1783693654922794000,7.7577939453125,-0.04038695544600487,-0.01995448133535683,-0.08637399592138827
1783693654932756000,7.767755859375,-0.06507774458825588,-0.021544819266721606,-0.06605126579552889
1783693654942719000,7.777718994140625,-0.10752046352028846,-0.008957615296356379,-0.03757591661326587
1783693654952681000,7.787680908203125,-0.1363134272843599,0.013188421266525982,-0.00800553873591125
1783693654962644000,7.79764404296875,-0.1432066939294338,0.03383559757377952,0.02984817190542817
1783693654972606000,7.80760595703125,-0.14594400993883608,0.05279244617391377,0.023416093031316993
1783693654982569000,7.81756884765625,-0.1301315237790346,0.06967683588154613,0.05275565782748162
1783693654992531000,7.827531005859375,-0.10805763913691044,0.0816851074527949,0.05136763753518462
1783693655002494000,7.837493896484375,-0.03662438804209232,0.07226886166874319,0.04173011368326843
1783693655012456000,7.8474560546875,-0.059603112569451326,0.0650624008886516,0.0378488883357495
1783693655022418000,7.85741796875,-0.10336977358162402,0.09405212933383882,0.014575418645516038
1783693655032381200,7.867381103515625,-0.12574644056260584,0.061707281774468714,0.004779489361494779
1783693655042343000,7.877343017578125,-0.05961480300724506,0.001204297755844891,-0.010881094172224402
1783693655052306000,7.887305908203125,-0.021647768184542653,-0.04112177252657711,-0.038529198750108476
1783693655062268000,7.897267822265625,0.025624855121970175,-0.042193018487282095,-0.04132591679655015
1783693655072231200,7.907231201171875,0.05856207908391952,-0.0433791960645467,-0.02483867318034172
1783693655082193000,7.91719287109375,0.09409341119229793,-0.01247881169244647,0.0014792057070881128
1783693655092156000,7.927156005859375,0.10664368068575858,0.030080921215377747,0.01734634466357529
1783693655102118000,7.937117919921875,0.10219663814902305,0.04061031587310135,0.0400462522495538
1783693655112081200,7.9470810546875,0.08587035724818706,0.02594630562867969,0.026670564782619473
1783693655122043000,7.95704296875,0.10211655865013598,-0.006478840625286102,0.01615581970475614
1783693655132006000,7.967005859375,0.09045593147277832,-0.018610482847876846,0.011397080870345234
1783693655141968100,7.976968017578125,0.07149170328378678,-0.022403810716234145,0.007911138450726865
1783693655151931100,7.98693115234375,0.06178630182743072,-0.03912281726170331,0.023956191257387398
1783693655161892900,7.996892822265625,0.01507891118824482,-0.03868639860581606,0.035615064869076014
1783693655171856000,8.00685595703125,-0.07836918783783912,-0.0007727379381656646,0.007273571199551224
1783693655181818000,8.016818115234376,-0.17277122658789157,0.009793006674572825,-0.03166252785101533
1783693655191781000,8.026781005859375,-0.26408698976039885,0.03843790373746305,0.014987652708217501
1783693655201742800,8.036742919921876,-0.3488689672499895,0.07687898581270128,0.03667538757696748
1783693655211705900,8.046705810546875,-0.3210580002605915,0.08736757353600114,0.082836104118824
1783693655221668000,8.056668212890624,-0.23739070601463316,0.0736805550975725,0.12594963498450815
1783693655231631000,8.066631103515626,-0.1293786595851183,0.06179510618839413,0.1478450943198055
1783693655241592800,8.0765927734375,-0.024087562552094457,0.024160262462124226,0.1250507864486426
1783693655251555800,8.086555908203126,0.01938625299334526,0.018362170642614365,0.0958066448509693
1783693655261518000,8.09651806640625,0.04013093485832214,0.017652268807590007,0.05312295676991343
1783693655271481000,8.106481201171874,0.06841594910025596,0.028383140854164955,0.010867796299234032
1783693655281442800,8.11644287109375,0.03686754914820194,0.005734050139971077,0.0012014847442507743
1783693655291405800,8.12640576171875,0.024969021561741828,0.027897731957398354,-0.010739566809684038
1783693655301368000,8.1363681640625,0.028747371056675908,0.012094634680449962,-0.02090001855716109
1783693655311331000,8.1463310546875,0.05866787754595279,-0.03689728669933975,-0.005223799062892795
1783693655321292800,8.156292724609376,0.10241641837954521,-0.042958596032299096,0.027155352624878285
1783693655331255800,8.166255859375,0.061087798169255254,-0.017612082927674053,0.04968224173150956
1783693655341218000,8.176218017578124,0.03717033148705959,0.008572780697233974,0.0669702072713524
1783693655351181000,8.18618115234375,0.022539164066314697,0.0195931006770581,0.08392251111604272
1783693655361142800,8.196142822265625,-0.012397124758362769,0.04231295507252216,0.06968596903607249
1783693655371105800,8.206105712890626,-0.02424479894042015,0.049125265435874456,0.0725801561076194
1783693655381068000,8.216068115234375,-0.00623100334405899,0.04487725260257721,0.1045104680493474
1783693655391031000,8.226031005859374,-0.041001287952065466,0.02490275139249861,0.06189421918131411
1783693655400992800,8.23599267578125,-0.08645897079110144,0.005503163993544876,0.0025598405506461856
1783693655410956000,8.2459560546875,-0.13825170187056063,-0.031151728784665465,-0.0033491642974317073
1783693655420918000,8.25591796875,-0.12914075917601583,-0.025124139058217403,-0.03003996815048158
1783693655430881000,8.265881103515625,-0.19031448206305504,-0.016703882041573522,-0.05014956698231399
1783693655440842800,8.2758427734375,-0.16947803026139735,-0.006609919659048318,-0.02070975668206811
1783693655450806000,8.285805908203125,-0.09346914181411266,0.004360606362298131,0.05349821982309222
1783693655460768000,8.29576806640625,-0.07760580224990844,0.00607519172783941,0.12296747736856341
1783693655470731000,8.30573095703125,-0.01953355250954628,0.017322013939917086,0.16498597953915595
1783693655480692700,8.315692626953124,0.02577157011628151,0.019656923160888254,0.19277137369588015
1783693655490656300,8.32565625,0.03886252235770225,0.044195553948730225,0.1793448328245431
1783693655500618500,8.335618408203125,0.027858313262462613,0.05711911373399198,0.1415419025223702
1783693655510581500,8.34558154296875,0.03606383154988289,0.07054309732206165,0.06917319720834493
1783693655520543200,8.355543212890625,0.04282674981355667,0.05054466724712401,0.005788739469274878
1783693655530505500,8.36550537109375,0.017637948021292687,0.04669233920052647,-0.06608304917328059
1783693655540468500,8.375468505859375,0.01842763709425926,0.04365319070033729,-0.10627104798108339
1783693655550430200,8.38543017578125,0.01837269203662872,-0.014458148941397667,-0.14919424390643835
1783693655560393200,8.395393310546876,-0.014268763849139212,-0.059175425209291276,-0.16764168167971075
1783693655570355500,8.40535546875,-0.0048334115058183665,-0.09629358811769634,-0.1648703172702342
1783693655580318500,8.415318359375,-0.007700491374731063,-0.08529182670786976,-0.1083544301263988
1783693655590280200,8.4252802734375,-0.04111526972055435,-0.020118330127559602,-0.02770458400547504
1783693655600243500,8.435243408203124,-0.01952303111553192,0.03078600074481219,0.0499943764206022
1783693655610205400,8.445205322265625,-0.04293254827558994,0.06627722003851086,0.1092509405747056
1783693655620168400,8.45516845703125,-0.11230126805603503,0.09579893646854906,0.11151610902771353
1783693655630130400,8.46513037109375,-0.16565116544961928,0.0907224734544754,0.07271452307701111
1783693655640093400,8.475093505859375,-0.18629297146201132,0.052954797128774225,0.05703399273380637
1783693655650055400,8.485055419921874,-0.19787819531559944,0.003559738308191299,0.031737711979076266
1783693655660018400,8.495018310546875,-0.2298690783381462,-0.02679163387902081,-0.026085896762460467
1783693655669980400,8.50498046875,-0.2291629758954048,-0.0357122051006183,-0.02833813266865909
1783693655679943400,8.514943359375,-0.18874387174546717,-0.014446750764548778,-0.01674538309574127
1783693655689905400,8.524905517578125,-0.16783903088271618,0.007413454594276845,-0.03694207568913698
1783693655699868400,8.534868408203126,-0.09279811068475245,0.022173874417878686,-0.03760346220731735
1783693655709830400,8.544830322265625,-0.003217208480834961,0.03853621301278472,-0.030562969111278652
1783693655719793400,8.55479345703125,0.08524725691378116,0.02955287875328213,-0.01591872301325202
1783693655729755400,8.56475537109375,0.16020342143774033,0.032777686018683014,-0.0043701779082417486
1783693655739718400,8.574718505859375,0.20351824702918528,0.03735566145870834,0.011939297988265752
1783693655749680600,8.5846806640625,0.1648965476900339,0.024570779491774736,0.008239566687494516
1783693655759643400,8.594643310546875,0.10854513039290904,0.015013590867072343,-0.016979337982088328
1783693655769605400,8.60460546875,0.0572691166639328,0.021870982481166718,-0.02822451622635126
1783693655779568400,8.614568359375,-0.01482347512245178,-0.00034176264237612485,-0.03727444944866001
1783693655789530600,8.624530517578124,-0.06958031670451163,-0.019792824500240384,-0.049463776675239206
1783693655799493400,8.634493408203125,-0.10503449192345142,-0.009258826732635497,-0.06445376747101544
1783693655809455400,8.644455322265625,-0.12778408387005327,0.007378967802785337,-0.03254720173105597
1783693655819418400,8.65441845703125,-0.12558218991160391,0.01619735729154199,0.014158289211988449
1783693655829380600,8.664380615234375,-0.1145902557760477,0.03725654846578836,-0.00313194135017693
1783693655839343400,8.67434326171875,-0.12141922501325607,0.04235942456275225,0.004066372656077146
1783693655849305300,8.684305419921875,-0.10268939010202884,0.056956872376985844,0.03721826228201389
1783693655859268400,8.694268310546875,-0.08325111466050147,0.06891739581637084,0.0799757462516427
1783693655869230600,8.704230712890626,-0.07489595876932144,0.07699494034256786,0.08098777283839881
1783693655879193300,8.714193359375,-0.05206161114871501,0.059125448587723076,0.08556019532047211
1783693655889155300,8.7241552734375,0.006617372313141822,0.013212277066148817,0.06931903541982173
1783693655899118300,8.734118408203125,0.04932078800797462,-0.030523294688016175,0.006573240910470486
1783693655909080600,8.74408056640625,0.07276713004708289,-0.03361081237457692,-0.03507277468591928
1783693655919043300,8.754043212890625,0.022172668841481207,-0.023785583930835127,-0.031508798594027755
1783693655929005300,8.76400537109375,-0.05797697267234325,-0.011103906610049306,-0.03985357922166586
1783693655938968300,8.77396826171875,-0.05890519343316555,-0.0008129603506997227,-0.041225890488177534
1783693655948930600,8.7839306640625,-0.03246259218752384,-0.05139916518460959,0.0075597677297890185
1783693655958893300,8.793893310546874,0.0014215572357177734,-0.04767956013958901,0.040258214499801395
1783693655968855300,8.803855224609375,-0.026634324425458905,-0.028282347360812126,0.06413856404200195
1783693655978817500,8.813817626953124,-0.047312370795011514,0.006510916263982653,0.08589958334267139
1783693655988780500,8.823780517578125,-0.036407530421018595,0.051049182703159744,0.10809066462367772
1783693655998742300,8.8337421875,-0.02492109076678753,0.06553779984805733,0.11314729042612015
1783693656008705300,8.843705322265626,-0.05445990446209907,0.07663977022934705,0.07701243946664035
1783693656018667500,8.85366748046875,-0.06546586712300777,0.07204246903434396,0.03688274671733379
1783693656028630500,8.863630615234374,-0.04250467825233936,0.059494866422004994,0.011055939282476902
1783693656038592300,8.87359228515625,-0.034921091255545614,0.023757198086567222,-0.012022007835656403
1783693656048555300,8.88355517578125,-0.02187280911207199,-0.023667035585083065,-0.07895546329319476
1783693656058517500,8.893517578125,-0.030005846685171124,-0.05674816152974963,-0.10592902961038052
1783693656068480500,8.90348046875,-0.024323124873638153,-0.05501804980151355,-0.06081789518669247
1783693656078442200,8.913442138671876,-0.002650222247838974,-0.04557140887919813,-0.002530541390925646
1783693656088405200,8.9234052734375,0.00865443109869957,-0.012313391997665166,0.026503099261224267
1783693656098367500,8.933367431640624,0.0034001638323068618,-0.02307122511640191,0.06198138600811362
1783693656108330500,8.94333056640625,-0.02287058797776699,0.002654460031539202,0.09785597859621048
1783693656118292200,8.953292236328124,-0.054983051553368564,0.03957362976912409,0.11576324507817626
1783693656128255500,8.96325537109375,-0.1047650273323059,0.01830320699699223,0.10144128973707556
1783693656138217500,8.973217529296875,-0.09048048139214515,0.002703231076709926,0.08385214929357171
1783693656148180500,8.983180419921876,-0.08561375213861465,-0.004917947984114289,0.08005896755568682
1783693656158142200,8.99314208984375,-0.059958501878380775,0.0038879473492503163,0.08281491520032286
1783693656168105500,9.00310546875,-0.06530979977846145,-0.0020079788215458393,0.09319412426501512
1783693656178067500,9.0130673828125,-0.03176116591989994,-0.016641045938432214,0.06295819515101611
1783693656188030500,9.023030517578125,-0.008965396744012833,-0.022443558204732834,0.03343618646003306
1783693656197992400,9.032992431640626,-0.016215806263685226,0.006616239801980554,0.001918839233368635
1783693656207955500,9.04295556640625,-0.03585574175715446,0.0591492313221097,-0.017747911201789975
1783693656217917400,9.05291748046875,-0.06729191350638866,0.0822939965987578,-0.03978599387817085
1783693656227880400,9.06288037109375,-0.10727262623906135,0.11345051115639507,-0.03278933992385864
1783693656237842400,9.072842529296874,-0.07782324439287185,0.09677172702345997,-0.04667874906659126
1783693656247805400,9.082805419921876,-0.020413842475414275,0.033602592535503205,-0.031283319275081156
1783693656257767400,9.092767333984375,0.03520809150338173,0.002213913189806044,-0.021046075964346527
1783693656267730400,9.10273046875,0.05660451527535915,-0.020217041261680422,-0.03478358248099685
1783693656277692400,9.1126923828125,0.0490121604502201,-0.04125544537622481,-0.025485154390335083
1783693656287655400,9.122655517578124,0.032469021928310395,-0.05920194789003581,-0.008533288937062025
1783693656297617400,9.132617431640625,0.045532501640915865,-0.015945099563524127,0.02125949951931834
1783693656307580400,9.142580322265625,-0.026955226942896843,0.009699190911278128,0.07294424017965793
1783693656317542400,9.15254248046875,-0.06975684231519699,0.011958806406334042,0.08080160261653363
1783693656327505400,9.16250537109375,-0.06962181775867939,0.013143924537673591,0.10079736581034958
1783693656337467400,9.17246728515625,-0.039616555595397944,0.021140622380003332,0.09732055654525756
1783693656347430400,9.182430419921875,-0.051851767790317534,0.01270158759765327,0.07812609979696572
1783693656357392400,9.192392333984374,-0.02232639809846878,0.005742050783336162,0.03048551996089518
1783693656367355400,9.20235546875,0.02743979558944702,0.011437741674296557,-0.02817600090950727
1783693656377317400,9.2123173828125,0.04307984779179096,0.00046896921861916776,-0.04025076184570789
1783693656387280400,9.2222802734375,0.025320903739333152,-0.0033540596682578323,-0.0637107670839876
1783693656397242400,9.232242431640625,-0.03612169921696186,0.01670026531238109,-0.08814465885572136
1783693656407204400,9.242204345703126,-0.07898995008468628,-0.0017325594136491417,-0.10271591278277337
1783693656417167400,9.25216748046875,-0.11750760452747344,-0.005193586587719619,-0.07512954832948744
1783693656427129600,9.262129638671874,-0.13241174367070196,-0.009835567174665629,-0.02844458871781826
1783693656437092400,9.27209228515625,-0.09976853421926497,-0.023147359092533588,0.008461611940339207
1783693656447054300,9.282054443359375,-0.09571662847995757,-0.0039904213430359955,0.051064051478728646
1783693656457017300,9.292017333984376,-0.08958207124769688,-0.003160509857535362,0.06942446855567395
1783693656466979600,9.3019794921875,-0.06956219652593136,-0.0008838336298242211,0.10506525238789617
1783693656476942300,9.3119423828125,-0.06466565665602683,0.008258234855346382,0.1375872466124594
1783693656486904800,9.32190478515625,-0.07191139000058173,0.02839274893272668,0.14745507208891212
1783693656496867800,9.331867919921875,-0.0743921009004116,0.026336510522663593,0.15433241051249205
1783693656506830000,9.341830078125,-0.02784194664955139,0.013150573474168776,0.12023914838321506
1783693656516793000,9.35179296875,-0.014408464580774306,0.00042871027346700426,0.08049852801673114
1783693656526754800,9.3617548828125,-0.043269232884049415,0.03040047202594578,0.014366086743772028
1783693656536717800,9.3717177734375,-0.06021101533472538,0.017379297085106372,-0.06032835810407996
1783693656546680000,9.38168017578125,-0.00554828177690506,-0.0042548444328829645,-0.07634286964200436
1783693656556643000,9.39164306640625,0.07027589775323867,-0.016236483725532887,-0.08201711588613689
1783693656566604800,9.401604736328125,0.12087912678718567,-0.027448819146119057,-0.06853687206618488
1783693656576567800,9.41156787109375,0.14963234306275844,-0.038040830711275335,-0.04589512440823018
1783693656586530000,9.421530029296875,0.1180892038077116,-0.0347954555818811,-0.004488178264722227
1783693656596493000,9.4314931640625,0.03572714694142341,-0.01893953213915229,0.023049597806483507
1783693656606454800,9.441454833984375,-0.011420388680696487,-0.02454272244106978,0.027195465439558027
1783693656616417800,9.451417724609374,-0.00734510206580162,0.004553096727095544,0.04483589767888188
1783693656626380000,9.461380126953125,-0.025686229920387268,-0.011412095776386558,0.05405212737880647
1783693656636343000,9.471343017578125,-0.07471826411485671,0.007393507784791291,0.03387969244383275
1783693656646304800,9.4813046875,-0.10708031853735446,0.04231412411630153,0.04737396478913724
1783693656656267800,9.491267822265625,-0.140336106929183,0.06031769057959318,0.05731470937132835
1783693656666230000,9.50122998046875,-0.22282442052364348,0.08160758523717522,0.05351480563171208
1783693656676193000,9.511193115234375,-0.29674188964962955,0.062404287595301866,0.045732846518605944
1783693656686154800,9.52115478515625,-0.34323183814585206,0.045912148608267304,-0.01675685433782637
1783693656696117800,9.53111767578125,-0.3289256648957729,0.020846900130435823,-0.022238208358362314
1783693656706080000,9.541080078125,-0.23104747446775434,0.009780512519180775,-0.030334274921938777
1783693656716043000,9.55104296875,-0.1107557921797037,0.006211239197663963,-0.008334989885985852
1783693656726004700,9.561004638671875,-0.0015063129097223282,0.018736374249868095,0.01728570051752031
1783693656735968000,9.570968017578124,0.06726736358702183,0.04745137740690261,0.04160422228127718
1783693656745930000,9.580929931640625,0.1573416022658348,0.04522106107156724,0.08849895218610764
1783693656755893000,9.59089306640625,0.19975217249393462,0.050743550820089876,0.11175532461106777
1783693656765854700,9.600854736328126,0.17956921616494653,0.02377634117845446,0.07269187285378576
1783693656775818000,9.61081787109375,0.13960487004518507,-0.0033970220271497963,0.03043342444747686
1783693656785780000,9.620780029296874,0.13534136738181113,-0.020471490946784614,0.02389079787097871
1783693656795743000,9.630742919921875,0.1000116953253746,-0.02101776318531483,-0.006159837803989649
1783693656805705000,9.640705078125,0.026588147196173667,-0.008843743125721813,-0.005283274165168404
1783693656815667000,9.6506669921875,-0.021682254976034165,0.007053900566883385,0.0036914749290794134
1783693656825630000,9.6606298828125,-0.08230068206787108,-0.009568404138460754,-0.017298048542439937
1783693656835592000,9.670592041015626,-0.16154373013079165,-0.0028595541495829817,-0.04620506714023649
1783693656845555000,9.680554931640625,-0.22068273231983185,0.017683650326542556,-0.06860957197621464
1783693656855517000,9.690516845703126,-0.21899054144918917,0.02688548617493361,-0.04550722106918692
1783693656865480000,9.70047998046875,-0.23662907399237154,0.035504699829779565,-0.021206965614482758
1783693656875442000,9.71044189453125,-0.19604162753820417,0.052578839955851435,0.018979279627650975
1783693656885405000,9.720405029296876,-0.08889934968054294,0.04112696015834808,0.06511544625014067
1783693656895367000,9.730366943359375,-0.005023965641856193,0.05929167200010269,0.12186075823567807
1783693656905330000,9.740329833984376,0.012548515927791595,0.0812482869381085,0.11690094387121498
1783693656915292000,9.7502919921875,0.026574118670821188,0.07577252240814268,0.11935725098215043
1783693656925255000,9.7602548828125,0.06585340513586997,0.05962693183645606,0.11370689707025886
1783693656935217000,9.770216796875,0.07294190209209919,0.003311864494346082,0.07781732610873877
1783693656945180000,9.780179931640625,0.04838613750636577,-0.020133746892400085,0.028169936494901775
1783693656955142100,9.79014208984375,0.008833879318833351,-0.031633265223912896,-0.030736572112515567
1783693656965105000,9.80010498046875,0.029264672929048538,-0.06793437612839043,-0.07799743191599845
1783693656975067000,9.81006689453125,0.05846621749401092,-0.061171786658279596,-0.07816665100306272
1783693656985030000,9.82002978515625,0.024008652096986768,-0.0017967472236603498,-0.0317811127293855
1783693656994992000,9.8299921875,-0.012995090651512145,0.035598844386637206,0.012437602899223566
1783693657004955000,9.839954833984375,-0.0175806648761034,0.052482247713580725,0.04277078184261918
1783693657014916900,9.849916748046875,-0.03850537948310375,0.059193581920489666,0.04544219300895929
1783693657024879900,9.8598798828125,-0.04195113602280617,0.05816584630794823,0.04931362761482596
1783693657034842000,9.869842041015625,-0.10209376229643821,0.05505319418013096,0.03118183166198432
1783693657044804900,9.879804931640624,-0.10949907011687755,0.04952865860499441,-0.029041750893369314
1783693657054766800,9.889766845703125,-0.07637246106266975,0.01207227671816945,-0.021953107806667684
1783693657064729900,9.899729736328124,-0.053476738643646236,-0.01699157640915364,-0.0001603781934827566
1783693657074692000,9.909692138671875,-0.028407179316878316,-0.028976065246015786,-0.023311682808771727
1783693657084654800,9.91965478515625,-0.0810018744289875,-0.031095687748491762,-0.026767157024890183
1783693657094616800,9.929616943359376,-0.08040566210150718,-0.06512954784072936,-0.021989348163828252
1783693657104579800,9.939579833984375,-0.08087211056947707,-0.02791998032182455,0.001920885059982538
1783693657114542000,9.9495419921875,-0.09853285494446754,0.012632212155871092,0.058521747073531145
1783693657124504800,9.9595048828125,-0.05484451986551284,0.02610617236550897,0.06457067184895277
1783693657134466800,9.969466796875,-0.028717560440301892,0.04635930785387754,-0.003526420560479164
1783693657144429800,9.979429931640626,-0.016312836897373197,-0.006369900358095764,0.1005659682072699
1783693657154392000,9.98939208984375,0.05562602563202381,0.03996573435924947,0.2009524151291698
1783693657164354800,9.999354736328126,0.012994506129622458,0.0741895640656352,0.11224990319497882
1783693657174316800,10.00931689453125,-0.09324702349603176,0.025206300916336476,-0.0160481946118176
1783693657184279800,10.01927978515625,-0.17272271127104757,-0.000007781447656452655,-0.09335106839239597
1783693657194242000,10.029241943359375,-0.15577216099202632,0.0002298267005011439,0.015321706968173384
1783693657204203800,10.039203857421874,-0.09518529808223247,0.03232522954344749,0.08335837442725896
1783693657214166800,10.049166748046876,-0.07108019987344741,0.07051949725076556,0.04565408219397068
1783693657224129000,10.05912890625,-0.02586217100918293,0.06630396191496402,0.0352288420304656
1783693657234092000,10.069092041015624,0.03734510353207588,0.05992551292423159,0.011982041151449083
1783693657244053800,10.0790537109375,0.03413490931391716,0.024265403337031602,-0.050459290518611664
1783693657254016800,10.089016845703124,0.006671148326992988,0.032119002914242446,-0.06960311305820942
1783693657263979000,10.09897900390625,-0.034759763213992115,0.04079031208250671,-0.05518675743192434
1783693657273942000,10.10894189453125,-0.07416179927587509,0.05225611080750823,-0.03947510129809379
1783693657283903700,10.11890380859375,-0.10082359623014926,0.03636924423724413,-0.026668957347422837
1783693657293866800,10.12886669921875,-0.08420622342824935,0.0013970438489690421,-0.04802249182574451
1783693657303829000,10.1388291015625,-0.04765080896914005,-0.016038403870165346,-0.057597544900700445
1783693657313792000,10.1487919921875,-0.025284663382172584,-0.040440804525092244,-0.057043856540694826
1783693657323753700,10.158753662109374,0.02313771448135376,-0.05666077550724148,-0.028140856530889866
1783693657333717000,10.168717041015626,0.07114099014997483,-0.03174476277437061,0.04068798421919346
1783693657343679000,10.178678955078125,0.08999883535504341,-0.004107069992646575,0.053176586653292175
1783693657353642000,10.18864208984375,0.0008668459624052047,0.040772849491052324,0.015670520405843852
1783693657363603700,10.198603759765625,-0.05448386985957622,0.051770044323615726,0.051698696120455856
1783693657373567000,10.20856689453125,-0.07006196274161339,0.09723810242619364,0.10929667941257357
1783693657383529000,10.218529052734375,-0.07912906629443169,0.057295748942531644,0.09300758871696889
1783693657393492000,10.228491943359375,-0.018345219507813454,0.007451959973759949,0.04544365431368351
1783693657403454000,10.238453857421876,-0.012712766578793526,-0.042275436073727905,-0.0035604689605534074
1783693657413417000,10.2484169921875,-0.10287059188783168,-0.03911014044322073,-0.09162088359892367
1783693657423379000,10.25837890625,-0.15532500174641609,-0.0411223570484668,-0.08870850328356027
1783693657433342000,10.268342041015625,-0.16975684720277787,0.008397204934619366,-0.011687953575700521
1783693657443304000,10.278303955078124,-0.06811550484895706,0.09456409744396806,0.06983743327073752
1783693657453267000,10.288266845703125,0.1403968972057104,0.10360464178342371,0.21870967868119476
1783693657463229000,10.29822900390625,0.1444926420867443,0.13179273498952387,0.21019823624975978
1783693657473192000,10.30819189453125,0.28540450307726856,-0.0037919030962511894,0.303307824036479
1783693657483154000,10.31815380859375,-0.10664835686087608,-0.037156924016214905,0.004810395956411958
1783693657493116400,10.328116455078124,-0.2779407430678606,-0.09714578450024128,-0.17925671614967287
1783693657503078100,10.338078125,-0.24056056822240351,-0.11801920731142163,-0.14091492973044514
1783693657513041200,10.348041259765624,-0.21348317620456217,-0.09883406638074665,-0.12498641597554087
1783693657523003400,10.35800341796875,-0.1962152305394411,-0.007599515218287706,-0.09166304224021732
1783693657532966400,10.36796630859375,-0.11070610781908034,0.027740641699545085,-0.058214288559556
1783693657542928100,10.37792822265625,0.006364274334907531,0.10132613892480731,0.015671616384387015
1783693657552890400,10.387890380859375,0.13738368686437605,0.07420359259098767,0.08826835830062628
1783693657562853400,10.397853271484376,0.19988485896289349,0.052144649789668616,0.06792845784425736
