time,seconds_elapsed,z,y,x
1783693659266281500,0.064281494140625,0.024933675304055214,-0.032517850399017334,0.07135868072509766
1783693659276244500,0.074244384765625,0.02540915459394455,-0.027290601283311844,0.037445563822984695
1783693659286206500,0.08420654296875,0.02668401040136814,-0.02022150717675686,0.006380321923643351
1783693659296169200,0.094169189453125,0.02231861837208271,-0.0155553687363863,-0.020615579560399055
1783693659306131500,0.10413134765625,0.02093137800693512,-0.0033762010280042887,-0.03380648419260979
1783693659316093400,0.114093505859375,0.016064101830124855,0.010366200469434261,-0.03990829735994339
1783693659326056400,0.124056396484375,0.017856409773230553,0.02356003411114216,-0.04684263467788696
1783693659336018400,0.134018310546875,0.02093091793358326,0.028013363480567932,-0.05182204023003578
1783693659345981400,0.1439814453125,0.01941717602312565,0.024341929703950882,-0.05535019561648369
1783693659355943400,0.153943359375,0.013135479763150215,0.018380455672740936,-0.05764197185635567
1783693659365906400,0.163906494140625,0.010330372489988804,0.005603141151368618,-0.05934559926390648
1783693659375868400,0.173868408203125,0.008337919600307941,-0.0012129266979172826,-0.05920945107936859
1783693659385831400,0.18383154296875,0.009060169570147991,-0.0016933610895648599,-0.05733431875705719
1783693659395793400,0.19379345703125,0.011602992191910744,0.00003820157144218683,-0.04729064181447029
1783693659405756400,0.20375634765625,0.011804327368736267,-0.003942425362765789,-0.027092695236206055
1783693659415718400,0.213718505859375,0.006453355774283409,-0.0069046420976519585,-0.0014093606732785702
1783693659425681400,0.223681396484375,-0.00039922393625602126,-0.0015958967851474881,0.028375698253512383
1783693659435643400,0.233643310546875,-0.009037943556904793,-0.00011412939056754112,0.051398273557424545
1783693659445606400,0.2436064453125,-0.013451865874230862,0.00223957234993577,0.06477773189544678
1783693659455568400,0.253568359375,-0.010913433507084846,0.0006265167612582445,0.07094227522611618
1783693659465531400,0.263531494140625,-0.0044382233172655106,-0.002934396266937256,0.07345789670944214
1783693659475493400,0.273493408203125,0.0028809651266783476,-0.0073659406043589115,0.07274189591407776
1783693659485456400,0.283456298828125,0.01554003544151783,-0.0072258575819432735,0.0702608972787857
1783693659495419000,0.2934189453125,0.023281577974557877,-0.006046876776963472,0.05751527473330498
1783693659505381600,0.303381591796875,0.02998528815805912,-0.008069813251495361,0.04129822179675102
1783693659515343600,0.313343505859375,0.0306635033339262,-0.006091862451285124,0.024603789672255516
1783693659525306600,0.323306640625,0.03109147399663925,-0.002949066460132599,0.008512436412274837
1783693659535268900,0.333268798828125,0.028101367875933647,-0.003971208818256855,-0.007438955828547478
1783693659545231600,0.343231689453125,0.024786796420812607,-0.002266253111883998,-0.016440173611044884
1783693659555193600,0.353193603515625,0.017985159531235695,0.004646014422178268,-0.01722021773457527
1783693659565156600,0.363156494140625,0.007125054486095905,0.012320445850491524,-0.015544823370873928
1783693659575118800,0.373118896484375,-0.006259832065552473,0.017342103645205498,-0.008689690381288528
1783693659585081600,0.38308154296875,-0.01834925264120102,0.020629510283470154,0.000981046468950808
1783693659595043600,0.393043701171875,-0.028408179059624672,0.016497604548931122,0.004107991233468056
1783693659605005800,0.403005859375,-0.03326471894979477,0.01130710355937481,0.003908786457031965
1783693659614968800,0.41296875,-0.03486074507236481,0.005486241541802883,-0.0021094419062137604
1783693659624930600,0.4229306640625,-0.032857514917850494,-0.0007016131421551108,-0.008147094398736954
1783693659634893600,0.4328935546875,-0.025107182562351227,-0.0015160077018663287,-0.015966935083270073
1783693659644855800,0.442855712890625,-0.01712062954902649,-0.004033227451145649,-0.017950456589460373
1783693659654818800,0.45281884765625,-0.007214897312223911,-0.00008402788080275059,-0.0138059351593256
1783693659664780500,0.462780517578125,-0.00025206274585798383,0.004873978905379772,-0.005238812416791916
1783693659674743600,0.47274365234375,0.0043973131105303764,0.012187782675027847,0.004009394906461239
1783693659684705800,0.482705810546875,0.008281000889837742,0.017037399113178253,0.00855807401239872
1783693659694668800,0.492668701171875,0.008231851272284985,0.015703706070780754,0.004423592239618301
1783693659704630500,0.502630615234375,0.0071298349648714066,0.006728586740791798,-0.00680749025195837
1783693659714593500,0.512593505859375,0.006471326574683189,-0.007948115468025208,-0.016545727849006653
1783693659724555800,0.5225556640625,0.00590194296091795,-0.010389967821538448,-0.012927290983498096
1783693659734518800,0.532518798828125,0.005195475649088621,-0.005714232102036476,0.006855214945971966
1783693659744480500,0.54248046875,0.0037195521872490644,-0.004131781868636608,0.037312719970941544
1783693659754443500,0.552443603515625,-0.002314680954441428,-0.00225450424477458,0.06622791290283203
1783693659764405800,0.56240576171875,-0.005924063269048929,0.00460606487467885,0.08772388100624084
1783693659774368800,0.57236865234375,-0.009721253998577595,0.0033743493258953094,0.09074786305427551
1783693659784330500,0.58233056640625,-0.014539445750415325,-0.006870831362903118,0.0852162092924118
1783693659794293800,0.592293701171875,-0.019648781046271324,-0.0020316150039434433,0.08319750428199768
1783693659804255700,0.602255859375,-0.02533622831106186,0.02771642804145813,0.09359634667634964
1783693659814218800,0.61221875,-0.03133673965930939,0.04584698751568794,0.10570473223924637
1783693659824180500,0.622180419921875,-0.024230359122157097,0.021383723244071007,0.08631531894207001
1783693659834143700,0.632143798828125,-0.017912549898028374,-0.014919167384505272,0.05095628276467323
1783693659844105700,0.642105712890625,-0.013928460888564587,-0.010459969751536846,0.024859966710209846
1783693659854068700,0.65206884765625,-0.014977989718317986,0.013356635347008705,0.004568941425532103
1783693659864030700,0.66203076171875,-0.013016304932534695,0.019534636288881302,-0.009190279990434647
1783693659873993700,0.67199365234375,-0.00931178592145443,0.016920490190386772,-0.02079816907644272
1783693659883955700,0.681955810546875,-0.006293624639511108,0.01931360736489296,-0.02689521014690399
1783693659893917700,0.691917724609375,-0.0037106608506292105,0.018909897655248642,-0.036186542361974716
1783693659903880700,0.701880615234375,-0.0038768420927226543,0.0071957167237997055,-0.04254643991589546
1783693659913842700,0.7118427734375,-0.005031513515859842,0.006138208322227001,-0.04325271397829056
1783693659923805700,0.7218056640625,-0.00939217396080494,0.010693810880184174,-0.03449171409010887
1783693659933767700,0.731767578125,-0.013023271225392818,0.010520118288695812,-0.017557745799422264
1783693659943730700,0.741730712890625,-0.01812295988202095,0.0076897102408111095,0.0008971613133326173
1783693659953692700,0.751692626953125,-0.01926593855023384,0.013704719953238964,0.018566232174634933
1783693659963655700,0.76165576171875,-0.02135705202817917,0.019624127075076103,0.036261074244976044
1783693659973618000,0.771617919921875,-0.02244478650391102,0.01753036305308342,0.048043303191661835
1783693659983580700,0.78158056640625,-0.020792560651898384,0.01120961643755436,0.052494511008262634
1783693659993542700,0.791542724609375,-0.021417157724499702,0.00906367227435112,0.051606185734272
1783693660003505700,0.801505615234375,-0.019613131880760193,0.0053674704395234585,0.04870227724313736
1783693660013468000,0.811468017578125,-0.017827818170189857,0.0031080215703696012,0.0433647558093071
1783693660023430700,0.8214306640625,-0.01633511669933796,0.004846000578254461,0.038768671452999115
1783693660033392600,0.831392578125,-0.011181602254509926,0.010080224834382534,0.036022868007421494
1783693660043355600,0.841355712890625,-0.007777016144245863,0.010266645811498165,0.0377294197678566
1783693660053318000,0.85131787109375,-0.004978262819349766,0.009752098470926285,0.03635399788618088
1783693660063280600,0.86128076171875,-0.007146342191845179,0.014755113050341606,0.03070649690926075
1783693660073242600,0.87124267578125,-0.01103148702532053,0.020203648135066032,0.023265035822987556
1783693660083205600,0.88120556640625,-0.01864093728363514,0.02350330539047718,0.015747996047139168
1783693660093167900,0.89116796875,-0.02205934189260006,0.023856669664382935,-0.0008023716509342194
1783693660103130600,0.901130615234375,-0.020287275314331055,0.022243592888116837,-0.02272205241024494
1783693660113092600,0.911092529296875,-0.016490744426846504,0.018495244905352592,-0.04760389402508736
1783693660123055600,0.9210556640625,-0.004260442219674587,0.013537238352000713,-0.062089089304208755
1783693660133017900,0.931017822265625,0.01104605570435524,0.01437637023627758,-0.06014599651098251
1783693660142980600,0.940980712890625,0.021667540073394775,0.013489005155861378,-0.05607349053025246
1783693660152942600,0.950942626953125,0.027623385190963745,0.009024488739669323,-0.051114220172166824
1783693660162905600,0.960905517578125,0.02735014446079731,-0.00037540472112596035,-0.044327687472105026
1783693660172867800,0.970867919921875,0.026499692350625992,0.003974604420363903,-0.02480975165963173
1783693660182830600,0.98083056640625,0.020241795107722282,0.01192387379705906,0.0010884229559451342
1783693660192792600,0.99079248046875,0.012799562886357307,0.00831239577382803,0.01785343885421753
1783693660202754800,1.0007548828125,0.0049490975216031075,-0.00015379313845187426,0.02399255894124508
1783693660212717800,1.0107177734375,0.002192180138081312,-0.003635362721979618,0.036450862884521484
1783693660222679600,1.020679443359375,-0.0015889760106801987,0.004002849571406841,0.047701653093099594
1783693660232642600,1.030642578125,-0.0007150384481064975,0.004788474179804325,0.05423775315284729
1783693660242604800,1.040604736328125,-0.0005549824563786387,-0.005040454678237438,0.04315927252173424
1783693660252567800,1.05056787109375,-0.0035265181213617325,-0.013511674478650093,0.029055649414658546
1783693660262529500,1.060529541015625,-0.0028282373677939177,-0.011269825510680676,0.016008557751774788
1783693660272492500,1.070492431640625,-0.0007356568239629269,-0.006436225026845932,0.007330872118473053
1783693660282454800,1.080454833984375,0.0008752893190830946,0.0032662036828696728,0.0015155939618125558
1783693660292417800,1.090417724609375,0.0030457917600870132,0.011206190101802349,-0.001821681740693748
1783693660302379500,1.100379638671875,0.0031613728497177362,0.01028233952820301,-0.011681236326694489
1783693660312342500,1.110342529296875,0.0055293734185397625,0.0010951906442642212,-0.02149070054292679
1783693660322304800,1.1203046875,0.00875126663595438,-0.001163702574558556,-0.0347851999104023
1783693660332267800,1.130267822265625,0.007956170476973057,0.0018867093604058027,-0.04385107383131981
1783693660342229500,1.1402294921875,0.007186783943325281,0.00024140835739672184,-0.0506458654999733
1783693660352192800,1.15019287109375,0.006508470047265291,-0.004729391075670719,-0.0464676171541214
1783693660362154800,1.16015478515625,0.006397949066013098,-0.001453969394788146,-0.032670844346284866
1783693660372117800,1.17011767578125,0.0061392574571073055,0.0017370416317135096,-0.013694615103304386
1783693660382079500,1.18007958984375,0.0024329363368451595,0.009779788553714752,0.006370172835886478
1783693660392042800,1.190042724609375,0.0016795839183032513,0.011788347736001015,0.019985895603895187
1783693660402004700,1.200004638671875,0.0016617407090961933,0.005473726894706488,0.022797394543886185
1783693660411967700,1.2099677734375,0.0025156845804303885,0.00019317411351948977,0.020398911088705063
1783693660421929500,1.219929443359375,-0.0005687886150553823,0.0012286111013963819,0.015212670899927616
1783693660431892700,1.229892822265625,-0.00010280777496518567,-0.007990670390427113,0.00834444910287857
1783693660441854700,1.239854736328125,0.007700520567595959,-0.012898077256977558,0.00641605444252491
1783693660451816700,1.249816650390625,0.012782344594597816,-0.005656703840941191,0.004359879530966282
1783693660461779700,1.25977978515625,0.02109912969172001,0.002787913428619504,0.0073479460552334785
1783693660471741700,1.26974169921875,0.023347798734903336,0.0006547233206219971,0.0039909216575324535
1783693660481704700,1.27970458984375,0.021178122609853745,-0.002861714456230402,-0.0050779408775269985
1783693660491666400,1.28966650390625,0.01742819882929325,-0.007773882709443569,-0.019811883568763733
1783693660501629400,1.29962939453125,0.012917337007820606,-0.009695087559521198,-0.03250078111886978
1783693660511591200,1.309591064453125,0.008138942532241344,-0.006408012472093105,-0.030499674379825592
1783693660521554200,1.31955419921875,0.006603363435715437,-0.005306796170771122,-0.02229554019868374
1783693660531516400,1.329516357421875,0.00465193809941411,-0.006738730706274509,-0.009440435096621513
1783693660541479400,1.3394794921875,0.004749409854412079,-0.0009697916684672236,0.006210695952177048
1783693660551441200,1.349441162109375,0.00231915689073503,0.007130994461476803,0.016840096563100815
1783693660561404200,1.359404052734375,0.00023922804393805563,0.003217745805159211,0.020733904093503952
1783693660571366400,1.369366455078125,-0.0026451502926647663,0.004449436441063881,0.01939287781715393
1783693660581329400,1.379329345703125,0.0009288120199926198,0.005203376989811659,0.016480978578329086
1783693660591291100,1.389291015625,0.0037246120627969503,-0.0008984379237517715,0.007140173576772213
1783693660601254100,1.399254150390625,0.0056617953814566135,-0.00650332635268569,0.00260720681399107
1783693660611216400,1.40921630859375,0.007731239777058363,-0.008526784367859364,-0.004776001442223787
1783693660621179400,1.419179443359375,0.005583399906754494,-0.010876225307583809,-0.012597438879311085
1783693660631141000,1.42914111328125,0.005653644911944866,-0.005310232751071453,-0.013781510293483734
1783693660641104100,1.439104248046875,0.005429406650364399,0.002194555476307869,-0.00518109742552042
1783693660651066400,1.44906640625,0.010062143206596375,-0.0020188200287520885,-0.0011776948813349009
1783693660661029400,1.459029296875,0.014733860269188881,-0.015020905062556267,-0.0017465460114181042
1783693660670991000,1.4689912109375,0.016218677163124084,-0.01510186679661274,0.0062454440630972385
1783693660680954000,1.4789541015625,0.01769779622554779,-0.0064165000803768635,0.018553776666522026
1783693660690916400,1.488916259765625,0.016142209991812706,-0.0100239934399724,0.017822640016674995
1783693660700879400,1.49887939453125,0.01622210443019867,-0.01299634762108326,0.016188256442546844
1783693660710841000,1.508841064453125,0.012590077705681324,-0.0033586430363357067,0.023948991671204567
1783693660720803300,1.51880322265625,0.010877398774027824,0.007134743966162205,0.0332210548222065
1783693660730766300,1.528766357421875,0.007514892145991325,-0.003565570805221796,0.024982566013932228
1783693660740728300,1.538728271484375,0.00826270692050457,-0.01097315363585949,0.010594837367534637
1783693660750691000,1.548691162109375,0.009744470939040184,0.0017916152719408274,0.008514427579939365
1783693660760653300,1.5586533203125,0.008475740440189838,0.0061378940008580685,0.007145563140511513
1783693660770616300,1.5686162109375,0.00619500270113349,-0.002379703801125288,0.0022197971120476723
1783693660780578300,1.578578369140625,0.005830149631947279,-0.005707856267690659,-0.0029925417620688677
1783693660790541000,1.588541015625,0.0022079115733504295,0.004924864508211613,-0.004335503093898296
1783693660800503300,1.59850341796875,0.0002560809953138232,0.009164083749055862,0.00184755795635283
1783693660810466300,1.60846630859375,0.0015277836937457323,-0.0019636834040284157,0.00769807118922472
1783693660820428300,1.61842822265625,-0.0010373730910941958,-0.01052920799702406,0.01347713079303503
1783693660830391300,1.628391357421875,-0.004959621001034975,-0.004844953306019306,0.018936123698949814
1783693660840353300,1.638353271484375,-0.008032642304897308,-0.00715284887701273,0.019770491868257523
1783693660850316300,1.64831640625,-0.0111552057787776,-0.008300147950649261,0.0172136090695858
1783693660860278300,1.6582783203125,-0.015611473470926285,-0.009958764538168907,0.016767529770731926
1783693660870241300,1.6682412109375,-0.01856406219303608,-0.006024206522852182,0.021192418411374092
1783693660880203300,1.678203369140625,-0.019094564020633698,-0.00020173774100840092,0.030067402869462967
1783693660890166300,1.688166259765625,-0.015070745721459389,-0.003009780542925,0.031216086819767952
1783693660900128300,1.698128173828125,-0.012178553268313408,-0.004918468184769154,0.02676061913371086
1783693660910091300,1.70809130859375,-0.010449333116412163,-0.003531262744218111,0.023258410394191742
1783693660920053200,1.71805322265625,-0.011533506214618683,-0.002926991321146488,0.017916642129421234
1783693660930016300,1.728016357421875,-0.00886497925966978,-0.009279637597501278,0.010097232647240162
1783693660939978200,1.737978271484375,-0.007475075777620077,-0.009309465065598488,0.005560270510613918
1783693660949941200,1.747941162109375,-0.00784366950392723,-0.004864668007940054,0.0005295941955409944
1783693660959903200,1.7579033203125,-0.008958735503256321,-0.0015940401935949922,0.0017415988259017467
1783693660969865200,1.767865234375,-0.009597417898476124,0.001039822236634791,-0.0009461097652092576
1783693660979828500,1.777828369140625,-0.010240837000310421,0.004660922102630138,-0.002267836593091488
1783693660989790200,1.787790283203125,-0.008767855353653431,0.004930947441607714,-0.00703832320868969
1783693660999753200,1.797753173828125,-0.0062839253805577755,0.00368219125084579,-0.015682676807045937
1783693661009715200,1.807715087890625,-0.0031777555122971535,-0.0003143876092508435,-0.017762547358870506
1783693661019678500,1.817678466796875,-0.0027471224311739206,-0.005092098377645016,-0.015944674611091614
1783693661029640200,1.82764013671875,-0.00011329009430482984,-0.006139302160590887,-0.010905089788138866
1783693661039603200,1.837603271484375,0.0049669560976326466,-0.005801080726087093,-0.005955604836344719
1783693661049565400,1.8475654296875,0.007119833491742611,-0.009259683080017567,0.0008923166897147894
1783693661059528400,1.857528564453125,0.009622937999665737,-0.007619975134730339,0.006183219142258167
1783693661069490200,1.867490234375,0.0053877695463597775,-0.005179716274142265,0.010626217350363731
1783693661079453200,1.877453125,-0.0036350202281028032,-0.0027916599065065384,0.0115806944668293
1783693661089415400,1.88741552734375,-0.008046602830290794,0.0030190874822437763,0.013343660160899162
1783693661099378400,1.89737841796875,-0.010860232636332512,0.010547843761742115,0.012026727199554443
1783693661109340200,1.907340087890625,-0.013451327569782734,0.011830157600343227,0.007095508277416229
1783693661119303200,1.91730322265625,-0.012248377315700054,0.004457728937268257,-0.003888167208060622
1783693661129265400,1.927265380859375,-0.006456540431827307,-0.002848397009074688,-0.009339374490082264
1783693661139228400,1.937228515625,-0.003709490178152919,-0.005183456465601921,-0.008327106945216656
1783693661149190100,1.947190185546875,0.0011921070981770754,-0.00892360508441925,-0.008038356900215149
1783693661159153200,1.957153076171875,0.006246786564588547,-0.00670918682590127,-0.0020425161346793175
1783693661169115400,1.967115478515625,0.010202856734395027,-0.0018209589179605246,0.006547729484736919
1783693661179078400,1.977078369140625,0.012017534114420414,0.0009788223542273045,0.0167540293186903
1783693661189040000,1.9870400390625,0.014406477101147175,-0.0027223879005759954,0.017873048782348633
1783693661199002400,1.99700244140625,0.013370773755013943,-0.0009961267933249474,0.016459975391626358
1783693661208965400,2.00696533203125,0.013349226675927639,-0.0005104097072035074,0.017680369317531586
1783693661218927400,2.01692724609375,0.013194763101637363,0.003170877927914262,0.01884949766099453
1783693661228890000,2.02689013671875,0.01224191952496767,0.0017745571676641703,0.013722209259867668
1783693661238852400,2.036852294921875,0.009909523651003838,0.004207887686789036,0.013699306175112724
1783693661248815400,2.0468154296875,0.006727165076881647,0.007837527431547642,0.013222410343587399
1783693661258777300,2.05677734375,0.008226525038480759,0.006225782446563244,0.00953366607427597
1783693661268740000,2.066739990234375,0.011020193807780743,0.008433029055595398,0.0030275294557213783
1783693661278702300,2.076702392578125,0.012399977073073387,0.00838748924434185,0.0016389571828767657
1783693661288665300,2.086665283203125,0.012388680130243301,0.006542976014316082,-0.0013699750415980816
1783693661298627300,2.09662744140625,0.011928752064704895,-0.00011093169450759888,-0.006952493451535702
1783693661308590000,2.106590087890625,0.007152001839131117,0.0021690025459975004,-0.011857612989842892
1783693661318552300,2.11655224609375,0.0014453802723437548,0.006251095794141293,-0.009995531290769577
1783693661328515300,2.126515380859375,0.002142286393791437,0.004013522993773222,-0.009813452139496803
1783693661338477300,2.136477294921875,0.0027779829688370228,-0.0006824288284406066,-0.011501363478600979
1783693661348440000,2.146440185546875,0.0032735641580075026,-0.000006566871888935566,-0.008550495840609074
1783693661358402300,2.15640234375,-0.0011539411498233676,0.0007577604264952242,-0.00030295224860310555
1783693661368365300,2.166365234375,-0.005722741596400738,0.0008973276126198471,0.002507824217900634
1783693661378327300,2.176327392578125,-0.008019983768463135,0.0018914856482297182,0.0034993193112313747
1783693661388290000,2.1862900390625,-0.010777618736028671,0.001840908662416041,0.007467441260814667
1783693661398252300,2.196252197265625,-0.011649271473288536,-0.000732237589545548,0.014785275794565678
1783693661408215300,2.20621533203125,-0.0099148228764534,-0.006166440900415182,0.01841035857796669
1783693661418177300,2.21617724609375,-0.011678368784487247,-0.005433006212115288,0.01985885202884674
1783693661428139300,2.22613916015625,-0.01812022551894188,0.003726417198777199,0.022066373378038406
1783693661438102300,2.236102294921875,-0.016890378668904305,0.008249795995652676,0.015272118151187897
1783693661448064300,2.246064208984375,-0.018283793702721596,0.008694283664226532,0.00866182241588831
1783693661458027300,2.25602734375,-0.017571398988366127,0.006197037640959024,0.0023567890748381615
1783693661467989200,2.2659892578125,-0.015278696082532406,0.00936058722436428,-0.0005532130599021912
1783693661477952300,2.2759521484375,-0.011194472201168537,0.010466597974300385,-0.004176710266619921
1783693661487914200,2.285914306640625,-0.006673378404229879,0.009243682026863098,-0.006584114860743284
1783693661497877200,2.295877197265625,-0.002826974494382739,0.006028714124113321,-0.0056890263222157955
1783693661507839200,2.305839111328125,-0.004404259845614433,0.008825298398733139,-0.009623204357922077
1783693661517802200,2.31580224609375,-0.008554263971745968,0.011583533138036728,-0.004757342394441366
1783693661527764000,2.325763916015625,-0.011883405968546867,0.014757255092263222,-0.004771196283400059
1783693661537727200,2.335727294921875,-0.010205614380538464,0.0074391551315784454,-0.008652753196656704
1783693661547689200,2.345689208984375,-0.009748399257659912,0.0003913708496838808,-0.00779661163687706
1783693661557652200,2.35565234375,-0.005544066894799471,-0.0008789568673819304,-0.0023334024008363485
1783693661567614000,2.365614013671875,-0.0017288972157984972,-0.0006805837620049715,0.0009153935243375599
1783693661577577200,2.3755771484375,-0.002181102056056261,-0.0023346731904894114,0.006596714723855257
1783693661587539200,2.385539306640625,-0.00461121741682291,0.0005820494843646884,0.011637760326266289
1783693661597502200,2.395502197265625,-0.011370054446160793,0.002909918548539281,0.017773417755961418
1783693661607464200,2.405464111328125,-0.018058601766824722,0.00968523882329464,0.020772188901901245
1783693661617427200,2.41542724609375,-0.020589936524629593,0.010900437831878662,0.01929599978029728
1783693661627389200,2.42538916015625,-0.020639780908823013,0.007773636374622583,0.012092066928744316
1783693661637352200,2.435352294921875,-0.018836021423339844,0.00040174031164497137,0.0009842886356636882
1783693661647314200,2.445314208984375,-0.0157878790050745,-0.002952518407255411,-0.009657795540988445
1783693661657276200,2.455276123046875,-0.013134571723639965,-0.00632914062589407,-0.01106847170740366
1783693661667239200,2.4652392578125,-0.01143227331340313,-0.007336605340242386,-0.013056806288659573
1783693661677201200,2.475201171875,-0.010632792487740517,-0.004934167489409447,-0.011146786622703075
1783693661687164200,2.4851640625,-0.012314775958657265,-0.0038534339983016253,-0.0004927993286401033
1783693661697126100,2.495126220703125,-0.012115305289626122,-0.002324513392522931,-0.00015031686052680016
1783693661707089200,2.505089111328125,-0.01444291416555643,-0.0016941523645073175,0.0016249639447778463
1783693661717051100,2.515051025390625,-0.018456298857927322,-0.001696016639471054,0.006344884168356657
1783693661727014100,2.52501416015625,-0.018832677975296974,-0.0027144416235387325,0.008963841944932938
1783693661736976100,2.53497607421875,-0.021349098533391953,-0.0019945893436670303,0.012778021395206451
1783693661746939100,2.544939208984375,-0.025645866990089417,-0.004162891767919064,0.012590136379003525
1783693661756901400,2.5549013671875,-0.025768637657165527,-0.005844411440193653,0.013260187581181526
1783693661766864100,2.564864013671875,-0.025094766169786453,-0.0024222703650593758,0.015606043860316277
1783693661776826000,2.574826171875,-0.021439310163259506,0.005024993326514959,0.020585622638463974
1783693661786789000,2.5847890625,-0.017212750390172005,0.0008382641244679689,0.016348058357834816
1783693661796751400,2.59475146484375,-0.007603267207741737,-0.007836717180907726,0.013688359409570694
1783693661806714000,2.604714111328125,0.0021400873083621264,-0.006005844566971064,0.014391474425792694
1783693661816676000,2.614676025390625,0.009726101532578468,-0.00628627510741353,0.011454806663095951
1783693661826639000,2.62463916015625,0.010900666937232018,-0.01181126106530428,0.005047600716352463
1783693661836601300,2.634601318359375,0.007799149956554174,-0.010416297242045403,0.00031915807630866766
1783693661846564000,2.644564208984375,0.006792678963392973,-0.004553628154098988,-0.004270030185580254
1783693661856526000,2.654526123046875,0.0016655612271279097,-0.003816199256107211,-0.007485797628760338
1783693661866489000,2.664489013671875,-0.001881855190731585,-0.00551739614456892,-0.010222356766462326
1783693661876451300,2.674451416015625,-0.0022541650105267763,-0.0012558054877445102,-0.004684313666075468
1783693661886413000,2.6844130859375,-0.0019483977230265737,0.00032901682425290346,-0.00028414069674909115
1783693661896376000,2.6943759765625,-0.0008759427582845092,-0.006618638057261705,-0.00419738981872797
1783693661906338300,2.70433837890625,-0.00325591117143631,-0.010577704757452011,-0.007051905617117882
1783693661916301300,2.71430126953125,-0.005950497463345528,-0.0007485097739845514,-0.0027498346753418446
1783693661926263000,2.724262939453125,-0.009911144152283669,0.009508132934570312,0.0012046762276440859
1783693661936226000,2.73422607421875,-0.010863224044442177,0.005810599308460951,0.0005082595744170249
1783693661946188300,2.744188232421875,-0.006231819279491901,0.0006906836642883718,-0.0033443961292505264
1783693661956151300,2.7541513671875,0.0010391429532319307,0.000798541703261435,-0.0023044319823384285
1783693661966113000,2.764113037109375,0.007126243785023689,-0.0027833799831569195,-0.001953589264303446
1783693661976076000,2.774075927734375,0.011717800050973892,-0.007995186373591423,-0.0019325504545122385
1783693661986038300,2.784038330078125,0.018539447337388992,-0.005573098547756672,0.003941154573112726
1783693661996001300,2.794001220703125,0.023720627650618553,0.002981774043291807,0.014547726139426231
1783693662005963000,2.803962890625,0.025091271847486496,0.006700110621750355,0.018812883645296097
1783693662015926000,2.813926025390625,0.027272667735815048,0.007288669236004353,0.021460864692926407
1783693662025888300,2.82388818359375,0.024096569046378136,0.009650607593357563,0.019779114052653313
1783693662035851300,2.833851318359375,0.02689901366829872,0.009353131987154484,0.016718342900276184
1783693662045813000,2.84381298828125,0.030870744958519936,0.0004211583873257041,0.008674154058098793
1783693662055776000,2.85377587890625,0.036114778369665146,0.0009796232916414738,-0.000379262026399374
1783693662065738200,2.86373828125,0.03605007380247116,0.004239085130393505,0.0007634662324562669
1783693662075701200,2.873701171875,0.035403456538915634,0.007046323269605637,0.002051637275144458
1783693662085663000,2.8836630859375,0.030384253710508347,0.005200223997235298,-0.005700245499610901
1783693662095626200,2.893626220703125,0.026412948966026306,0.005593572743237019,-0.013266019523143768
1783693662105588200,2.903588134765625,0.023734457790851593,0.015673387795686722,-0.008209667168557644
1783693662115551200,2.91355126953125,0.01829921267926693,0.023278577253222466,-0.0030836148653179407
1783693662125513000,2.923512939453125,0.018206249922513962,0.020503003150224686,-0.00279034860432148
1783693662135475200,2.93347509765625,0.020347164943814278,0.01950990967452526,0.00001582398544996977
1783693662145438200,2.943438232421875,0.02416398748755455,0.020559431985020638,0.0012728869915008545
1783693662155400000,2.95339990234375,0.029495369642972946,0.008555233478546143,-0.006925388239324093
1783693662165363200,2.96336328125,0.035157106816768646,-0.004846032243221998,-0.014455417171120644
1783693662175325200,2.9733251953125,0.03734569624066353,-0.008465267717838287,-0.015435460023581982
1783693662185288200,2.9832880859375,0.03488653898239136,-0.008556604385375977,-0.012886565178632736
1783693662195250000,2.99325,0.03272431716322899,-0.006419418379664421,-0.005860614590346813
1783693662205213200,3.003213134765625,0.028091706335544586,-0.005625514313578606,0.0062953028827905655
1783693662215175200,3.013175048828125,0.02246897481381893,-0.0029746040236204863,0.015638204291462898
1783693662225138200,3.02313818359375,0.017228176817297935,0.0025165430270135403,0.02287677675485611
1783693662235100000,3.033099853515625,0.007012824062258005,-0.0004462235374376178,0.02491089701652527
1783693662245063200,3.043063232421875,-0.0066222879104316235,0.0019996329210698605,0.02295025996863842
1783693662255025200,3.053025146484375,-0.014353178441524506,0.005539240315556526,0.015415113419294357
1783693662264988200,3.06298828125,-0.016593022271990776,-0.0021804915741086006,0.0063224900513887405
1783693662274950100,3.0729501953125,-0.01243263203650713,-0.007575256749987602,-0.005589563399553299
1783693662284913200,3.0829130859375,-0.007974473759531975,-0.0058726598508656025,-0.015596725046634674
1783693662294875100,3.092875244140625,-0.0036130151711404324,-0.003088058438152075,-0.02272813953459263
1783693662304838100,3.102838134765625,0.0012847422622144222,-0.0022981781512498856,-0.030173299834132195
1783693662314800400,3.11280029296875,0.005331149324774742,-0.0014936371007934213,-0.037996068596839905
1783693662324762000,3.12276220703125,0.007173381745815277,-0.0001031744759529829,-0.041225094348192215
1783693662334725000,3.13272509765625,0.009882083162665367,0.0030334964394569397,-0.03926767408847809
1783693662344687000,3.14268701171875,0.008176463656127453,-0.0015977765433490276,-0.04128345847129822
1783693662354650400,3.152650390625,0.005896531976759434,-0.0029701031744480133,-0.03434352949261665
1783693662364612000,3.162612060546875,0.0022185945417732,0.0007045186939649284,-0.02238549292087555
1783693662374575000,3.1725751953125,0.0010452058631926775,0.007657765876501799,-0.012386922724545002
1783693662384537300,3.182537353515625,0.001020507188513875,0.0011024180566892028,-0.003005392849445343
1783693662394500400,3.192500244140625,0.0020599388517439365,-0.004905939567834139,0.004568637348711491
1783693662404462000,3.202462158203125,0.002335000317543745,0.0000928286463022232,0.01558445580303669
1783693662414425000,3.212425048828125,0.007770245894789696,-0.0014779036864638329,0.020786941051483154
1783693662424387300,3.22238720703125,0.008355292491614819,-0.006058801896870136,0.01717323437333107
1783693662434350300,3.232350341796875,0.009315095841884613,-0.009157655760645866,0.010548354126513004
1783693662444312000,3.24231201171875,0.009808740578591824,-0.014423789456486702,0.007272821851074696
1783693662454275000,3.252275146484375,0.011474281549453735,-0.023457231000065804,0.008501337841153145
1783693662464237300,3.2622373046875,0.007389785256236792,-0.025791501626372337,0.01146199181675911
1783693662474200300,3.272200439453125,0.0026682668831199408,-0.01941908895969391,0.015574978664517403
1783693662484162000,3.282162109375,-0.005020719021558762,-0.013824873603880405,0.020019404590129852
1783693662494125300,3.292125244140625,-0.015682950615882874,-0.008172847330570221,0.024554502218961716
1783693662504087600,3.302087646484375,-0.02681468427181244,-0.0034835340920835733,0.02359679527580738
1783693662514050600,3.312050537109375,-0.03464224934577942,-0.0012046671472489834,0.0179306548088789
1783693662524012300,3.32201220703125,-0.04331544041633606,0.003415352199226618,0.009542234241962433
1783693662533974500,3.331974609375,-0.04654878377914429,0.0020845707040280104,-0.007186145521700382
1783693662543937500,3.3419375,-0.04571150243282318,-0.0014842787059023976,-0.028923016041517258
1783693662553899300,3.351899169921875,-0.039109792560338974,-0.004739460535347462,-0.04179194197058678
1783693662563862300,3.3618623046875,-0.027830854058265686,-0.007164309732615948,-0.04692596197128296
1783693662573824500,3.371824462890625,-0.0196181982755661,-0.008903619833290577,-0.04107526317238808
1783693662583787500,3.38178759765625,-0.011397547088563442,-0.0064606936648488045,-0.031670860946178436
1783693662593749200,3.391749267578125,-0.012825800105929375,-0.004133623093366623,-0.016697237268090248
1783693662603712300,3.401712158203125,-0.011389655992388725,0.0022646328434348106,-0.0043301768600940704
1783693662613674500,3.411674560546875,-0.015044578351080418,0.005081990733742714,0.008000525645911694
1783693662623637500,3.421637451171875,-0.019565504044294357,0.004245229531079531,0.011537250131368637
1783693662633599200,3.43159912109375,-0.02091679349541664,0.0011000361992046237,0.010420054197311401
1783693662643562200,3.441562255859375,-0.02260487712919712,-0.002420417033135891,0.011804509907960892
1783693662653524500,3.4515244140625,-0.0223699864000082,-0.008544621989130974,0.008960519917309284
1783693662663487500,3.461487548828125,-0.01941121369600296,-0.014700785279273987,0.004127148538827896
1783693662673449500,3.471449462890625,-0.01493497472256422,-0.010281003080308437,-0.0004228621255606413
1783693662683412200,3.481412109375,-0.01169539988040924,-0.008753149770200253,-0.0072473688051104546
1783693662693374500,3.49137451171875,-0.007659112568944693,-0.009810158051550388,-0.01366079319268465
1783693662703337500,3.50133740234375,-0.008331653662025928,-0.003521349048241973,-0.014367740601301193
1783693662713299500,3.511299560546875,-0.006187542341649532,-0.0036853996571153402,-0.015159232541918755
1783693662723262200,3.52126220703125,-0.008561979979276657,-0.007693747989833355,-0.011352677829563618
1783693662733224400,3.531224365234375,-0.010719673708081245,-0.007766718976199627,-0.007904416881501675
1783693662743187500,3.5411875,-0.01407045591622591,-0.002610829658806324,0.006228428799659014
1783693662753149400,3.5511494140625,-0.01490881945937872,-0.004823649767786264,0.013782750815153122
1783693662763111400,3.561111328125,-0.01484809909015894,-0.002904576249420643,0.021130945533514023
1783693662773074400,3.571074462890625,-0.012530882842838764,0.004431367386132479,0.02393205836415291
1783693662783036400,3.581036376953125,-0.005433446727693081,-0.0037807486951351166,0.018769612535834312
1783693662792999400,3.59099951171875,0.006311359815299511,-0.008427431806921959,0.007903916761279106
1783693662802961400,3.60096142578125,0.013615456409752369,-0.008433816023170948,0.000637573772110045
1783693662812924400,3.61092431640625,0.018501557409763336,-0.0062351105734705925,-0.0034961849451065063
1783693662822886400,3.620886474609375,0.020383452996611595,-0.007131532765924931,-0.0074404822662472725
1783693662832849400,3.630849365234375,0.017568225041031837,-0.0028475711587816477,-0.008838641457259655
1783693662842811400,3.640811279296875,0.012102781794965267,0.009914831258356571,0.0027028550393879414
1783693662852774400,3.6507744140625,0.001984367147088051,0.016647303476929665,0.009701909497380257
1783693662862736400,3.660736328125,-0.0012826996389776468,0.008782976306974888,0.01310315914452076
1783693662872699400,3.670699462890625,-0.004424696788191795,0.008317722007632256,0.012055205181241035
1783693662882661400,3.680661376953125,-0.005331825464963913,0.008171777240931988,0.013122022151947021
1783693662892624400,3.690624267578125,-0.006046884227544069,0.001385509967803955,0.009717969223856926
1783693662902586400,3.70058642578125,-0.004044907633215189,-0.010675188153982162,0.0038434795569628477
1783693662912549400,3.71054931640625,0.0013791525270789862,-0.012117556296288967,0.0042466819286346436
1783693662922511400,3.720511474609375,-0.0002593956305645406,-0.0012912123929709196,0.006027747876942158
1783693662932474400,3.730474365234375,0.001857284689322114,0.010181152261793613,0.0042793829925358295
1783693662942436400,3.740436279296875,0.00473086629062891,0.005983178038150072,-0.006393651943653822
1783693662952399600,3.750399658203125,0.008071002550423145,0.002152753295376897,-0.015028153546154499
1783693662962361300,3.760361328125,0.01124514453113079,-0.003110678633674979,-0.024391740560531616
1783693662972323300,3.7703232421875,0.017215151339769363,-0.011088177561759949,-0.02862563543021679
1783693662982286300,3.780286376953125,0.024804141372442245,-0.015094652771949768,-0.024592194706201553
1783693662992248300,3.790248291015625,0.027704322710633278,-0.010363546200096607,-0.014753678813576698
1783693663002211300,3.80021142578125,0.026935182511806488,-0.0027786255814135075,-0.0035092290490865707
1783693663012173300,3.81017333984375,0.020838141441345215,-0.0019565080292522907,0.005059491842985153
1783693663022136600,3.820136474609375,0.01768302172422409,-0.0009332724148407578,0.00900556705892086
1783693663032098300,3.830098388671875,0.015667274594306946,-0.0012051811208948493,0.01270496379584074
1783693663042061300,3.840061279296875,0.01392409112304449,-0.0052228812128305435,0.011848751455545425
1783693663052023300,3.850023193359375,0.011199411004781723,-0.01125174481421709,0.005454768426716328
1783693663061986600,3.859986572265625,0.012693321332335472,-0.008989601396024227,0.0027583236806094646
1783693663071948300,3.8699482421875,0.011431248858571053,-0.0018821567064151168,0.007746158167719841
1783693663081911300,3.879911376953125,0.013661856763064861,-0.003643308999016881,0.009170103818178177
1783693663091873300,3.889873291015625,0.013045601546764374,-0.011752367950975895,0.007149297744035721
1783693663101836500,3.89983642578125,0.011734824627637863,-0.009051423519849777,-0.0011218320578336716
1783693663111798300,3.90979833984375,0.007029818836599588,0.0017809837590903044,-0.010999762453138828
1783693663121761300,3.91976123046875,0.0028448649682104588,0.00729611050337553,-0.022691866382956505
1783693663131723500,3.9297236328125,0.0026238225400447845,0.008909719996154308,-0.029022734612226486
1783693663141686500,3.9396865234375,0.004959018900990486,0.00623595155775547,-0.025937173515558243
1783693663151648300,3.949648193359375,0.005079393740743399,-0.0004877310711890459,-0.023587999865412712
1783693663161611300,3.959611328125,0.0040087285451591015,-0.002441457938402891,-0.022153081372380257
1783693663171573500,3.969573486328125,0.0022611625026911497,-0.0013160061789676547,-0.021975981071591377
1783693663181535500,3.979535400390625,-0.0012653828598558903,-0.00773074384778738,-0.02153046801686287
1783693663191498200,3.989498291015625,-0.0017788403201848269,-0.015061892569065094,-0.019340816885232925
1783693663201460500,3.99946044921875,0.0004742058808915317,-0.014726582914590836,-0.013638226315379143
1783693663211423500,4.009423583984375,0.003304879879578948,-0.012340390123426914,-0.0030138115398585796
1783693663221385500,4.019385498046875,0.004737276583909988,-0.012301791459321976,0.002807251177728176
1783693663231348500,4.029348388671875,0.007400171365588903,-0.010271131061017513,0.00929258018732071
1783693663241310500,4.039310546875,0.013119898736476898,-0.007563224993646145,0.019693071022629738
1783693663251273500,4.0492734375,0.015379324555397034,-0.006778392009437084,0.025019925087690353
1783693663261235500,4.0592353515625,0.018904315307736397,-0.013497315347194672,0.024246392771601677
1783693663271198500,4.069198486328125,0.021713683381676674,-0.021832209080457687,0.019194375723600388
1783693663281160400,4.079160400390625,0.02262844145298004,-0.017533309757709503,0.020553821697831154
1783693663291123500,4.08912353515625,0.021493935957551003,-0.016352731734514236,0.021643586456775665
1783693663301085400,4.09908544921875,0.01653454825282097,-0.017762336879968643,0.017882607877254486
1783693663311048400,4.10904833984375,0.009748547337949276,-0.01569545827805996,0.01441890001296997
1783693663321010400,4.119010498046875,0.0011499172542244196,-0.015129844658076763,0.010434034280478954
1783693663330973400,4.128973388671875,-0.0032741259783506393,-0.017941609025001526,0.003918077796697617
1783693663340935400,4.138935302734375,-0.010819907300174236,-0.018232664093375206,0.0009941422613337636
1783693663350898400,4.1488984375,-0.0167707409709692,-0.013554821722209454,0.0021661994978785515
1783693663360860400,4.1588603515625,-0.017732711508870125,-0.011749174445867538,0.003970924764871597
1783693663370823400,4.168823486328125,-0.016471171751618385,-0.009483356960117817,0.009324145503342152
1783693663380785400,4.178785400390625,-0.016178935766220093,-0.005597834475338459,0.012883888557553291
1783693663390747400,4.188747314453125,-0.019261810928583145,-0.004552277736365795,0.013104132376611233
1783693663400710400,4.19871044921875,-0.0192720927298069,-0.00675311591476202,0.012211284600198269
1783693663410672400,4.20867236328125,-0.01789497211575508,-0.009885525330901146,0.010600870475172997
1783693663420635400,4.218635498046875,-0.014324275776743889,-0.011427437886595726,0.010274950414896011
1783693663430597400,4.228597412109375,-0.01009304542094469,-0.00567900575697422,0.012659011408686638
1783693663440560400,4.238560302734375,-0.00958918035030365,-0.002785489894449711,0.015017791651189327
1783693663450522400,4.2485224609375,-0.008346816524863243,-0.004465944599360228,0.012690987437963486
1783693663460485400,4.2584853515625,-0.01271537784487009,-0.00703752227127552,0.007684940472245216
1783693663470447400,4.268447265625,-0.01604565978050232,-0.0059797149151563644,0.007272949442267418
1783693663480410400,4.278410400390625,-0.019936062395572662,-0.005817532539367676,0.007726706098765135
1783693663490372400,4.288372314453125,-0.02189774625003338,-0.008153923787176609,0.004891238175332546
1783693663500335600,4.298335693359375,-0.022100426256656647,-0.004576251842081547,0.0028835157863795757
1783693663510297900,4.3082978515625,-0.01880423165857792,0.002123995218425989,0.0006030510412529111
1783693663520260600,4.318260498046875,-0.015697956085205078,0.0030894156079739332,-0.0018769828602671623
1783693663530222600,4.32822265625,-0.01116685476154089,0.003945621661841869,-0.0008295616135001183
1783693663540185600,4.338185546875,-0.007699258159846067,0.0077065397053956985,0.00007926532998681068
1783693663550147800,4.34814794921875,-0.008019103668630123,0.00450941501185298,0.0036697390023618937
1783693663560110800,4.35811083984375,-0.002486863639205694,0.004074524622410536,0.008888249285519123
1783693663570072600,4.368072509765625,-0.002116151386871934,0.002917114645242691,0.014340538531541824
1783693663580034800,4.378034912109375,-0.003114409511908889,-0.0022614002227783203,0.01904996484518051
1783693663589997800,4.387997802734375,-0.0020816356409341097,-0.007368277758359909,0.021235086023807526
1783693663599959600,4.39795947265625,-0.005000689532607794,-0.0036209682002663612,0.02144104614853859
1783693663609922600,4.407922607421875,-0.007769844029098749,0.005016728304326534,0.0213190745562315
1783693663619884800,4.417884765625,-0.006587344687432051,0.005047358572483063,0.01308329589664936
1783693663629847800,4.427847900390625,-0.005989199038594961,0.005590643268078566,0.0029899151995778084
1783693663639809500,4.4378095703125,-0.009498817846179008,0.00858750008046627,-0.004699805751442909
1783693663649772500,4.4477724609375,-0.011558772996068,0.007998941466212273,-0.01084957830607891
1783693663659734800,4.45773486328125,-0.012325323186814785,0.005561637692153454,-0.016428513452410698
1783693663669697800,4.46769775390625,-0.010425690561532974,0.004874009173363447,-0.014567761681973934
1783693663679659500,4.477659423828125,-0.0032037924975156784,0.004788508638739586,-0.01085001789033413
1783693663689622500,4.48762255859375,0.0030445160809904337,0.004533643834292889,-0.005232079420238733
1783693663699584800,4.497584716796875,0.006294371094554663,0.0037722461856901646,0.003450891003012657
1783693663709547800,4.5075478515625,0.006814486347138882,0.009490852244198322,0.0060551962815225124
1783693663719509500,4.517509521484375,0.005158390384167433,0.010644027031958103,0.008674472570419312
1783693663729472500,4.527472412109375,0.0006440657889470458,0.008281802758574486,0.0070275734178721905
1783693663739434800,4.537434814453125,-0.001383863389492035,0.008414636366069317,0.0010567144490778446
1783693663749397800,4.547397705078125,-0.0027897460386157036,0.010283908806741238,-0.001571559114381671
1783693663759359500,4.557359375,-0.0019288817420601845,0.0072098588570952415,-0.001551810884848237
1783693663769321700,4.56732177734375,0.002051478950306773,0.00783463567495346,-0.004114038310945034
1783693663779284700,4.57728466796875,0.007226272951811552,0.005788538604974747,-0.007473100908100605
1783693663789246700,4.587246826171875,0.005946357734501362,0.0024803599808365107,-0.011375430040061474
1783693663799209500,4.59720947265625,0.008659097366034985,0.004209002945572138,-0.011038459837436676
1783693663809171700,4.607171630859375,0.01064261980354786,0.008459940552711487,-0.009536170400679111
1783693663819134700,4.617134765625,0.011736113578081131,0.004425251390784979,-0.010727934539318085
1783693663829096700,4.6270966796875,0.011239966377615929,0.0014923122944310308,-0.012754600495100021
1783693663839059700,4.637059814453125,0.010856421664357185,0.0017929888563230634,-0.008998008444905281
1783693663849021700,4.647021728515625,0.009974382817745209,0.002527222502976656,-0.005508469417691231
1783693663858984700,4.656984619140625,0.010718482546508312,0.000047039007768034935,-0.005633140914142132
1783693663868946700,4.66694677734375,0.009463068097829819,-0.0031831092201173306,-0.008134114556014538
1783693663878909700,4.67690966796875,0.004436172544956207,-0.0017495591891929507,-0.012060251086950302
1783693663888871700,4.68687158203125,-0.00040811754297465086,0.0004656580276787281,-0.013343628495931625
1783693663898834700,4.696834716796875,-0.0037248183507472277,-0.0006238411879166961,-0.012113780714571476
1783693663908796700,4.706796630859375,-0.0076063754968345165,0.00043050432577729225,-0.011234138160943985
1783693663918759700,4.716759765625,-0.009219923056662083,-0.0030803277622908354,-0.013573696836829185
1783693663928721700,4.7267216796875,-0.016717785969376564,0.003440155880525708,-0.009000249207019806
1783693663938684700,4.7366845703125,-0.020745130255818367,0.008113996125757694,-0.007282603532075882
1783693663948646700,4.746646728515625,-0.022177111357450485,0.0009650063584558666,-0.009847760200500488
1783693663958609700,4.756609619140625,-0.022478563711047173,-0.004297638311982155,-0.011379929259419441
1783693663968571600,4.766571533203125,-0.021189328283071518,-0.006280894391238689,-0.010929854586720467
1783693663978534700,4.77653466796875,-0.016046730801463127,-0.012043476104736328,-0.011354513466358185
1783693663988497000,4.786496826171875,-0.012706329114735126,-0.009716405533254147,-0.013966541737318039
1783693663998458600,4.796458740234375,-0.008863109163939953,-0.001900541945360601,-0.014786296524107456
1783693664008421600,4.806421630859375,-0.006940572988241911,-0.0002102336147800088,-0.016481131315231323
1783693664018383600,4.816383544921875,-0.0035331579856574535,-0.005016429349780083,-0.014368575066328049
1783693664028347000,4.826346923828125,-0.003139542881399393,-0.006780773401260376,-0.007641696371138096
1783693664038308600,4.83630859375,-0.0007854813011363149,-0.008117168210446835,-0.00019961397629231215
1783693664048271600,4.846271728515625,0.0011306630913168192,-0.013308468274772167,0.005342157557606697
1783693664058233900,4.85623388671875,0.0004377085715532303,-0.012678897008299828,0.012683161534368992
1783693664068196900,4.86619677734375,0.00038258114363998175,-0.007474014535546303,0.02203112281858921
1783693664078158600,4.87615869140625,-0.001356495195068419,-0.00553946103900671,0.02666490525007248
1783693664088121600,4.88612158203125,-0.00447052950039506,-0.008813551627099514,0.02846520207822323
1783693664098083800,4.896083740234375,-0.008346826769411564,-0.006523787975311279,0.025092564523220062
1783693664108046800,4.906046875,-0.012633717618882656,-0.0066984910517930984,0.023899467661976814
1783693664118008600,4.916008544921875,-0.014909141696989536,-0.01060058269649744,0.016222160309553146
1783693664127971600,4.9259716796875,-0.01717415824532509,-0.011568109504878521,0.013764596544206142
1783693664137933800,4.935933837890625,-0.0173677708953619,-0.011252257972955704,0.006612943485379219
1783693664147896800,4.945896728515625,-0.01490301638841629,-0.013599834404885769,-0.00044097157660871744
1783693664157858600,4.955858642578125,-0.013655461370944977,-0.01312655583024025,-0.009394478984177113
1783693664167820800,4.96582080078125,-0.00972969550639391,-0.012171812355518341,-0.009462656453251839
1783693664177783800,4.97578369140625,-0.008472107350826263,-0.009930777363479137,-0.005976763088256121
1783693664187745500,4.98574560546875,-0.005114127416163683,-0.007182128727436066,-0.0004094247706234455
1783693664197708500,4.99570849609375,-0.004061708226799965,-0.004047334659844637,0.010832814499735832
1783693664207670800,5.0056708984375,-0.002347431378439069,-0.0009934877743944526,0.020178912207484245
1783693664217633800,5.0156337890625,-0.005439914297312498,-0.00230530952103436,0.021139362826943398
1783693664227595800,5.025595703125,-0.006539533846080303,-0.005087513942271471,0.02116386406123638
1783693664237558500,5.03555859375,-0.005626197438687086,-0.002544229617342353,0.02429969608783722
1783693664247520800,5.045520751953125,-0.0036410775501281023,-0.0022898977622389793,0.024142570793628693
1783693664257483800,5.05548388671875,-0.0005581716541200876,-0.0031994013115763664,0.020729312673211098
1783693664267445800,5.06544580078125,0.005337268114089966,-0.0069272941909730434,0.014822953380644321
1783693664277408500,5.075408447265625,0.004256377462297678,-0.005838010925799608,0.012622341513633728
1783693664287370800,5.085370849609375,0.003310689004138112,-0.002733830362558365,0.009403379634022713
1783693664297333800,5.095333740234375,-0.0025555670727044344,-0.00162036984693259,0.0054780542850494385
1783693664307295700,5.105295654296875,-0.010203633457422256,-0.0006435223622247577,0.0036833498161286116
1783693664317258500,5.115258544921875,-0.01664488948881626,0.003618555376306176,0.0006497199647128582
1783693664327220700,5.125220703125,-0.016181500628590584,0.001927447970956564,-0.00011407467536628246
1783693664337183700,5.135183837890625,-0.016760719940066338,0.005099833942949772,-0.003263314487412572
1783693664347145700,5.145145751953125,-0.015402240678668022,0.004391433205455542,-0.007371773011982441
1783693664357108500,5.1551083984375,-0.012466911226511002,-0.007818903774023056,-0.012257590889930725
1783693664367070700,5.16507080078125,-0.007168818265199661,-0.0036385394632816315,-0.009417596273124218
1783693664377032700,5.17503271484375,-0.00565062602981925,0.0072245425544679165,-0.0017566790338605642
1783693664386995700,5.18499560546875,-0.0018907751655206084,0.005292152985930443,0.003468709299340844
1783693664396957700,5.194957763671875,0.004831175319850445,0.0034132483415305614,0.009860008023679256
1783693664406920700,5.204920654296875,0.004966463893651962,0.0058058323338627815,0.014040904119610786
1783693664416882700,5.214882568359375,0.0090354448184371,0.0022299927659332752,0.008358755148947239
1783693664426845700,5.224845703125,0.010249047540128231,-0.0005839032819494605,-0.0013948059640824795
1783693664436807700,5.2348076171875,0.01273332443088293,0.00424072053283453,-0.004115249030292034
1783693664446770700,5.244770751953125,0.01575707644224167,0.0001863241195678711,-0.004252933897078037
1783693664456732700,5.254732666015625,0.016192486509680748,0.0011002931278198957,-0.0037503428757190704
1783693664466695700,5.26469580078125,0.014701382257044315,0.0039157867431640625,0.002010074444115162
1783693664476657700,5.27465771484375,0.01725790649652481,0.006402905564755201,0.004475802648812532
1783693664486620700,5.28462060546875,0.015360136516392231,0.010382733307778835,0.011266330257058144
1783693664496582000,5.294581787109375,0.014806626364588737,0.011459451168775558,0.01296078972518444
1783693664506545000,5.304544921875,0.012789548374712467,0.013256286270916462,0.01584818959236145
1783693664516507000,5.3145068359375,0.00949604157358408,0.014329045079648495,0.013754608109593391
1783693664526469600,5.3244697265625,0.009459556080400944,0.014148748479783535,0.012594268657267094
1783693664536431900,5.334431884765625,0.010839897207915783,0.014747384004294872,0.013818125240504742
1783693664546395000,5.344394775390625,0.013335279189050198,0.00605456018820405,0.012853528372943401
1783693664556356900,5.35435693359375,0.01771596260368824,0.0036707590334117413,0.017507731914520264
1783693664566318800,5.36431884765625,0.020884325727820396,0.005848691798746586,0.021380500867962837
1783693664576281900,5.37428173828125,0.022175036370754242,0.002457476919516921,0.02111019380390644
1783693664586243800,5.384243896484375,0.021345194429159164,0.007927343249320984,0.019679810851812363
1783693664596206800,5.394206787109375,0.020457929000258446,0.013288808055222034,0.019040513783693314
1783693664606168800,5.4041689453125,0.0165697131305933,0.02112009935081005,0.008684545755386353
1783693664616131800,5.4141318359375,0.012656613253057003,0.020158149302005768,-0.002403866034001112
1783693664626093800,5.42409375,0.010857648216187954,0.017965834587812424,-0.015857888385653496
1783693664636056800,5.434056884765625,0.008991248905658722,0.012774265371263027,-0.032404154539108276
1783693664646018800,5.444018798828125,0.01096944510936737,0.007357661612331867,-0.03896751627326012
1783693664655981800,5.45398193359375,0.011544860899448395,0.008436528965830803,-0.04053226858377457
1783693664665943800,5.46394384765625,0.009209268726408482,0.009108977392315865,-0.03585202991962433
1783693664675906800,5.47390673828125,0.006417985539883375,0.011730022728443146,-0.027742899954319
1783693664685868800,5.483868896484375,0.004052033182233572,0.013768672943115234,-0.021510038524866104
1783693664695831800,5.493831787109375,0.00556673388928175,0.0135087501257658,-0.01228176150470972
1783693664705793800,5.503793701171875,0.005804021377116442,0.008423710241913795,-0.007985283620655537
1783693664715756800,5.5137568359375,0.006069817114621401,0.01195987407118082,0.000038785277865827084
1783693664725718800,5.52371875,0.007651202380657196,0.008373661898076534,0.0033397735096514225
1783693664735681800,5.533681884765625,0.011740603484213352,0.0030859720427542925,0.004622959066182375
1783693664745643800,5.543643798828125,0.01777798868715763,0.006008524913340807,0.008135136216878891
1783693664755605800,5.553605712890625,0.01734931394457817,0.004853491671383381,0.010243173688650131
1783693664765568800,5.56356884765625,0.022205587476491928,0.0006733940681442618,-0.001005486585199833
1783693664775530800,5.57353076171875,0.025898953899741173,0.000027023954316973686,-0.00504988431930542
1783693664785493800,5.58349365234375,0.019942793995141983,-0.0014307904057204723,-0.010223607532680035
1783693664795456000,5.5934560546875,0.01544724591076374,-0.006385556422173977,-0.015016209334135056
1783693664805418800,5.603418701171875,0.012098854407668114,-0.0062212394550442696,-0.01726498268544674
1783693664815380700,5.613380615234375,0.008465597406029701,-0.005337090231478214,-0.017134342342615128
1783693664825343700,5.62334375,0.002733409171923995,-0.001739958766847849,-0.016890397295355797
1783693664835306000,5.633305908203125,-0.00641204696148634,0.0031298957765102386,-0.01104251854121685
1783693664845268700,5.643268798828125,-0.009827551431953907,0.005960569716989994,-0.004912986420094967
1783693664855230700,5.653230712890625,-0.013333491049706936,0.00684288190677762,-0.001945333555340767
1783693664865193700,5.66319384765625,-0.012718833051621914,0.0010630236938595772,-0.001793533330783248
1783693664875156000,5.673156005859375,-0.00813659280538559,-0.009122492745518684,-0.005087082274258137
1783693664885118700,5.68311865234375,-0.0031290510669350624,-0.011890050023794174,-0.0019581345841288567
1783693664895080700,5.693080810546875,-0.0006043305620551109,-0.011394983157515526,0.0005807385314255953
1783693664905044000,5.7030439453125,0.0027115712873637676,-0.011324143037199974,-0.001041392795741558
1783693664915006000,5.713005859375,0.0039048721082508564,-0.00934942252933979,-0.0023138802498579025
1783693664924967700,5.7229677734375,0.003626039018854499,-0.0017759246984496713,-0.0033011140767484903
1783693664934930700,5.7329306640625,0.005747147370129824,-0.005684634670615196,-0.003818160854279995
1783693664944893000,5.742892822265625,0.003541251178830862,-0.016972975805401802,-0.006981463637202978
1783693664954856000,5.75285595703125,0.0016754524549469352,-0.01853330247104168,-0.0033902262803167105
1783693664964817700,5.762817626953125,-0.00430653989315033,-0.015126854181289673,0.003322537522763014
1783693664974780700,5.77278076171875,-0.006253743544220924,-0.009112115949392319,0.01208899263292551
1783693664984743000,5.782742919921875,-0.006396489217877388,-0.00365955987945199,0.017315711826086044
1783693664994706000,5.792705810546875,-0.007714215666055679,0.0006241441005840898,0.015321786515414715
1783693665004667600,5.802667724609375,-0.007019396871328354,-0.0003204791573807597,0.009207967668771744
1783693665014631000,5.812630859375,-0.005245898384600878,-0.004963978193700314,-0.0035732139367610216
1783693665024593000,5.822593017578125,-0.0017936427611857653,-0.006451886147260666,-0.014758490957319736
1783693665034556000,5.832555908203125,0.0019854444544762373,-0.01056485902518034,-0.024108819663524628
1783693665044517600,5.842517578125,0.007420157082378864,-0.01222081296145916,-0.028369078412652016
1783693665054481000,5.85248095703125,0.01182996854186058,-0.011266885325312614,-0.024712899699807167
1783693665064443000,5.86244287109375,0.01426196750253439,-0.008759785443544388,-0.021378621459007263
1783693665074406000,5.872406005859375,0.009811409749090672,-0.003815077245235443,-0.018866920843720436
1783693665084368000,5.882367919921875,0.006536254193633795,0.0006550386315211654,-0.022278163582086563
1783693665094331000,5.892330810546875,0.0010078417835757136,0.006512912921607494,-0.02698814868927002
1783693665104292900,5.90229296875,-0.0033368391450494528,0.012432853691279888,-0.028533846139907837
1783693665114256000,5.912255859375,-0.005826566834002733,0.008270345628261566,-0.032170895487070084
1783693665124217900,5.9222177734375,-0.005252389702945948,0.000883802305907011,-0.031028935685753822
1783693665134179800,5.932179931640625,-0.006508857477456331,0.0007658424437977374,-0.023071978241205215
1783693665144142800,5.942142822265625,-0.0026667150668799877,0.0029823915101587772,-0.01635841466486454
1783693665154104800,5.952104736328125,-0.0019602016545832157,0.0044548166915774345,-0.007782432250678539
1783693665164067800,5.96206787109375,-0.0011498017702251673,0.008081242442131042,0.0016797787975519896
1783693665174029800,5.97202978515625,0.003058680100366473,-0.00008508178871124983,0.00473992433398962
1783693665183992800,5.981992919921875,0.0007787480717524886,0.0011210639495402575,0.013383213430643082
1783693665193954800,5.991954833984375,0.0029746915679425,0.000747167388908565,0.015239842236042023
1783693665203917800,6.001917724609375,0.004896694794297218,-0.006473461166024208,0.018988508731126785
1783693665213879800,6.0118798828125,0.004830232821404934,-0.00632191076874733,0.02118968591094017
1783693665223842800,6.0218427734375,0.006024394650012255,-0.0017074515344575047,0.025655006989836693
1783693665233804800,6.0318046875,0.0059658922255039215,-0.004945885390043259,0.03091917373239994
1783693665243767800,6.041767822265625,0.0051871840842068195,-0.009294827468693256,0.03315063938498497
1783693665253729800,6.051729736328125,0.002830670215189457,-0.0024113378021866083,0.0343153141438961
1783693665263692800,6.06169287109375,-0.0019909830298274755,-0.00022941012866795063,0.033960845321416855
1783693665273654800,6.07165478515625,-0.005305491853505373,-0.0007652252679690719,0.030014868825674057
1783693665283617800,6.08161767578125,-0.007384355179965496,-0.004861699417233467,0.020573163405060768
1783693665293579800,6.091579833984375,-0.009561123326420784,-0.007609027437865734,0.00865351501852274
1783693665303542000,6.1015419921875,-0.009894550777971745,-0.00788306724280119,-0.004271072335541248
1783693665313504800,6.1115048828125,-0.006711634807288647,-0.0023423400707542896,-0.012590399943292141
1783693665323466800,6.121466796875,-0.00026412197621539235,0.0002550409408286214,-0.018485307693481445
1783693665333429800,6.1314296875,0.005927255842834711,-0.0008080801926553249,-0.024838780984282494
1783693665343392000,6.14139208984375,0.014985199086368084,0.00003560911864042282,-0.031416792422533035
1783693665353355000,6.15135498046875,0.01635265350341797,0.0019889974500983953,-0.03860810026526451
1783693665363316700,6.161316650390625,0.01738329604268074,0.0031259008683264256,-0.043027617037296295
1783693665373279700,6.17127978515625,0.016229553148150444,0.005788782611489296,-0.043272655457258224
1783693665383242000,6.181241943359375,0.01370860543102026,0.008980315178632736,-0.038099996745586395
1783693665393205000,6.191205078125,0.008400837890803814,0.006708401720970869,-0.0346154123544693
1783693665403166700,6.201166748046875,0.001856120303273201,0.007392301689833403,-0.02908349595963955
1783693665413129700,6.211129638671875,-0.0054612369276583195,0.00876622274518013,-0.02720627933740616
1783693665423092000,6.221092041015625,-0.006431959103792906,0.0049059707671403885,-0.024974817410111427
1783693665433055000,6.231054931640625,-0.006418798118829727,-0.005762911401689053,-0.020871324464678764
1783693665443016700,6.2410166015625,0.0018047767225652933,-0.006578637287020683,-0.00875554047524929
1783693665452979700,6.250979736328125,0.006908669136464596,-0.007804494351148605,0.005009493790566921
1783693665462942000,6.26094189453125,0.01154150441288948,-0.010501477867364883,0.01604616641998291
1783693665472905000,6.270905029296875,0.010170546360313892,-0.009005337953567505,0.023376615718007088
1783693665482866700,6.28086669921875,0.008448280394077301,-0.0034752842038869858,0.026610491797327995
1783693665492829400,6.290829345703125,0.004643372260034084,-0.004782357253134251,0.028563324362039566
1783693665502792700,6.300792724609375,-0.0000432583037763834,-0.006381319835782051,0.027598727494478226
1783693665512754700,6.310754638671875,-0.003418542444705963,-0.0032140128314495087,0.03058970719575882
1783693665522717400,6.320717529296875,-0.004004704300314188,-0.0016880215844139457,0.031203031539916992
1783693665532679700,6.3306796875,-0.004340772517025471,-0.005849706940352917,0.02753285877406597
1783693665542642700,6.340642578125,-0.0015753461048007011,-0.0070228297263383865,0.023649437353014946
1783693665552604700,6.350604736328125,0.001376124913804233,-0.00987542886286974,0.02003164403140545
1783693665562567400,6.3605673828125,0.000512461643666029,-0.010075964964926243,0.016176719218492508
1783693665572529700,6.37052978515625,-0.004464404191821814,-0.007138689048588276,0.00876633357256651
1783693665582492700,6.38049267578125,-0.010264502838253975,-0.00314794247969985,0.005011542700231075
1783693665592454700,6.39045458984375,-0.013159469701349735,0.0010539856739342213,-0.003518654964864254
1783693665602417400,6.40041748046875,-0.016690555959939957,0.0006816757377237082,-0.008030315861105919
1783693665612379600,6.410379638671875,-0.01587790809571743,0.003155236132442951,-0.008565003983676434
1783693665622342700,6.4203427734375,-0.01569494977593422,0.004250328056514263,-0.008291764184832573
1783693665632304600,6.4303046875,-0.015174689702689648,-0.0008688258239999413,-0.012551280669867992
1783693665642267400,6.440267333984375,-0.011413240805268288,-0.00037214625626802444,-0.009656158275902271
1783693665652229600,6.450229736328125,-0.007020424120128155,0.004718730226159096,-0.0051082889549434185
1783693665662191600,6.460191650390625,-0.0035559183452278376,0.0029048509895801544,0.0016526782419532537
1783693665672154600,6.470154541015625,-0.0005223177140578628,-0.002097640186548233,0.0029342088382691145
1783693665682116600,6.48011669921875,0.003123816102743149,-0.0035067186690866947,0.004330237861722708
1783693665692079600,6.49007958984375,0.006630945485085249,-0.006790111772716045,0.0033775903284549713
1783693665702041600,6.50004150390625,0.011171102523803711,-0.013607271015644073,0.0010177632793784142
1783693665712004600,6.510004638671875,0.012557555921375751,-0.014216050505638123,0.0021804641000926495
1783693665721966600,6.519966552734375,0.01495972741395235,-0.008071073330938816,0.009630391374230385
1783693665731929600,6.5299296875,0.013473899103701115,-0.0067418841645121574,0.01618889346718788
1783693665741891600,6.5398916015625,0.010060791857540607,-0.005278210621327162,0.020799625664949417
1783693665751854600,6.5498544921875,0.007419270928949118,-0.0018097679130733013,0.021014224737882614
1783693665761816600,6.559816650390625,0.00438007153570652,-0.0033794348128139973,0.010512580163776875
1783693665771779600,6.569779541015625,0.002534755039960146,-0.008677998557686806,-0.0004539528163149953
1783693665781741600,6.579741455078125,0.0008742739446461201,-0.0047109536826610565,-0.00885516032576561
1783693665791704600,6.58970458984375,-0.002815547166392207,-0.0013077184557914734,-0.01815035752952099
1783693665801666600,6.59966650390625,-0.002327123424038291,0.003602617885917425,-0.0235134307295084
1783693665811629600,6.609629638671875,0.00027803026023320854,0.007111060433089733,-0.021865401417016983
1783693665821591600,6.619591552734375,0.0010876312153413892,0.005207699723541737,-0.015630675479769707
1783693665831553500,6.629553466796875,0.002825937932357192,0.0017991326749324799,-0.016465814784169197
1783693665841516500,6.6395166015625,0.001910076942294836,-0.0015993273118510842,-0.016821347177028656
1783693665851478500,6.649478515625,-0.002769629703834653,-0.00007280323188751936,-0.0205236729234457
1783693665861441500,6.659441650390625,-0.006016289349645376,-0.0007215492660179734,-0.017373420298099518
1783693665871403500,6.669403564453125,-0.013021592050790787,0.00021905312314629555,-0.004340765997767448
1783693665881366500,6.679366455078125,-0.01328018493950367,-0.0016584753757342696,0.007975023239850998
1783693665891328500,6.68932861328125,-0.017891908064484596,-0.0001633452484384179,0.021792028099298477
1783693665901291500,6.69929150390625,-0.019997935742139816,0.005575766786932945,0.028820643201470375
1783693665911253500,6.70925341796875,-0.021409932523965836,0.006365412380546331,0.028973205015063286
1783693665921216500,6.719216552734375,-0.021048275753855705,-0.001625136355869472,0.02479736879467964
1783693665931178500,6.729178466796875,-0.01902823895215988,-0.00531685259193182,0.0177190899848938
1783693665941141500,6.7391416015625,-0.017122481018304825,-0.006649497896432877,0.012340834364295006
1783693665951103500,6.749103515625,-0.010800259187817574,-0.00669657438993454,0.006903976202011108
1783693665961066500,6.75906640625,-0.0032374144066125154,-0.008161579258739948,0.007583881262689829
1783693665971028500,6.769028564453125,-0.0008025254937820137,0.00006672600284218788,0.006607159040868282
1783693665980991500,6.778991455078125,0.003923519980162382,0.0120347049087286,0.007777884602546692
1783693665990953500,6.788953369140625,0.004870247095823288,0.010152425616979599,0.008865118958055973
1783693666000916500,6.79891650390625,0.0047623892314732075,0.0049350266344845295,0.006159080658107996
1783693666010878500,6.80887841796875,-0.0006100347964093089,0.005964824929833412,0.0014485701685771346
1783693666020840700,6.8188408203125,-0.005926503334194422,0.005945649929344654,0.00039528997149318457
1783693666030803700,6.8288037109375,-0.010325401090085506,0.005823152139782906,0.0020508035086095333
1783693666040765400,6.838765380859375,-0.01383411604911089,0.006451391614973545,0.010328972712159157
1783693666050728400,6.848728515625,-0.01220189593732357,0.00032375764567404985,0.014639448374509811
1783693666060690700,6.858690673828125,-0.011806150898337364,0.0008428078144788742,0.020450465381145477
1783693666070653700,6.86865380859375,-0.009434123523533344,0.0032383266370743513,0.021320722997188568
1783693666080615400,6.878615478515625,-0.0149431386962533,0.006592311896383762,0.016298800706863403
1783693666090578400,6.888578369140625,-0.020894473418593407,0.01652240753173828,0.009208518080413342
1783693666100540700,6.898540771484375,-0.028629356995224953,0.02354569546878338,-0.0007780700689181685
1783693666110503700,6.908503662109375,-0.03204464539885521,0.01875174418091774,-0.016827674582600594
1783693666120465400,6.91846533203125,-0.0276030246168375,0.013834751211106777,-0.02967929095029831
1783693666130428700,6.9284287109375,-0.019563661888241768,0.011082946322858334,-0.032357923686504364
1783693666140390700,6.938390625,-0.012336109764873981,0.008637897670269012,-0.030983466655015945
1783693666150353700,6.948353759765625,-0.004629326984286308,0.001815359340980649,-0.026400966569781303
1783693666160315400,6.9583154296875,0.0007388067315332592,-0.0002680314937606454,-0.023779617622494698
1783693666170278700,6.968278564453125,0.00445594172924757,0.003992761485278606,-0.018985772505402565
1783693666180240600,6.97824072265625,0.0045606037601828575,0.004620468709617853,-0.01739293523132801
1783693666190203600,6.98820361328125,-0.0015347463777288795,0.006830339320003986,-0.014185812324285507
1783693666200165600,6.99816552734375,-0.009775365702807903,0.012876513414084911,-0.00037545780651271343
1783693666210127600,7.008127685546875,-0.01652231067419052,0.009413892403244972,0.012147912755608559
1783693666220090600,7.018090576171875,-0.01674947887659073,0.0035304368939250708,0.01563665270805359
1783693666230052400,7.02805224609375,-0.01225997693836689,0.009003229439258575,0.013497023843228817
1783693666240015600,7.038015625,-0.009557667188346386,0.014428354799747467,0.012948146089911461
1783693666249977600,7.0479775390625,-0.009066741913557053,0.01224562618881464,0.011457151733338833
1783693666259940600,7.057940673828125,-0.009399370290338993,0.007751008961349726,0.004362757317721844
1783693666269902600,7.067902587890625,-0.006140986457467079,0.0035621323622763157,-0.0070204101502895355
1783693666279865600,7.077865478515625,0.0003067924117203802,0.0017240185989066958,-0.02028082124888897
1783693666289827600,7.08782763671875,0.002430966589599848,0.0019058878533542156,-0.03371477127075195
1783693666299790600,7.09779052734375,0.0020432104356586933,0.0067315357737243176,-0.04213808476924896
1783693666309752600,7.107752685546875,-0.004915716126561165,0.008652503602206707,-0.04632553458213806
1783693666319715600,7.117715576171875,-0.013600550591945648,0.011041891761124134,-0.04837963357567787
1783693666329677600,7.127677490234375,-0.018432609736919403,0.007858853787183762,-0.04196615517139435
1783693666339640600,7.137640625,-0.018797196447849274,0.005562410224229097,-0.027041001245379448
1783693666349602600,7.1476025390625,-0.01727992482483387,0.002034010598435998,-0.008907259441912174
1783693666359565600,7.157565673828125,-0.014132600277662277,-0.002563404617831111,0.012574330903589725
1783693666369527600,7.167527587890625,-0.010198282077908516,-0.0034063290804624557,0.02585696242749691
1783693666379489500,7.177489501953125,-0.0023779096081852913,-0.0058654919266700745,0.03681400418281555
1783693666389452500,7.18745263671875,0.003482579253613949,-0.004306676797568798,0.04108574986457825
1783693666399414500,7.19741455078125,0.011723198927938938,0.00007022835779935122,0.040587738156318665
1783693666409377500,7.20737744140625,0.01702776551246643,-0.008464176207780838,0.03559209406375885
1783693666419339800,7.21733984375,0.02473175898194313,-0.02008621022105217,0.026376226916909218
1783693666429302500,7.227302490234375,0.0287186149507761,-0.02220715396106243,0.016588419675827026
1783693666439264500,7.237264404296875,0.027204342186450958,-0.01751280017197132,0.015272819437086582
1783693666449227500,7.2472275390625,0.021953914314508438,-0.010711628943681717,0.009071665816009045
1783693666459189800,7.257189697265625,0.018550127744674683,-0.00730038620531559,-0.00467370729893446
1783693666469152500,7.267152587890625,0.016645211726427078,0.009017852135002613,-0.009509127587080002
1783693666479114500,7.277114501953125,0.012702134437859058,0.014353228732943535,-0.014777126722037792
1783693666489077500,7.287077392578125,0.01428963616490364,0.009289031848311424,-0.02423526532948017
1783693666499040000,7.2970400390625,0.018277188763022423,0.0060407742857933044,-0.034899093210697174
1783693666509003300,7.307003173828125,0.019584134221076965,0.0018707531271502376,-0.044710468500852585
1783693666518965200,7.31696533203125,0.023201771080493927,-0.009509999305009842,-0.05340781807899475
1783693666528928000,7.326927978515625,0.026454413309693336,-0.013210435397922993,-0.05135446414351463
1783693666538890200,7.33689013671875,0.029276298359036446,-0.013547059148550034,-0.0416317954659462
1783693666548852200,7.346852294921875,0.028043242171406746,-0.007229793816804886,-0.027014199644327164
1783693666558815200,7.356815185546875,0.02265327051281929,0.002193535678088665,-0.006813592277467251
1783693666568777000,7.36677685546875,0.017810270190238953,0.0051147714257240295,0.006355657707899809
1783693666578740200,7.376740234375,0.013509530574083328,0.005890284199267626,0.016927609220147133
1783693666588702200,7.3867021484375,0.010074839927256107,0.004467605147510767,0.02313387580215931
1783693666598665200,7.396665283203125,0.008331001736223698,-0.001265381695702672,0.028079098090529442
1783693666608627200,7.406627197265625,0.009414220228791237,-0.00962104182690382,0.02932182140648365
1783693666618590200,7.416590087890625,0.013620417565107346,-0.013999545015394688,0.02630712278187275
1783693666628552200,7.42655224609375,0.015385325066745281,-0.011598738841712475,0.027876373380422592
1783693666638515200,7.43651513671875,0.01630225218832493,-0.006956316530704498,0.0250246599316597
1783693666648477200,7.446477294921875,0.01291588693857193,-0.0021740710362792015,0.01906726136803627
1783693666658440200,7.456440185546875,0.010761923156678677,-0.00207553431391716,0.004075795877724886
1783693666668402200,7.466402099609375,0.00742034986615181,-0.0023634196259081364,-0.011801548302173615
1783693666678365200,7.476365234375,0.00695669325068593,-0.0021527637727558613,-0.01929035782814026
1783693666688327200,7.4863271484375,0.007169436663389206,0.005421547684818506,-0.028267154470086098
1783693666698290200,7.496290283203125,0.004663135856389999,0.0030191100668162107,-0.030421119183301926
1783693666708252200,7.506252197265625,0.0009284795960411429,0.0024491953663527966,-0.021502835676074028
1783693666718214100,7.516214111328125,0.0012472599046304822,0.007190421223640442,-0.009000093676149845
1783693666728177200,7.52617724609375,0.0013281704159453511,0.00755554623901844,-0.0008855056948959827
1783693666738139100,7.53613916015625,0.001393151469528675,0.004279591608792543,0.008461923338472843
1783693666748102100,7.54610205078125,0.0003146705566905439,0.006509445607662201,0.014617947861552238
1783693666758064000,7.556064208984375,0.0012904527829959989,0.006909186020493507,0.018884332850575447
1783693666768027100,7.566027099609375,-0.0006598122417926788,-0.0003918372094631195,0.016788307577371597
1783693666777989000,7.575989013671875,-0.00329820578917861,-0.0010602906113490462,0.016657279804348946
1783693666787952000,7.5859521484375,-0.008112668059766293,-0.004429988097399473,0.011862523853778839
1783693666797914000,7.5959140625,-0.011064250022172928,-0.010517974384129047,0.009065406396985054
1783693666807877000,7.605877197265625,-0.011827591806650162,-0.006200764793902636,0.014376572333276272
1783693666817839000,7.615839111328125,-0.01795685663819313,-0.00029121048282831907,0.016171276569366455
1783693666827802000,7.625802001953125,-0.0221736878156662,-0.004057691432535648,0.022795837372541428
1783693666837764400,7.635764404296875,-0.025934603065252304,-0.0023663174360990524,0.027785802260041237
1783693666847727000,7.64572705078125,-0.026697011664509773,0.0021245745010674,0.02407047338783741
1783693666857689000,7.655689208984375,-0.028106356039643288,0.0028971575666218996,0.02267604134976864
1783693666867652000,7.665652099609375,-0.02675703726708889,0.008594726212322712,0.019083594903349876
1783693666877614300,7.6756142578125,-0.020550807937979698,0.010672524571418762,0.013450474478304386
1783693666887577000,7.6855771484375,-0.014079758897423744,0.008133189752697945,0.006346088368445635
1783693666897539000,7.6955390625,-0.007178176660090685,0.0021629149559885263,-0.00412306422367692
1783693666907501300,7.705501220703125,0.0002887444570660591,-0.012059957720339298,-0.01779979094862938
1783693666917464300,7.71546435546875,0.00492637325078249,-0.012177935801446438,-0.021878689527511597
1783693666927426000,7.725426025390625,0.009929703548550606,-0.00205606478266418,-0.017569098621606827
1783693666937389000,7.73538916015625,0.00830064807087183,0.004806102253496647,-0.009602785110473633
1783693666947351300,7.745351318359375,0.007126881740987301,0.010543875396251678,-0.00025305093731731176
1783693666957314300,7.755314208984375,0.004979575052857399,0.008574468083679676,0.00712576974183321
1783693666967276000,7.765276123046875,0.0005069129401817918,0.008520688861608505,0.008152225986123085
1783693666977239000,7.775239013671875,-0.004255351610481739,0.004608504939824343,0.00238967826589942
1783693666987201300,7.785201171875,-0.006004249211400747,0.002150939777493477,-0.0009059833828359842
1783693666997164300,7.795164306640625,-0.006377624347805977,0.0006033769459463656,-0.001119835302233696
1783693667007126000,7.8051259765625,-0.0044327122159302235,0.0015155187575146556,-0.0023337220773100853
1783693667017089000,7.815089111328125,-0.001501903752796352,0.003099300665780902,0.0027529154904186726
1783693667027051300,7.82505126953125,0.005383854266256094,0.0024292420130223036,0.0060072061605751514
1783693667037014300,7.83501416015625,0.00433749845251441,0.009955069050192833,0.011904243379831314
1783693667046976000,7.84497607421875,0.001774460542947054,0.013758576475083828,0.014459582045674324
1783693667056939000,7.85493896484375,-0.00046685588313266635,0.013707976788282394,0.012162606231868267
1783693667066901200,7.8649013671875,0.00045597294229082763,0.008200544863939285,0.003410208271816373
1783693667076863000,7.874863037109375,0.001154786441475153,0.004418590106070042,-0.004908974282443523
1783693667086826000,7.884825927734375,-0.0007935144240036607,-0.00108720688149333,-0.010674707591533661
1783693667096788200,7.894788330078125,0.0000821329012978822,-0.0051778219640254974,-0.017426352947950363
1783693667106751200,7.904751220703125,0.002311693038791418,-0.0032595237717032433,-0.016101529821753502
1783693667116713000,7.914712890625,0.0005569361383095384,0.00024572887923568487,-0.0144698116928339
1783693667126676000,7.924676025390625,0.002242761431261897,0.0008457246003672481,-0.007619279902428389
1783693667136638200,7.93463818359375,0.0062484219670295715,0.005396800581365824,-0.0008974613156169653
1783693667146601200,7.944601318359375,0.007093313615769148,0.0121926199644804,0.008157513104379177
1783693667156563000,7.95456298828125,0.005600078962743282,0.01658124290406704,0.01428784430027008
1783693667166526000,7.96452587890625,0.006442127283662558,0.013211293146014214,0.018918467685580254
1783693667176488200,7.97448828125,0.00935775600373745,0.01327760610729456,0.01624811440706253
1783693667186451200,7.984451171875,0.011832859367132187,0.010866138152778149,0.015078621916472912
1783693667196413000,7.994412841796875,0.016083264723420143,0.008343059569597244,0.011721706949174404
1783693667206376200,8.004376220703126,0.020830731838941574,0.0012327018193900585,0.00796885509043932
1783693667216338200,8.014338134765625,0.026003122329711914,-0.003457923885434866,0.0016984420362859964
1783693667226301200,8.02430126953125,0.029878148809075356,-0.004601805005222559,-0.0052446890622377396
1783693667236263000,8.034262939453125,0.030015835538506508,-0.0049996813759207726,-0.010860230773687363
1783693667246226200,8.04422607421875,0.027359597384929657,0.0006068056100048125,-0.015913046896457672
1783693667256188200,8.054188232421875,0.02298109419643879,0.008811205625534058,-0.019522428512573242
1783693667266150100,8.064150146484375,0.019095515832304955,0.014930926263332367,-0.023560447618365288
1783693667276113200,8.074113037109376,0.013348680920898914,0.010795836336910725,-0.023903995752334595
1783693667286075100,8.0840751953125,0.01180068589746952,0.011118067428469658,-0.02055148035287857
1783693667296038100,8.0940380859375,0.00624666316434741,0.008134794421494007,-0.018296048045158386
1783693667306000100,8.104000244140625,0.00011684719356708229,0.0011652741814032197,-0.010584813542664051
1783693667315963100,8.113963134765624,0.0007821047911420465,-0.00009733042679727077,0.0024396423250436783
1783693667325925000,8.123925048828125,0.0015522288158535957,0.006087048910558224,0.014426501467823982
1783693667335888100,8.13388818359375,0.007089206948876381,0.007729154080152512,0.022515852004289627
1783693667345850000,8.14385009765625,0.00915852002799511,0.006481784861534834,0.027978157624602318
1783693667355813400,8.1538134765625,0.011407026089727879,0.005773117765784264,0.02806071564555168
1783693667365775000,8.163775146484374,0.013004539534449577,0.00008352426812052727,0.02383793331682682
1783693667375738000,8.173738037109375,0.010600504465401173,-0.010803744196891785,0.01793157495558262
1783693667385700400,8.183700439453125,0.008258774876594543,-0.014055483043193817,0.011594085022807121
1783693667395663400,8.193663330078126,0.004812910687178373,-0.011400577612221241,0.007249137386679649
1783693667405625000,8.203625,0.0004415102885104716,-0.009444721974432468,0.0006746947765350342
1783693667415588000,8.213588134765626,-0.0032000960782170296,-0.003991633653640747,-0.0006691362941637635
1783693667425550300,8.22355029296875,-0.0076521579176187515,0.00655607832595706,-0.0013208577875047922
1783693667435512000,8.233511962890624,-0.011465804651379585,0.007969950325787067,-0.006119874306023121
1783693667445475000,8.24347509765625,-0.012972881086170673,0.00537630682811141,-0.008469865657389164
1783693667455437000,8.25343701171875,-0.009353113360702991,0.005485230125486851,-0.007972919382154942
1783693667465400300,8.263400390625,-0.004366666078567505,-0.005553042981773615,-0.014567485079169273
1783693667475362000,8.273362060546875,0.004668107721954584,-0.006991149857640266,-0.010765822604298592
1783693667485325000,8.283324951171876,0.008534721098840237,-0.0007175883511081338,0.0014898665249347687
1783693667495286500,8.29328662109375,0.009718496352434158,-0.002868889831006527,0.011098552495241165
1783693667505249500,8.30324951171875,0.008592896163463593,-0.011060223914682865,0.015777001157402992
1783693667515211500,8.31321142578125,0.005454360973089933,-0.002904825611039996,0.025125762447714806
1783693667525174500,8.323174560546875,0.0030694445595145226,0.00448997039347887,0.027649594470858574
1783693667535136500,8.333136474609375,-0.005772782955318689,0.0015823309076949954,0.02769007347524166
1783693667545099500,8.343099609375,-0.009050237014889717,-0.00014181085862219334,0.021969199180603027
1783693667555061500,8.3530615234375,-0.014480155892670155,-0.0019037582678720355,0.013450013473629951
1783693667565024500,8.3630244140625,-0.013767264783382416,-0.006933912634849548,0.0023794197477400303
1783693667574986500,8.372986572265624,-0.014288445934653282,-0.009434887208044529,-0.00721861282363534
1783693667584948500,8.382948486328125,-0.014836338348686695,-0.0038742483593523502,-0.005971697624772787
1783693667594911500,8.392911376953125,-0.01633037067949772,-0.005034055095165968,-0.01300963293761015
1783693667604873500,8.40287353515625,-0.01614125445485115,-0.011307616718113422,-0.01783723197877407
1783693667614836500,8.41283642578125,-0.010957946069538593,-0.007560549303889275,-0.01040674652904272
1783693667624798500,8.422798583984376,-0.009432976134121418,0.0001873709261417389,0.003215670119971037
1783693667634761500,8.432761474609375,-0.0067357262596488,0.0019093708833679557,0.011301560327410698
1783693667644723500,8.442723388671874,-0.0022503132931888103,-0.0021370192989706993,0.014380249194800854
1783693667654686500,8.4526865234375,-0.0038063982501626015,-0.0034765894524753094,0.022615009918808937
1783693667664648400,8.4626484375,0.0011596916010603309,-0.0021207944955676794,0.026796316727995872
1783693667674611500,8.472611572265626,0.005239121615886688,-0.007232199423015118,0.02376857027411461
1783693667684573400,8.482573486328125,0.006421904545277357,-0.018201462924480438,0.017753014340996742
1783693667694536400,8.492536376953124,0.009546325542032719,-0.01760092005133629,0.022626863792538643
1783693667704498400,8.50249853515625,0.010956773534417152,-0.010605884715914726,0.0287554319947958
1783693667714461400,8.51246142578125,0.008639557287096977,-0.009526239708065987,0.026755398139357567
1783693667724423400,8.52242333984375,0.006980391219258308,-0.008039070293307304,0.02350803092122078
1783693667734386400,8.532386474609375,0.0059042079374194145,-0.0035114306956529617,0.017087683081626892
1783693667744348400,8.542348388671876,0.0053253029473125935,0.00391978956758976,0.015288688242435455
1783693667754310700,8.552310546875,0.0047713653184473515,0.003570382483303547,0.0012879177229478955
1783693667764273400,8.5622734375,0.00024260420468635857,0.000424120225943625,-0.010302205570042133
1783693667774235400,8.5722353515625,0.0010386230424046516,-0.007542726583778858,-0.01968958228826523
1783693667784198400,8.582198486328124,0.0028239130042493343,-0.009463643655180931,-0.0257851704955101
1783693667794160600,8.59216064453125,0.0019551897421479225,-0.0013825477799400687,-0.020437009632587433
1783693667804123600,8.60212353515625,0.0005780691863037646,0.002190615516155958,-0.014378052204847336
1783693667814085400,8.61208544921875,-0.0015655092429369688,0.001145324669778347,-0.010003278031945229
1783693667824048600,8.622048583984375,-0.001767154666595161,0.00850658304989338,-0.004536156542599201
1783693667834010600,8.6320107421875,-0.00295359268784523,0.009673047810792923,-0.0015574106946587563
1783693667843973600,8.6419736328125,-0.0025913091376423836,0.0008350610150955617,-0.002597761806100607
1783693667853935400,8.651935302734374,-0.001351873972453177,-0.002943165833130479,0.0007578210788778961
1783693667863898600,8.661898681640626,0.0015739361988380551,-0.0038281213492155075,0.010056808590888977
1783693667873860600,8.671860595703125,0.006014490965753794,-0.006562388502061367,0.015886468812823296
1783693667883823600,8.68182373046875,0.006297318730503321,-0.00742498692125082,0.023759838193655014
1783693667893785600,8.69178564453125,0.005423535592854023,-0.00445955665782094,0.027262961491942406
1783693667903748600,8.70174853515625,0.008842440322041512,-0.0066036805510520935,0.02564426138997078
1783693667913710600,8.711710693359375,0.006377951242029667,-0.009002390317618847,0.014574301429092884
1783693667923672300,8.72167236328125,0.004481636919081211,-0.007460927125066519,0.0056173475459218025
1783693667933635600,8.731635498046876,0.005595637019723654,-0.003295742906630039,0.0023557741660624743
1783693667943597600,8.74159765625,0.007640245836228132,-0.0067296335473656654,-0.002891057636588812
1783693667953560600,8.751560546875,0.010741496458649635,-0.0016046463279053569,0.0006381634157150984
1783693667963522600,8.7615224609375,0.013179365545511246,0.004626369569450617,0.008757306262850761
1783693667973485600,8.771485595703124,0.014260075986385345,0.00017090118490159512,0.01139463484287262
1783693667983447600,8.781447509765625,0.016148723661899567,-0.006341348402202129,0.008607626892626286
1783693667993410600,8.79141064453125,0.01556921936571598,0.00014717737212777138,0.019288500770926476
1783693668003372500,8.80137255859375,0.010947724804282188,0.011935918591916561,0.02745099738240242
1783693668013335600,8.81133544921875,0.006539394613355398,0.012871220707893372,0.03209714964032173
1783693668023297500,8.821297607421876,0.0022854097187519073,0.010157975368201733,0.034819621592760086
1783693668033260500,8.831260498046875,-0.002365001942962408,0.006465236656367779,0.031133541837334633
1783693668043222500,8.841222412109374,-0.0035010334104299545,-0.00023497885558754206,0.021315524354577065
1783693668053185500,8.851185546875,-0.004423818551003933,-0.003970594611018896,0.010075386613607407
1783693668063147500,8.8611474609375,-0.0036542878951877356,-0.003835331881418824,0.008999945595860481
1783693668073109500,8.871109619140626,-0.000612691743299365,-0.007129396311938763,0.007841737009584904
1783693668083072500,8.881072509765625,0.0025751618668437004,-0.009371517226099968,0.00905993115156889
1783693668093034500,8.891034423828126,0.004416204988956451,-0.0048779649659991264,0.013072515837848186
1783693668102997500,8.90099755859375,0.00795544683933258,-0.005753069184720516,0.019218962639570236
1783693668112959700,8.910959716796874,0.005741294473409653,-0.0035250682849437,0.02429947443306446
1783693668122922500,8.920922607421875,0.0014399056090041995,0.001755430712364614,0.02796870470046997
1783693668132884500,8.930884521484375,-0.0013018186436966062,0.00359940342605114,0.028584692627191544
1783693668142847500,8.940847412109376,-0.0022200527600944042,0.004223951604217291,0.02327561005949974
1783693668152809700,8.950809814453125,-0.0018466777401044965,0.00805038120597601,0.01810561679303646
1783693668162772500,8.9607724609375,0.0009487753268331289,0.006891085300594568,0.008938206359744072
1783693668172734500,8.970734375,0.00184998894110322,0.006152058020234108,-0.0024470731150358915
1783693668182697500,8.980697509765625,0.0011888928711414337,0.005782688967883587,-0.010674238204956055
1783693668192659700,8.99065966796875,-0.00032191837090067565,-0.0008632295066490769,-0.024634795263409615
1783693668202622500,9.00062255859375,0.00042762275552377105,-0.00563691183924675,-0.030879605561494827
1783693668212584400,9.01058447265625,-0.002788144163787365,-0.0056334491819143295,-0.027448121458292007
1783693668222547500,9.02054736328125,-0.005945176817476749,-0.0033681895583868027,-0.018889576196670532
1783693668232509700,9.030509765625,-0.010836871340870857,-0.0020941332913935184,-0.007689118385314941
1783693668242472400,9.040472412109375,-0.012634660117328167,-0.0013223421992734075,0.0006309549789875746
1783693668252434400,9.050434326171874,-0.015894368290901184,-0.000025915331207215786,0.007154634688049555
1783693668262396700,9.060396728515625,-0.01672390103340149,-0.001954857259988785,0.009682056494057178
1783693668272359700,9.070359619140625,-0.02014766074717045,-0.0049644960090518,0.008168848231434822
1783693668282321400,9.0803212890625,-0.020109867677092552,-0.0035890103317797184,0.003819443518295884
1783693668292284400,9.090284423828125,-0.017301298677921295,-0.003931226674467325,-0.0020488318987190723
1783693668302246700,9.10024658203125,-0.015841878950595856,-0.004011910874396563,-0.010571231134235859
1783693668312209700,9.110209716796875,-0.01135179027915001,-0.00426544388756156,-0.017542587593197823
1783693668322171400,9.12017138671875,-0.008474182337522507,-0.0018020067363977432,-0.02040891908109188
1783693668332134400,9.130134521484376,-0.004307134076952934,-0.0023697924334555864,-0.024412713944911957
1783693668342096600,9.1400966796875,-0.002463721204549074,0.0005133872618898749,-0.022154757753014565
1783693668352059600,9.1500595703125,-0.0018256277544423938,0.0035131718032062054,-0.02129136025905609
1783693668362021400,9.160021484375,-0.0006011785008013248,0.003052947111427784,-0.02348846010863781
1783693668371984400,9.169984375,-0.002073906594887376,0.003495297860354185,-0.024801133200526237
1783693668381946600,9.179946533203125,-0.0021683992817997932,0.006253262050449848,-0.025344619527459145
1783693668391909600,9.18990966796875,-0.002523664850741625,0.0034833084791898727,-0.02320769988000393
1783693668401871400,9.199871337890626,-0.0031045940704643726,-0.003153002355247736,-0.024493353441357613
1783693668411834400,9.20983447265625,0.00037935320870019495,-0.004617740865796804,-0.019403519108891487
1783693668421796600,9.219796630859374,0.0021642420906573534,-0.0015870878705754876,-0.006966990418732166
1783693668431758300,9.22975830078125,0.007282038684934378,-0.0024195918813347816,0.004994065035134554
1783693668441721300,9.239721435546874,0.005826305132359266,-0.003553560236468911,0.013000795617699623
1783693668451683600,9.24968359375,0.005327761173248291,-0.006503011099994183,0.017238948494195938
1783693668461646600,9.259646484375,0.002213915577158332,-0.00754692405462265,0.016976427286863327
1783693668471608600,9.269608642578126,-0.003726531518623233,-0.005976458080112934,0.013219240121543407
1783693668481571300,9.2795712890625,-0.005095362197607756,-0.00475329952314496,0.009107437916100025
1783693668491533600,9.289533447265624,-0.009183048270642757,-0.004807361867278814,0.006410188972949982
1783693668501496300,9.299496337890625,-0.00566838076338172,-0.0056747738271951675,0.002329039853066206
1783693668511458300,9.309458251953124,-0.0036249374970793724,-0.006795698776841164,-0.0001700704451650381
1783693668521421300,9.31942138671875,-0.0020011411979794502,-0.008861755952239037,-0.006483615841716528
1783693668531383300,9.32938330078125,0.0005099535337649286,-0.008167203515768051,-0.010789148509502411
1783693668541346300,9.33934619140625,0.002730628242716193,-0.004921387881040573,-0.012709841132164001
1783693668551308300,9.349308349609375,-0.00014105832087807357,-0.00009041395969688892,-0.014052873477339745
1783693668561271600,9.359271484375,0.003783727530390024,-0.0032787001691758633,-0.020050887018442154
1783693668571233300,9.3692333984375,0.008036263287067413,-0.005214019678533077,-0.021297512575984
1783693668581195300,9.3791953125,0.01010327972471714,-0.004328020848333836,-0.015756046399474144
1783693668591158300,9.389158203125,0.011983738280832767,-0.005298476666212082,-0.0060602761805057526
1783693668601120300,9.399120361328125,0.013575193472206593,-0.008328615687787533,0.0033957459963858128
1783693668611083300,9.409083251953126,0.012739759869873524,-0.004241994582116604,0.012639312073588371
1783693668621045200,9.419045166015625,0.01191004179418087,-0.0035127955488860607,0.017306026071310043
1783693668631008500,9.429008544921874,0.011953185312449932,-0.007483835332095623,0.017724674195051193
1783693668640970200,9.43897021484375,0.010479491204023361,-0.004950647242367268,0.02066546492278576
1783693668650933200,9.448933349609375,0.01242732722312212,-0.0018832184141501784,0.02235231176018715
1783693668660895200,9.458895263671875,0.010496812872588634,-0.005499773193150759,0.017544204369187355
1783693668670858500,9.4688583984375,0.010818256065249443,-0.006509110797196627,0.009701194241642952
1783693668680820200,9.4788203125,0.0097910575568676,-0.004038257524371147,0.005307032726705074
1783693668690783200,9.488783203125,0.005925479810684919,-0.00640261173248291,-0.0009977346053346992
1783693668700745500,9.498745361328124,0.002498712856322527,-0.01004816684871912,-0.0017332336865365505
1783693668710708500,9.50870849609375,0.00042810526792891324,-0.0080611826851964,-0.0015287029091268778
1783693668720670200,9.518670166015625,-0.0010773517424240708,-0.00024457904510200024,0.004758358001708984
1783693668730632200,9.528632080078125,-0.00035989616299048066,0.004973086062818766,0.00831580813974142
1783693668740595500,9.538595458984375,-0.0006536926375702024,0.0018819605465978384,0.007613468915224075
1783693668750557400,9.548557373046876,0.0005828130524605513,0.0015045906184241176,0.009105371311306953
1783693668760520200,9.558520263671875,0.002826371230185032,0.004620230291038752,0.007856974378228188
1783693668770482200,9.568482177734374,0.005091655533760786,0.0048838830552995205,0.00016842788318172097
1783693668780445400,9.578445556640625,0.0036489542108029127,0.0011682185577228665,-0.009931887499988079
1783693668790407400,9.588407470703125,0.005457241088151932,0.0016526476247236133,-0.018015380948781967
1783693668800370200,9.5983701171875,0.011607284657657146,-0.003654757048934698,-0.01789821870625019
1783693668810332400,9.60833251953125,0.012484263628721237,-0.003983390983194113,-0.013845154084265232
1783693668820295400,9.61829541015625,0.009467068128287792,-0.002231552731245756,-0.0066371699795126915
1783693668830257400,9.62825732421875,0.003306644270196557,-0.001221415470354259,0.0027901537250727415
1783693668840220200,9.63822021484375,-0.00139758107252419,0.0007548886933363974,0.014180280268192291
1783693668850182400,9.648182373046875,-0.009729812853038311,0.006042328663170338,0.02549498714506626
1783693668860145400,9.6581455078125,-0.011984222568571568,0.005392265971750021,0.03527829423546791
1783693668870107400,9.668107421875,-0.01362366508692503,0.00930791161954403,0.03737153857946396
1783693668880070100,9.678070068359375,-0.0110637117177248,0.005061793141067028,0.03666771948337555
1783693668890032400,9.688032470703124,-0.006585340015590191,-0.003725307062268257,0.030684398487210274
1783693668899994400,9.697994384765625,-0.0003715702914632857,-0.004251586273312569,0.027585990726947784
1783693668909957400,9.707957275390624,0.00528285326436162,-0.004392733797430992,0.027772678062319756
1783693668919919400,9.71791943359375,0.008760841563344002,-0.0012691006995737553,0.030683651566505432
1783693668929882400,9.72788232421875,0.008289994671940804,0.0014502530684694648,0.02525080367922783
1783693668939844400,9.73784423828125,0.004992375615984201,0.00017302099149674177,0.014248340390622616
1783693668949807400,9.747807373046875,0.0007206651498563588,0.0007969996659085155,0.0039443038403987885
1783693668959769300,9.757769287109374,-0.006551702041178942,0.007379770278930664,-0.006844953168183565
1783693668969732400,9.767732421875,-0.01260027289390564,0.009559567086398602,-0.01010412909090519
1783693668979694300,9.7776943359375,-0.014172294177114964,0.005957094021141529,-0.012900367379188538
1783693668989657300,9.7876572265625,-0.011751747690141201,0.005426859017461538,-0.008926399052143097
1783693668999619300,9.797619384765625,-0.009655864909291267,0.0024508191272616386,-0.008125187829136848
1783693669009582300,9.807582275390626,-0.006999628152698278,0.0011567891342565417,-0.004128050059080124
1783693669019544300,9.81754443359375,-0.0027254768647253513,0.0025392211973667145,-0.0037564572412520647
1783693669029507300,9.82750732421875,-0.0009800409898161888,0.0028111301362514496,0.0006215134053491056
1783693669039469300,9.83746923828125,0.005125577561557293,0.003357880748808384,-0.00042959023267030716
1783693669049432300,9.847432373046875,0.009632711298763752,0.005991480778902769,-0.00006926455534994602
1783693669059394300,9.857394287109376,0.010880480520427227,0.005503628868609667,-0.0003140352200716734
1783693669069356300,9.867356201171875,0.010937738232314587,0.002162693301215768,-0.006223856005817652
1783693669079319300,9.8773193359375,0.009552184492349625,0.0021464198362082243,-0.004253751132637262
1783693669089281300,9.88728125,0.009603849612176418,0.0015336264623329043,-0.0029213717207312584
1783693669099244300,9.897244384765624,0.007747665047645569,0.001852116547524929,-0.007002566941082478
1783693669109206300,9.907206298828125,0.008770585060119629,0.0030026021413505077,-0.008236675523221493
1783693669119169300,9.917169189453125,0.007903216406702995,0.00017409527208656073,-0.008239409886300564
1783693669129131300,9.92713134765625,0.009016151539981365,-0.0038723116740584373,-0.011104971170425415
1783693669139094300,9.93709423828125,0.011404059827327728,-0.0007956245681270957,-0.010817335918545723
1783693669149056300,9.94705615234375,0.013988391496241093,0.0007508730632252991,-0.011598973535001278
1783693669159019300,9.957019287109375,0.015644116327166557,-0.003419848158955574,-0.013193247839808464
1783693669168981200,9.966981201171874,0.012448322027921677,0.00012615113519132137,-0.011489356867969036
1783693669178944300,9.9769443359375,0.010311290621757507,-0.0009226090041920543,-0.009285417385399342
1783693669188906500,9.986906494140625,0.005886981263756752,-0.0017114371294155717,-0.01251955982297659
1783693669198869200,9.996869140625,-0.0004027850227430463,0.00005074706859886646,-0.013492516241967678
1783693669208831200,10.006831298828125,-0.0027764607220888138,-0.00009732472244650126,-0.00667402520775795
1783693669218793500,10.01679345703125,-0.005434766411781311,0.0007567640277557075,-0.005574909504503012
1783693669228756500,10.026756591796875,-0.0010104567045345902,-0.004763969220221043,-0.009634631685912609
1783693669238718200,10.03671826171875,-0.0013530220603570342,-0.0016501630889251828,-0.011335775256156921
1783693669248681200,10.04668115234375,-0.002594055375084281,-0.0015359135577455163,-0.005290133412927389
1783693669258643500,10.0566435546875,-0.0023064445704221725,-0.0024720323272049427,-0.006121003068983555
1783693669268606500,10.0666064453125,-0.0005751237040385604,-0.0014618952991440892,-0.008063779212534428
1783693669278568200,10.076568115234375,0.0036341133527457714,0.0002891402691602707,-0.010204869322478771
1783693669288531200,10.08653125,0.007897834293544292,0.00014026951976120472,-0.010963603854179382
1783693669298493400,10.096493408203125,0.012044492177665234,-0.006818554829806089,-0.011605351231992245
1783693669308456400,10.10645654296875,0.016664277762174606,-0.0077746291644871235,-0.014126831665635109
1783693669318418200,10.116418212890625,0.016465533524751663,-0.005925893317908049,-0.007206600159406662
1783693669328381200,10.126381103515625,0.01573263108730316,-0.006139212287962437,-0.005070745013654232
1783693669338343400,10.136343505859376,0.015180813148617744,-0.009740090928971767,-0.009065451100468636
1783693669348306400,10.146306396484375,0.014004228636622429,-0.002309605246409774,-0.005025967955589294
1783693669358268200,10.15626806640625,0.011829137802124023,0.005087087396532297,-0.0031603211537003517
1783693669368230400,10.16623046875,0.00655448017641902,0.005755807273089886,-0.001661494025029242
1783693669378193400,10.176193359375,0.004615421406924725,-0.0007428565295413136,-0.003763757646083832
1783693669388155100,10.186155029296875,0.005565903149545193,-0.008375209756195545,-0.00835744384676218
1783693669398118100,10.1961181640625,0.0007971916347742081,-0.007844978012144566,-0.004164076875895262
1783693669408080400,10.206080322265626,-0.0015953922411426902,-0.006282235495746136,0.006287765223532915
1783693669418043400,10.21604345703125,-0.0019107046537101269,-0.003710145130753517,0.01878383196890354
1783693669428005000,10.226005126953124,-0.0023258915171027184,-0.001213165232911706,0.02894139476120472
1783693669437968100,10.235968017578125,-0.0005841286038048565,-0.004771677311509848,0.02828044444322586
1783693669447930400,10.245930419921875,0.00019617759971879423,-0.006787157617509365,0.021021198481321335
1783693669457893400,10.255893310546876,0.00011736966553144157,-0.0034134299494326115,0.012094742618501186
1783693669467855000,10.265855224609375,-0.0003356340457685292,-0.002310082083567977,0.0043555973097682
1783693669477818400,10.275818359375,-0.0016207306180149317,-0.0005297837778925896,0.000816999701783061
1783693669487780400,10.2857802734375,-0.004774712026119232,0.0031807986088097095,-0.00170954130589962
1783693669497743400,10.295743408203125,-0.0036068835761398077,0.001650513499043882,-0.0064192237332463264
1783693669507705300,10.305705322265625,-0.002132824156433344,0.00233574490994215,-0.008573722094297409
1783693669517668600,10.315668701171875,0.003049216466024518,0.006962733808904886,-0.004425819497555494
1783693669527630300,10.32563037109375,0.004866024479269981,0.00465403962880373,-0.004802124109119177
1783693669537592300,10.33559228515625,0.010227772407233715,0.0011373442830517888,-0.006439986173063517
1783693669547555300,10.345555419921874,0.007162740919739008,-0.0007276673568412662,-0.005348356440663338
1783693669557517300,10.355517333984375,0.002426779828965664,-0.0022779060527682304,0.0019180503441020846
1783693669567480300,10.365480224609374,-0.0025306944735348225,-0.0010682984720915556,0.011215411126613617
1783693669577442300,10.3754423828125,-0.010506539605557919,0.0012449269415810704,0.019910678267478943
1783693669587405600,10.385405517578125,-0.01620277389883995,0.0003596922615543008,0.030440019443631172
1783693669597367300,10.3953671875,-0.017478423193097115,-0.0011630941880866885,0.032461341470479965
1783693669607330300,10.405330322265625,-0.014458931982517242,-0.00720607303082943,0.027043405920267105
1783693669617292300,10.415292236328124,-0.009975127875804901,-0.01473696157336235,0.024662384763360023
1783693669627255600,10.425255615234375,-0.002074061892926693,-0.011944371275603771,0.025393420830368996
1783693669637217300,10.43521728515625,0.0033131297677755356,-0.006725391373038292,0.028347857296466827
1783693669647180300,10.44518017578125,0.00609373627230525,-0.0024619363248348236,0.03262808918952942
1783693669657142500,10.455142578125,0.006625984329730272,-0.003437915351241827,0.03295562416315079
1783693669667105500,10.46510546875,0.00533301942050457,-0.009767983108758926,0.02249925397336483
1783693669677067300,10.4750673828125,0.005454006604850292,-0.006611117161810398,0.011442810297012329
1783693669687029200,10.485029296875,0.003685667645186186,0.0030923765152692795,0.0059079620987176895
1783693669696992500,10.494992431640625,0.0009416519897058606,0.0019107300322502851,-0.005446314811706543
1783693669706954500,10.50495458984375,-0.00023519892420154065,0.0002095027593895793,-0.0165727362036705
1783693669716917500,10.51491748046875,-0.0042182342149317265,0.0026425484102219343,-0.014911952428519726
1783693669726879200,10.524879150390625,-0.006477393675595522,-0.00009811064228415489,-0.015672285109758377
1783693669736842500,10.534842529296874,-0.011432942003011703,-0.001806249376386404,-0.015246416442096233
1783693669746804500,10.544804443359375,-0.012116841971874237,0.009080752730369568,-0.010993349365890026
1783693669756767500,10.554767578125,-0.015350042842328548,0.01489307638257742,-0.006737940013408661
1783693669766729500,10.5647294921875,-0.011979812756180763,0.011864262633025646,-0.012160136364400387
1783693669776692500,10.5746923828125,-0.013816255144774914,0.015448376536369324,-0.02287936769425869
1783693669786654500,10.584654541015626,-0.02460125833749771,0.05196111276745796,0.00028347643092274666
1783693669796617500,10.594617431640625,-0.024274401366710663,0.07319340854883194,-0.010097894817590714
1783693669806579500,10.604579345703126,-0.004382185637950897,0.08270435035228729,-0.05551491305232048
1783693669816542500,10.61454248046875,0.006907603703439236,0.24643923342227936,0.00008104799780994654
1783693669826504400,10.62450439453125,0.040756646543741226,0.16500695049762726,-0.06665776669979095
1783693669836467500,10.634467529296876,0.06450118124485016,0.026483166962862015,-0.1124800518155098
1783693669846429400,10.644429443359375,0.03980754688382149,0.016089381650090218,-0.08184517920017242
1783693669856391400,10.654391357421876,0.012032318860292435,0.0352710597217083,-0.03361538052558899
1783693669866354400,10.6643544921875,-0.018587376922369003,0.0035924939438700676,0.011822409927845001
1783693669876316400,10.67431640625,-0.04204096272587776,-0.021146642044186592,0.06016543507575989
1783693669886279400,10.684279541015625,-0.05773257464170456,-0.025035656988620758,0.11800555884838104
1783693669896241400,10.694241455078124,-0.06761664152145386,-0.03262781351804733,0.16569429636001587
1783693669906204400,10.704204345703126,-0.07102761417627335,-0.07636810839176178,0.18974290788173676
1783693669916166400,10.71416650390625,-0.06790446490049362,-0.1231055036187172,0.20007839798927307
1783693669926129400,10.72412939453125,-0.03473000228404999,-0.08128668367862701,0.2123478502035141
1783693669936091400,10.73409130859375,-0.01723550446331501,-0.0339900404214859,0.19117385149002075
