time,seconds_elapsed,z,y,x
1783693574312160300,0.06016015625,-0.0046831341460347176,-0.038268402218818665,0.05686094984412193
1783693574322123300,0.070123291015625,-0.005443200469017029,-0.04180827736854553,0.037498168647289276
1783693574332085200,0.080085205078125,-0.010549456812441349,-0.044502876698970795,0.022610414773225784
1783693574342048500,0.090048583984375,-0.01049086730927229,-0.04292096197605133,0.0035885213874280453
1783693574352010200,0.10001025390625,-0.004967278800904751,-0.0355653241276741,-0.017285378649830818
1783693574361973200,0.10997314453125,0.001585162477567792,-0.030584948137402534,-0.03487182781100273
1783693574371936300,0.119936279296875,0.007699809968471527,-0.0189993754029274,-0.049249183386564255
1783693574381898500,0.1298984375,0.015038949437439442,-0.008185876533389091,-0.06481855362653732
1783693574391861200,0.139861328125,0.014673770405352116,0.0008321148925460875,-0.07424725592136383
1783693574401822700,0.14982275390625,0.009230801835656166,0.0035008685663342476,-0.08134058862924576
1783693574411785700,0.15978564453125,0.01071495283395052,-0.009068167768418789,-0.09407482296228409
1783693574421749000,0.1697490234375,0.01916169933974743,-0.020498720929026604,-0.10466834902763367
1783693574431711000,0.1797109375,0.023043597117066383,-0.01839187927544117,-0.10927451401948929
1783693574441674000,0.189674072265625,0.024694491177797318,-0.004712818190455437,-0.1029825285077095
1783693574451635700,0.1996357421875,0.020774628967046738,0.011878135614097118,-0.09322278946638107
1783693574461599000,0.209598876953125,0.017274435609579086,0.006574982777237892,-0.08892843872308731
1783693574471562000,0.21956201171875,0.005719852168112993,-0.014030943624675274,-0.07793779671192169
1783693574481524000,0.22952392578125,-0.0030126532074064016,-0.024369334802031517,-0.07199414819478989
1783693574491487000,0.239487060546875,-0.006421869620680809,-0.027314787730574608,-0.05929870530962944
1783693574501449000,0.249448974609375,-0.009244287386536598,-0.028319599106907845,-0.04801781848073006
1783693574511412000,0.259411865234375,-0.013500980101525784,-0.021638529375195503,-0.03277404233813286
1783693574521375000,0.269375,-0.015457605011761189,-0.015749480575323105,-0.016653133556246758
1783693574531337000,0.2793369140625,-0.015894213691353798,-0.012785433791577816,-0.0032428032718598843
1783693574541299700,0.2892998046875,-0.012794560752809048,-0.013519933447241783,0.007773096207529306
1783693574551262000,0.299261962890625,-0.013702315278351307,-0.016940180212259293,0.02341492474079132
1783693574561225000,0.309224853515625,-0.011427709832787514,-0.016587577760219574,0.03598291426897049
1783693574571188000,0.31918798828125,-0.009193789213895798,-0.009543820284307003,0.0462426096200943
1783693574581149700,0.329149658203125,-0.010069702751934528,-0.0113321328535676,0.0506000742316246
1783693574591113000,0.339113037109375,-0.011554252356290817,-0.017449146136641502,0.050566673278808594
1783693574601075000,0.349074951171875,-0.01746354065835476,-0.016506120562553406,0.04983590170741081
1783693574611038000,0.359037841796875,-0.019812345504760742,-0.005878777708858252,0.045789603143930435
1783693574621000000,0.369,-0.020674411207437515,-0.004339470528066158,0.03115047514438629
1783693574630963000,0.378962890625,-0.019889533519744873,-0.010260974988341331,0.01390062365680933
1783693574640926000,0.388926025390625,-0.017906276509165764,-0.01704271510243416,-0.0050741322338581085
1783693574650888000,0.398887939453125,-0.014663436450064182,-0.0158794317394495,-0.015358579345047474
1783693574660851000,0.408850830078125,-0.010113425552845001,-0.013120396994054317,-0.020155463367700577
1783693574670813000,0.41881298828125,-0.005628278478980064,-0.017071187496185303,-0.024522149935364723
1783693574680776000,0.42877587890625,-0.0004542892274912447,-0.021822266280651093,-0.02750462479889393
1783693574690739000,0.438739013671875,-0.00030972150852903724,-0.018601475283503532,-0.013948309235274792
1783693574700701000,0.448700927734375,-0.004312452394515276,-0.002816652413457632,0.005686111748218536
1783693574710664000,0.458663818359375,-0.007299426011741161,0.0011355018941685557,0.01801147125661373
1783693574720626000,0.4686259765625,-0.010037155821919441,-0.008851085789501667,0.025622252374887466
1783693574730589000,0.4785888671875,-0.010693666525185108,-0.015568144619464874,0.031107056885957718
1783693574740552000,0.488552001953125,-0.012579451315104961,-0.005568774417042732,0.03718572109937668
1783693574750514000,0.498513916015625,-0.014636615291237831,-0.0007547822315245867,0.03190334886312485
1783693574760477000,0.508476806640625,-0.012261874042451382,-0.007159418426454067,0.022198524326086044
1783693574770439000,0.51843896484375,-0.003925895784050226,-0.009175727143883705,0.011222914792597294
1783693574780402000,0.52840185546875,-0.000769517500884831,-0.008399415761232376,0.010074027813971043
1783693574790365000,0.538364990234375,0.006806185934692621,-0.0073203290812671185,-0.00007968186400830746
1783693574800327000,0.548326904296875,0.009166013449430466,-0.004224137403070927,-0.003535133320838213
1783693574810290000,0.5582900390625,0.01309041678905487,0.002828996628522873,-0.004090468864887953
1783693574820252000,0.568251953125,0.014925600960850716,0.007343587465584278,-0.006754428613930941
1783693574830215000,0.57821484375,0.014600399881601334,-0.007148825563490391,-0.017541013658046722
1783693574840178000,0.588177978515625,0.012563347816467285,-0.024430610239505768,-0.024602917954325676
1783693574850140000,0.598139892578125,0.01007412001490593,-0.017957506701350212,-0.01775568164885044
1783693574860103000,0.60810302734375,0.0021530804224312305,0.0037379334680736065,-0.00023527699522674084
1783693574870065000,0.61806494140625,-0.008371716365218163,0.010306856594979763,0.004937987774610519
1783693574880028000,0.62802783203125,-0.013531324453651905,0.005326479207724333,0.008924473077058792
1783693574889991000,0.637990966796875,-0.014876981265842915,0.007626994047313929,0.016721300780773163
1783693574899953000,0.647952880859375,-0.01322875078767538,0.012240920215845108,0.022257212549448013
1783693574909916000,0.657916015625,-0.011953327804803848,0.0015938087599352002,0.01990659348666668
1783693574919878000,0.6678779296875,-0.0058147418312728405,-0.005620961077511311,0.020969461649656296
1783693574929841000,0.6778408203125,-0.004708404652774334,0.006456172093749046,0.033152755349874496
1783693574939804000,0.687803955078125,-0.00722562475129962,0.016977256163954735,0.041565414518117905
1783693574949766000,0.697765869140625,-0.006475682836025953,0.010038739070296288,0.028959175571799278
1783693574959729000,0.70772900390625,-0.004242888651788235,0.014581559225916862,0.021613378077745438
1783693574969691100,0.717691162109375,-0.010670527815818787,0.01922101341187954,0.016966672614216805
1783693574979654000,0.72765380859375,-0.008659841492772102,0.010210473090410233,0.004382169805467129
1783693574989617000,0.737616943359375,-0.004169618245214224,-0.015061082318425179,-0.005432203412055969
1783693574999579000,0.747578857421875,-0.0030817165970802307,-0.016848329454660416,-0.008478326722979546
1783693575009542000,0.7575419921875,0.000060942082200199366,-0.01517952885478735,-0.004528052639216185
1783693575019503900,0.76750390625,-0.0024139336310327053,-0.01689806766808033,0.005752015393227339
1783693575029467000,0.777466796875,-0.008228680118918419,-0.01524424459785223,0.018360484391450882
1783693575039430000,0.787429931640625,-0.013677507638931274,-0.0009214984020218253,0.03923247754573822
1783693575049391900,0.797391845703125,-0.01824001595377922,0.012650206685066223,0.05400191247463226
1783693575059355100,0.807355224609375,-0.02172263152897358,0.013721330091357231,0.060684848576784134
1783693575069316900,0.81731689453125,-0.024934418499469757,0.0011618509888648987,0.05748080834746361
1783693575079279900,0.82727978515625,-0.022036366164684296,-0.011476978659629822,0.047649484127759933
1783693575089243000,0.837242919921875,-0.020523039624094963,-0.014283450320363045,0.04140987619757652
1783693575099205000,0.847205078125,-0.013418258167803288,-0.005879579111933708,0.04021225497126579
1783693575109167900,0.85716796875,-0.009112135507166386,-0.002879481762647629,0.03600575774908066
1783693575119129900,0.8671298828125,-0.0107608987018466,-0.008643095381557941,0.026118241250514984
1783693575129092900,0.8770927734375,-0.012358502484858036,-0.0053482092916965485,0.02231523022055626
1783693575139055900,0.887055908203125,-0.014723655767738819,0.006416837219148874,0.02557200938463211
1783693575149017900,0.897017822265625,-0.019808722659945488,0.00965814758092165,0.023949895054101944
1783693575158980900,0.90698095703125,-0.026189656928181648,0.00430306326597929,0.018741818144917488
1783693575168942800,0.91694287109375,-0.0314481258392334,-0.0002104665618389845,0.016671426594257355
1783693575178905900,0.92690576171875,-0.03637310862541199,-0.006099781021475792,0.020221419632434845
1783693575188869000,0.936869140625,-0.03638535737991333,-0.0007745656184852123,0.029090095311403275
1783693575198830800,0.946830810546875,-0.03421088680624962,0.0029173747170716524,0.0304496381431818
1783693575208793900,0.9567939453125,-0.029545342549681664,-0.004999089520424604,0.02841777354478836
1783693575218755800,0.966755859375,-0.02555299922823906,-0.0038952091708779335,0.029183698818087578
1783693575228719000,0.976718994140625,-0.020788926631212234,-0.0025761500000953674,0.025422731414437294
1783693575238682000,0.98668212890625,-0.01788022369146347,-0.006917102728039026,0.016931509599089622
1783693575248643800,0.996643798828125,-0.014657177031040192,-0.007625251542776823,0.004208906553685665
1783693575258606800,1.00660693359375,-0.013933596201241016,-0.00834590196609497,0.0016983444802463055
1783693575268569000,1.016569091796875,-0.010173153132200241,-0.0015913224779069424,0.006844154093414545
1783693575278532000,1.026531982421875,-0.006224218290299177,0.002541104331612587,0.018134092912077904
1783693575288494800,1.036494873046875,-0.004208917263895273,-0.00044134201016277075,0.023278020322322845
1783693575298456800,1.046456787109375,-0.0029465791303664446,-0.0020637395791709423,0.027899671345949173
1783693575308419800,1.056419921875,0.0024553206749260426,-0.0020834931638091803,0.027345234528183937
1783693575318382000,1.066382080078125,0.0036894294898957014,-0.007078251801431179,0.022113986313343048
1783693575328344800,1.0763447265625,0.002489121863618493,-0.01066865399479866,0.018345719203352928
1783693575338306800,1.086306884765625,0.0035264231264591217,-0.0066808364354074,0.015483620576560497
1783693575348269800,1.096269775390625,0.0018526474013924599,-0.002663796069100499,0.015571133233606815
1783693575358233000,1.106233154296875,0.0007343859761022031,-0.003436112543568015,0.014704540371894836
1783693575368194800,1.11619482421875,0.0013669151812791824,-0.004077911376953125,0.014594269916415215
1783693575378157800,1.12615771484375,-0.0013401880860328674,-0.0005079441471025348,0.01757674291729927
1783693575388119800,1.136119873046875,-0.00557329598814249,0.009016532450914383,0.018427446484565735
1783693575398083300,1.146083251953125,-0.012971557676792145,0.014352708123624325,0.016385335475206375
1783693575408046600,1.156046630859375,-0.019834641367197037,0.0119539899751544,0.010398713871836662
1783693575418008300,1.16600830078125,-0.01859307661652565,0.013901293277740479,0.0036854175850749016
1783693575427971300,1.175971435546875,-0.018037958070635796,0.02044796757400036,0.0016331207007169724
1783693575437933600,1.18593359375,-0.015642179176211357,0.019582174718379974,0.0021694812458008528
1783693575447896600,1.195896484375,-0.012792223133146763,0.012972389347851276,-0.004519573412835598
1783693575457859600,1.205859619140625,-0.00865660049021244,0.003715241327881813,-0.008219502866268158
1783693575467821300,1.2158212890625,-0.005712597165256739,0.005310548469424248,-0.0032774731516838074
1783693575477784300,1.225784423828125,-0.003943991847336292,0.017140842974185944,0.004897366277873516
1783693575487746600,1.23574658203125,-0.0007868421380408108,0.017265455797314644,0.013369964435696602
1783693575497709600,1.24570947265625,0.0050444151274859905,0.00912470556795597,0.017347393557429314
1783693575507672300,1.25567236328125,0.005904069636017084,0.004482803866267204,0.022537104785442352
1783693575517634300,1.26563427734375,0.003154089441522956,0.0049477918073534966,0.02680668607354164
1783693575527597300,1.275597412109375,0.002274298807606101,0.006927328649908304,0.025519147515296936
1783693575537559600,1.2855595703125,0.0018772215116769075,0.0052474066615104675,0.0255977101624012
1783693575547522300,1.295522216796875,0.0013065790990367532,0.014529337175190449,0.03406979888677597
1783693575557485300,1.3054853515625,0.002470380626618862,0.028503211215138435,0.04766390472650528
1783693575567447300,1.315447265625,0.004732586909085512,0.02813863381743431,0.05674351751804352
1783693575577410600,1.32541064453125,0.0030215061269700527,0.02186555787920952,0.05759359896183014
1783693575587372300,1.335372314453125,0.005864371545612812,0.013530656695365906,0.05560603365302086
1783693575597335300,1.345335205078125,0.006155188661068678,0.0059941778890788555,0.0483262836933136
1783693575607298300,1.35529833984375,0.008832450956106186,-0.0009657391346991062,0.03742251172661781
1783693575617260500,1.365260498046875,0.011969388462603092,0.00008567690383642912,0.02729450911283493
1783693575627223600,1.3752236328125,0.01373032946139574,0.008449604734778404,0.020172733813524246
1783693575637185300,1.385185302734375,0.010356903076171875,0.013551156967878342,0.015304209664463997
1783693575647148300,1.395148193359375,0.010805572383105755,0.012360706925392151,0.0059705874882638454
1783693575657110500,1.405110595703125,0.009441501460969448,0.01302303560078144,-0.0030801654793322086
1783693575667073500,1.415073486328125,0.007549355737864971,0.016976745799183846,-0.008632257580757141
1783693575677036500,1.42503662109375,0.0047916523180902,0.017712844535708427,-0.018290743231773376
1783693575686998300,1.434998291015625,0.004296667408198118,0.014471856877207756,-0.025596121326088905
1783693575696961300,1.444961181640625,0.0011586651671677828,0.013417244888842106,-0.026671772822737694
1783693575706923500,1.454923583984375,0.00040813430678099394,0.012886656448245049,-0.02130325324833393
1783693575716886500,1.464886474609375,0.0005247807130217552,0.015462998300790787,-0.010712395422160625
1783693575726849300,1.474849365234375,0.0015044237952679396,0.012279210612177849,0.001365399337373674
1783693575736811500,1.4848115234375,0.0011885728454217315,0.011636588722467422,0.012034289538860321
1783693575746774500,1.4947744140625,0.004879654850810766,0.01098597515374422,0.019735833629965782
1783693575756736500,1.504736572265625,0.009925547055900097,0.009936423040926456,0.02454843372106552
1783693575766699300,1.51469921875,0.014397392980754375,0.012403862550854683,0.02495438978075981
1783693575776662300,1.524662353515625,0.0157121941447258,0.013243556953966618,0.0222448892891407
1783693575786624500,1.53462451171875,0.020720433443784714,0.012726864777505398,0.017494050785899162
1783693575796587500,1.54458740234375,0.022996369749307632,0.00976649485528469,0.007989761419594288
1783693575806549200,1.55454931640625,0.025088416412472725,0.0041280705481767654,-0.008441583253443241
1783693575816512300,1.56451220703125,0.029284493997693062,-0.002328496892005205,-0.013325554318726063
1783693575826475300,1.574475341796875,0.02907993085682392,0.00021803600247949362,-0.013244926929473877
1783693575836437500,1.5844375,0.02889111265540123,0.003220750018954277,-0.011921868659555912
1783693575846400500,1.594400390625,0.025025522336363792,0.00411476194858551,-0.01369259599596262
1783693575856362200,1.6043623046875,0.019344201311469078,0.007804038934409618,-0.007288492750376463
1783693575866325500,1.614325439453125,0.009028207510709763,0.012660602107644081,-0.000022607389837503433
1783693575876288500,1.62428857421875,0.0006546960212290287,0.012162058614194393,0.0027830328326672316
1783693575886250500,1.63425048828125,-0.0050955116748809814,0.007078869268298149,0.0069765630178153515
1783693575896213500,1.644213623046875,-0.008816479705274105,0.007646655198186636,0.014431550167500973
1783693575906175500,1.654175537109375,-0.009324375540018082,0.013621475547552109,0.015507133677601814
1783693575916138500,1.664138427734375,-0.006680656224489212,0.013290444388985634,0.01716867834329605
1783693575926101500,1.6741015625,-0.0018872912041842937,0.00961580965667963,0.018331367522478104
1783693575936063500,1.6840634765625,0.0023561895359307528,0.01286539901047945,0.018585698679089546
1783693575946026200,1.694026123046875,0.0073102917522192,0.01249920018017292,0.010156378149986267
1783693575955988500,1.703988525390625,0.007965696044266224,0.0037927948869764805,-0.006611151155084372
1783693575965951500,1.713951416015625,0.006730891764163971,-0.004647563677281141,-0.016113467514514923
1783693575975913500,1.72391357421875,0.00471141654998064,-0.0003090082900598645,-0.015962732955813408
1783693575985876200,1.733876220703125,0.0010592751204967499,0.0060884468257427216,-0.018214335665106773
1783693575995839200,1.743839111328125,-0.002992191817611456,0.012193210422992706,-0.023141449317336082
1783693576005801500,1.753801513671875,-0.006910232361406088,0.01909954473376274,-0.01721716672182083
1783693576015764500,1.763764404296875,-0.012614190578460693,0.021331006661057472,-0.012771018780767918
1783693576025726200,1.773726318359375,-0.014976133592426777,0.017762647941708565,-0.00973475631326437
1783693576035689500,1.783689453125,-0.01761292852461338,0.011232312768697739,-0.007895576767623425
1783693576045652500,1.793652587890625,-0.014444300904870033,0.0073659345507621765,-0.00201638275757432
1783693576055614500,1.803614501953125,-0.007387989200651646,0.005131809040904045,0.006708932109177113
1783693576065577500,1.813577392578125,-0.001597729860804975,0.009316978044807911,0.010965187102556229
1783693576075539500,1.82353955078125,0.004111554939299822,0.006957150995731354,0.01700257509946823
1783693576085502500,1.83350244140625,0.008668682537972927,0.008601104840636253,0.019557569175958633
1783693576095465500,1.843465576171875,0.012233057990670204,0.011522059328854084,0.019367951899766922
1783693576105427500,1.853427490234375,0.015549254603683949,0.009289288893342018,0.013629356399178505
1783693576115390500,1.863390380859375,0.017827853560447693,0.00074480235343799,0.0016664364375174046
1783693576125352400,1.8733525390625,0.020180117338895798,-0.002538565080612898,-0.005855056457221508
1783693576135315500,1.8833154296875,0.020086906850337982,-0.009023096412420273,-0.011711347848176956
1783693576145278500,1.893278564453125,0.025406986474990845,-0.009168779477477074,-0.012312788516283035
1783693576155240400,1.903240478515625,0.023319335654377937,0.0015685525722801685,-0.005896434653550386
1783693576165203500,1.913203369140625,0.02000492997467518,0.012337004765868187,-0.0013408547965809703
1783693576175165400,1.92316552734375,0.01586531288921833,0.014124518260359764,-0.004289506934583187
1783693576185128400,1.93312841796875,0.010200458578765392,0.014452585950493813,-0.0060953726060688496
1783693576195091500,1.943091552734375,0.0044091492891311646,0.017218012362718582,-0.009973468258976936
1783693576205053400,1.953053466796875,-0.0007152172038331628,0.010912206955254078,-0.011120189912617207
1783693576215016400,1.963016357421875,-0.00152188865467906,0.004264690913259983,-0.01394047774374485
1783693576224978400,1.972978515625,-0.0009797282982617617,0.0004904542583972216,-0.018187737092375755
1783693576234941400,1.98294140625,0.002741506788879633,0.0000252000754699111,-0.012569532729685307
1783693576244904400,1.992904541015625,0.007982459850609303,-0.004193770699203014,-0.0025090756826102734
1783693576254866400,2.002866455078125,0.013249926269054413,-0.005292590707540512,0.0033733146265149117
1783693576264829400,2.012829345703125,0.016226107254624367,-0.0073525067418813705,0.004224751144647598
1783693576274791400,2.02279150390625,0.014250042848289013,-0.002770271385088563,0.006686044856905937
1783693576284754400,2.03275439453125,0.010103577747941017,0.007106302306056023,0.015416811220347881
1783693576294716400,2.04271630859375,0.007536023855209351,0.0071166884154081345,0.017891153693199158
1783693576304679400,2.052679443359375,0.005085248500108719,0.0027770879678428173,0.01424830686300993
1783693576314642400,2.062642333984375,0.004916403908282518,-0.003276010975241661,0.008435958065092564
1783693576324604400,2.0726044921875,0.004372693132609129,-0.001186272013001144,0.004551663063466549
1783693576334567400,2.0825673828125,0.00356628792360425,-0.0017481989925727248,0.002214206848293543
1783693576344529400,2.092529296875,-0.001785852713510394,0.0024990218225866556,0.0005481252446770668
1783693576354492400,2.102492431640625,-0.000756274675950408,0.012723429128527641,-0.005765164270997047
1783693576364455400,2.112455322265625,-0.0007405204232782125,0.015076899901032448,-0.009957005269825459
1783693576374417400,2.12241748046875,0.0006800097180530429,0.011560728773474693,-0.020183810964226723
1783693576384380400,2.13238037109375,0.004910413641482592,0.0009802327258512378,-0.03094509430229664
1783693576394342400,2.14234228515625,0.003886960446834564,-0.0032978691160678864,-0.04100918024778366
1783693576404305700,2.1523056640625,0.002455172361806035,-0.0004943758249282837,-0.04164811223745346
1783693576414268700,2.1622685546875,0.0014964343281462789,0.0024518792051821947,-0.04062412679195404
1783693576424231000,2.17223095703125,-0.0022003890480846167,0.00464713666588068,-0.037086766213178635
1783693576434194000,2.18219384765625,-0.007732307072728872,0.005982446018606424,-0.02683413214981556
1783693576444155600,2.19215576171875,-0.007413305342197418,0.010718352161347866,-0.016524028033018112
1783693576454118700,2.20211865234375,-0.00460899667814374,0.008037613704800606,-0.013431298546493053
1783693576464081700,2.21208154296875,-0.004754775203764439,0.003123551607131958,-0.012145898304879665
1783693576474044000,2.2220439453125,-0.001136338571086526,-0.0038797627203166485,-0.01265376340597868
1783693576484007000,2.2320068359375,0.0001007270475383848,-0.0044131712056696415,-0.007114407140761614
1783693576493968600,2.24196875,0.0020568189211189747,-0.0017769079422578216,-0.0015571884578093886
1783693576503931600,2.251931640625,0.005019648000597954,-0.004667806439101696,0.00615066708996892
1783693576513894000,2.261893798828125,0.002297364640980959,-0.0004440327174961567,0.015623264946043491
1783693576523857000,2.27185693359375,-0.0031629453878849745,0.010493321344256401,0.019167600199580193
1783693576533820000,2.28181982421875,-0.004957649856805801,0.015689682215452194,0.00758045120164752
1783693576543781600,2.29178173828125,-0.007985650561749935,0.008849630132317543,-0.0022122671362012625
1783693576553745000,2.301744873046875,-0.00831668172031641,0.0012481696903705597,-0.0145709328353405
1783693576563707000,2.311706787109375,-0.0034800104331225157,-0.005174578167498112,-0.022765636444091797
1783693576573670000,2.321669921875,0.0013485669624060392,-0.006150892935693264,-0.028365997597575188
1783693576583632600,2.331632568359375,0.004675049334764481,-0.006014022510498762,-0.030558621510863304
1783693576593595000,2.341594970703125,0.0023754092399030924,-0.000947625027038157,-0.03107127733528614
1783693576603558000,2.351557861328125,0.00044310936937108636,0.0059954882599413395,-0.021359145641326904
1783693576613520000,2.361519775390625,-0.003145500086247921,0.01287656370550394,-0.008201532065868378
1783693576623482600,2.371482666015625,-0.008537320420145988,0.019473982974886894,0.005000363569706678
1783693576633445600,2.381445556640625,-0.009476350620388985,0.015864068642258644,0.0106236282736063
1783693576643408000,2.391407958984375,-0.00967343058437109,0.005494334734976292,0.014365467242896557
1783693576653371000,2.401370849609375,-0.009578355588018894,0.0023536686785519123,0.018238501623272896
1783693576663332600,2.41133251953125,-0.008548743091523647,-0.0006994393188506365,0.019626162946224213
1783693576673295600,2.421295654296875,-0.006369478069245815,-0.0026960112154483795,0.021093031391501427
1783693576683259000,2.4312587890625,-0.006161662749946117,-0.0035269311629235744,0.02657313458621502
1783693576693220900,2.441220947265625,-0.006758210714906454,0.0026939467061311007,0.027437062934041023
1783693576703184000,2.451183837890625,-0.008932518772780895,0.004306493327021599,0.030564038082957268
1783693576713145900,2.461145751953125,-0.010905920527875423,0.005729420110583305,0.027492614462971687
1783693576723108900,2.47110888671875,-0.008351284079253674,0.0034865266643464565,0.023542972281575203
1783693576733070800,2.48107080078125,-0.008918804116547108,0.011484531685709953,0.018991364166140556
1783693576743033900,2.491033935546875,-0.005991915240883827,0.00959685817360878,0.010051523335278034
1783693576752996600,2.50099658203125,-0.008705143816769123,-0.001408122479915619,-0.000028541311621665955
1783693576762958800,2.510958740234375,-0.009858930483460426,-0.002710097935050726,-0.008905314840376377
1783693576772921900,2.520921875,-0.010271986946463585,-0.0030035781674087048,-0.014995432458817959
1783693576782883800,2.5308837890625,-0.008305124938488007,0.0010641429107636213,-0.015370838344097137
1783693576792846600,2.5408466796875,-0.006224663928151131,-0.0008959436090663075,-0.018714969977736473
1783693576802809600,2.5508095703125,0.0007972475723363459,-0.003857638221234083,-0.018864165991544724
1783693576812771800,2.560771728515625,0.00200925231911242,-0.00011403253301978111,-0.009865077212452888
1783693576822734800,2.57073486328125,0.0006850245408713818,0.0032029368449002504,0.0037805852480232716
1783693576832696800,2.58069677734375,-0.006749722175300121,0.005337726790457964,0.015083041042089462
1783693576842659600,2.59065966796875,-0.010501417331397533,0.001543748308904469,0.023839492350816727
1783693576852622800,2.600622802734375,-0.009291277267038822,-0.0007138133514672518,0.030914712697267532
1783693576862584800,2.610584716796875,-0.00862864125519991,-0.004469102248549461,0.035378675907850266
1783693576872547800,2.6205478515625,-0.007225154899060726,-0.007305635139346123,0.040922313928604126
1783693576882509800,2.630509765625,-0.0056631797924637794,-0.008154137060046196,0.04147018864750862
1783693576892472800,2.640472900390625,-0.0036698034964501858,-0.010594391264021397,0.036915916949510574
1783693576902435800,2.650435791015625,-0.0024798125959932804,-0.00656987726688385,0.03642263263463974
1783693576912397800,2.660397705078125,-0.001495774369686842,0.0031549218110740185,0.03571130335330963
1783693576922360800,2.67036083984375,-0.0005911429179832339,0.0048468345776200294,0.030054692178964615
1783693576932322800,2.68032275390625,-0.002781060291454196,0.006813046522438526,0.019602850079536438
1783693576942285800,2.690285888671875,-0.0015624893130734563,0.006832809653133154,0.005677514243870974
1783693576952247800,2.700247802734375,-0.0008453000918962061,-0.0028440523892641068,-0.008525656536221504
1783693576962210800,2.7102109375,-0.0021440787240862846,-0.008869461715221405,-0.023312000557780266
1783693576972173600,2.720173583984375,0.0002610220108181238,-0.00594957172870636,-0.026726705953478813
1783693576982135800,2.7301357421875,0.002260747132822871,0.0027248417027294636,-0.015889212489128113
1783693576992098800,2.740098876953125,0.003658906789496541,0.0051613678224384785,-0.007250185124576092
1783693577002060800,2.750060791015625,0.0016849692910909653,0.005388044286519289,0.0012742438120767474
1783693577012023800,2.76002392578125,0.0019025494111701846,0.009893846698105335,0.00645222794264555
1783693577021986800,2.76998681640625,-0.004854509141296148,0.018688376992940903,0.010352926328778267
1783693577031948800,2.77994873046875,-0.006574645172804594,0.013416647911071777,0.003539229277521372
1783693577041911800,2.789911865234375,-0.0012005346361547709,-0.0013380538439378142,-0.006972433067858219
1783693577051873800,2.799873779296875,0.0071527366526424885,-0.0059850034303963184,-0.005741520784795284
1783693577061836800,2.8098369140625,0.016765208914875984,-0.005259021185338497,0.000005098176188766956
1783693577071799800,2.8197998046875,0.020677924156188965,-0.000717265997081995,0.0025289757177233696
1783693577081761800,2.82976171875,0.016549358144402504,0.007671179249882698,0.0071051763370633125
1783693577091724800,2.839724853515625,0.011869118548929691,0.01460312120616436,0.005673461128026247
1783693577101686800,2.849686767578125,0.006006615236401558,0.010583052411675453,0.0007439173641614616
1783693577111649800,2.85964990234375,0.003802316728979349,0.006710016634315252,-0.00552329933270812
1783693577121612800,2.86961279296875,0.005525589920580387,0.0024116700515151024,-0.010663250461220741
1783693577131574800,2.87957470703125,0.01065563689917326,0.003939259331673384,-0.008983062580227852
1783693577141537800,2.889537841796875,0.015525950118899345,0.007075689733028412,-0.008071853779256344
1783693577151499800,2.899499755859375,0.01825196109712124,0.015003121457993984,-0.004114395938813686
1783693577161462800,2.909462890625,0.01785845123231411,0.019307052716612816,-0.0027089379727840424
1783693577171425800,2.91942578125,0.011160600930452347,0.024673055857419968,-0.006911139935255051
1783693577181387800,2.9293876953125,0.007270859554409981,0.02033957652747631,-0.013742373324930668
1783693577191350800,2.939350830078125,0.0038641439750790596,0.008287441916763783,-0.02402510493993759
1783693577201312800,2.949312744140625,0.002475616754963994,0.0011301892809569836,-0.02947067841887474
1783693577211275800,2.95927587890625,0.0034439421724528074,0.0041387625969946384,-0.023594679310917854
1783693577221238000,2.969238037109375,0.00814317911863327,0.007953726686537266,-0.01732521504163742
1783693577231200800,2.97920068359375,0.01358588133007288,0.00575368944555521,-0.012937390245497227
1783693577241163800,2.989163818359375,0.017026463523507118,0.010435253381729126,-0.008755370043218136
1783693577251125800,2.999125732421875,0.017655769363045692,0.011730082333087921,-0.010909867472946644
1783693577261088800,3.0090888671875,0.019254596903920174,0.008723394013941288,-0.015833428129553795
1783693577271050800,3.01905078125,0.021981939673423767,0.00676756864413619,-0.018736008554697037
1783693577281013800,3.029013671875,0.028938988223671913,0.005756382830440998,-0.018427040427923203
1783693577290976800,3.038976806640625,0.03266448527574539,0.005782481748610735,-0.015009671449661255
1783693577300938800,3.048938720703125,0.041981350630521774,0.0027853231877088547,-0.013086202554404736
1783693577310901800,3.05890185546875,0.04832926020026207,0.0021006246097385883,-0.012103762477636337
1783693577320863700,3.06886376953125,0.05278022959828377,0.0037912223488092422,-0.00849306583404541
1783693577330826800,3.07882666015625,0.05442925915122032,0.0012321907561272383,-0.005254928953945637
1783693577340789800,3.088789794921875,0.05319696664810181,0.0014372611185535789,-0.0019827615469694138
1783693577350752000,3.098751953125,0.049635253846645355,-0.0022741202265024185,0.0025318292900919914
1783693577360715000,3.108715087890625,0.04622092470526695,-0.008400233462452888,0.008524666540324688
1783693577370676700,3.1186767578125,0.04060937836766243,-0.011417594738304615,0.015717865899205208
1783693577380639700,3.1286396484375,0.030737513676285744,-0.0080260643735528,0.03259266912937164
1783693577390602000,3.13860205078125,0.020753590390086174,-0.004096037242561579,0.04861903935670853
1783693577400564500,3.148564453125,0.010376212187111378,-0.00334528973326087,0.0595536045730114
1783693577410527500,3.158527587890625,0.0016232008347287774,0.003521138336509466,0.06235098838806152
1783693577420489500,3.168489501953125,-0.006603735499083996,0.0057891253381967545,0.059465743601322174
1783693577430452200,3.1784521484375,-0.009345727041363716,-0.002785454038530588,0.054307468235492706
1783693577440414500,3.18841455078125,-0.005481642205268145,-0.010707029141485691,0.042282070964574814
1783693577450377500,3.19837744140625,-0.007719762623310089,-0.008239876478910446,0.03436422720551491
1783693577460340500,3.208340576171875,-0.014279792085289955,0.000002053682692348957,0.029917988926172256
1783693577470302500,3.218302490234375,-0.01424490474164486,0.0004326868802309036,0.01844882033765316
1783693577480265500,3.228265380859375,-0.012105882167816162,0.00315201748162508,0.012402928434312344
1783693577490227500,3.2382275390625,-0.011509601026773453,0.0054830820299685,0.009750420227646828
1783693577500190500,3.2481904296875,-0.010133828967809677,-0.001086107105948031,0.0051832906901836395
1783693577510153500,3.258153564453125,-0.014012722298502922,-0.004260062240064144,0.006619267165660858
1783693577520115500,3.268115478515625,-0.021628979593515396,-0.003645661985501647,0.006481147836893797
1783693577530078500,3.278078369140625,-0.026315877214074135,0.0007328411447815597,0.006761578842997551
1783693577540040400,3.28804052734375,-0.03063984215259552,0.0039014657959342003,0.013943541795015335
1783693577550003500,3.29800341796875,-0.03364096209406853,0.004694022238254547,0.020193448290228844
1783693577559966500,3.307966552734375,-0.03577946498990059,0.0037408885546028614,0.021878687664866447
1783693577569928400,3.317928466796875,-0.03784660995006561,0.0026788199320435524,0.02038811706006527
1783693577579891500,3.327891357421875,-0.03886847943067551,0.0026969178579747677,0.01692521758377552
1783693577589853400,3.337853515625,-0.03864024579524994,-0.0004312311066314578,0.0047545707784593105
1783693577599816400,3.34781640625,-0.03498861938714981,-0.003558844793587923,-0.010989346541464329
1783693577609778400,3.3577783203125,-0.02987721748650074,-0.0015225921524688601,-0.028455955907702446
1783693577619741400,3.367741455078125,-0.02889855019748211,-0.002477062400430441,-0.04473964497447014
1783693577629704400,3.377704345703125,-0.025014596059918404,-0.007862506434321404,-0.056325726211071014
1783693577639666400,3.38766650390625,-0.02660299278795719,-0.009791461750864983,-0.05781366676092148
1783693577649629400,3.39762939453125,-0.031802549958229065,-0.0036155912093818188,-0.05667063966393471
1783693577659591400,3.40759130859375,-0.038277968764305115,0.003876950591802597,-0.05130644887685776
1783693577669554400,3.417554443359375,-0.03818928450345993,-0.006668900605291128,-0.04174117371439934
1783693577679517400,3.427517333984375,-0.03645152598619461,-0.01542374212294817,-0.024730259552598
1783693577689479400,3.4374794921875,-0.03621850162744522,-0.01214299350976944,-0.002239065710455179
1783693577699442400,3.4474423828125,-0.034091610461473465,-0.003470956115052104,0.022527916356921196
1783693577709404400,3.457404296875,-0.03749166801571846,0.005697774700820446,0.04162358120083809
1783693577719367400,3.467367431640625,-0.03581224009394646,0.009638754650950432,0.056336186826229095
1783693577729330400,3.477330322265625,-0.03773397579789162,0.013042008504271507,0.06185159459710121
1783693577739292400,3.48729248046875,-0.036883506923913956,0.0064549134112894535,0.06144644692540169
1783693577749255400,3.49725537109375,-0.03162802383303642,0.00048037804663181305,0.05561918392777443
1783693577759217400,3.507217529296875,-0.026863623410463333,-0.006085060071200132,0.04640747606754303
1783693577769180400,3.517180419921875,-0.017138557508587837,-0.014198646880686283,0.031220801174640656
1783693577779142400,3.527142333984375,-0.011843685992062092,-0.013230344280600548,0.018347367644309998
1783693577789105400,3.53710546875,-0.005809496156871319,-0.008287250995635986,0.009394885040819645
1783693577799068400,3.547068359375,-0.000043512394768185914,-0.0009537272853776813,-0.000010049785487353802
1783693577809030700,3.55703076171875,0.0030398955568671227,0.0003629395505413413,-0.007138000801205635
1783693577818993700,3.56699365234375,0.0018426687456667423,0.00823366641998291,-0.01088338065892458
1783693577828955400,3.576955322265625,-0.0023427552077919245,0.01773103140294552,-0.010482308454811573
1783693577838918400,3.58691845703125,-0.008101867511868477,0.027452878654003143,-0.01318752858787775
1783693577848881400,3.59688134765625,-0.012139752507209778,0.030657993629574776,-0.016362547874450684
1783693577858843600,3.60684375,-0.014786948449909687,0.030214563012123108,-0.022426292300224304
1783693577868806400,3.616806396484375,-0.012014597654342651,0.024968935176730156,-0.030327625572681427
1783693577878768400,3.626768310546875,-0.00848803948611021,0.014403111301362514,-0.03455912321805954
1783693577888731400,3.6367314453125,-0.0034751715138554573,0.010984145104885101,-0.03652400150895119
1783693577898694400,3.6466943359375,0.0015012247022241354,0.009289320558309555,-0.032148171216249466
1783693577908656400,3.656656494140625,0.013654028065502644,0.004192030057311058,-0.02657044492661953
1783693577918619400,3.666619384765625,0.023520564660429955,0.003684436436742544,-0.015014140866696835
1783693577928581400,3.676581298828125,0.03217237442731857,0.012089905329048634,-0.0036323238164186478
1783693577938544400,3.68654443359375,0.036235205829143524,0.013180484063923359,0.0033972389064729214
1783693577948506400,3.69650634765625,0.04041876271367073,0.013010573573410511,0.0073243360966444016
1783693577958469400,3.706469482421875,0.04407726973295212,0.018359767273068428,0.008902178145945072
1783693577968432400,3.716432373046875,0.04563335329294205,0.023819779977202415,0.01114109717309475
1783693577978394600,3.72639453125,0.0474928617477417,0.018515324220061302,0.014706568792462349
1783693577988357600,3.736357666015625,0.04593358188867569,0.005930022802203894,0.01857800781726837
1783693577998319400,3.7463193359375,0.046021971851587296,-0.003408108139410615,0.02365534007549286
1783693578008282400,3.756282470703125,0.04614953696727753,-0.008874778635799885,0.020641174167394638
1783693578018245400,3.766245361328125,0.04509181156754494,-0.012678810395300388,0.010316397063434124
1783693578028207600,3.77620751953125,0.039727408438920975,-0.0095607815310359,0.0031381133012473583
1783693578038170600,3.786170654296875,0.028868963941931725,-0.0052100117318332195,0.0014282331103459
1783693578048132400,3.79613232421875,0.018054399639368057,-0.002192916814237833,0.0017203819006681442
1783693578058095400,3.806095458984375,0.003247531596571207,-0.001963051501661539,0.0004263246664777398
1783693578068058400,3.816058349609375,-0.010127662681043148,-0.0017550585325807333,-0.007318413816392422
1783693578078020600,3.8260205078125,-0.023388179019093513,-0.005734085105359554,-0.016263281926512718
1783693578087983400,3.8359833984375,-0.034959081560373306,-0.004970290698111057,-0.020041508600115776
1783693578097945300,3.8459453125,-0.040082067251205444,-0.0017966224113479257,-0.018751561641693115
1783693578107908600,3.85590869140625,-0.040032800287008286,0.008127647452056408,-0.0071670785546302795
1783693578117870600,3.86587060546875,-0.03549135848879814,0.014344537630677223,0.00019916635937988758
1783693578127833300,3.875833251953125,-0.026891209185123444,0.015877453610301018,0.00544372946023941
1783693578137796400,3.88579638671875,-0.026179905980825424,0.0141474399715662,0.005975580774247646
1783693578147758600,3.895758544921875,-0.02001788467168808,0.011754323728382587,0.0030815235804766417
1783693578157721600,3.9057216796875,-0.017517991364002228,0.00599340396001935,0.002882774919271469
1783693578167683300,3.915683349609375,-0.013613798655569553,-0.0013958027120679617,0.004408766515552998
1783693578177646300,3.925646240234375,-0.010505221784114838,-0.003943669609725475,0.010658316314220428
1783693578187609300,3.935609375,-0.009630106389522552,-0.004861927591264248,0.01927071250975132
1783693578197571600,3.945571533203125,-0.008761415258049965,0.0004942403174936771,0.029226340353488922
1783693578207534600,3.95553466796875,-0.008203216828405857,0.011053141206502914,0.037302643060684204
1783693578217496300,3.965496337890625,-0.009898662567138672,0.018597370013594627,0.04221285134553909
1783693578227459300,3.975459228515625,-0.012607896700501442,0.01855928637087345,0.03990362212061882
1783693578237422600,3.985422607421875,-0.013058205135166645,0.013061437755823135,0.03268253058195114
1783693578247384600,3.995384521484375,-0.013264333829283714,0.0045422520488500595,0.021456774324178696
1783693578257347300,4.005347412109375,-0.007268858142197132,-0.0023585702292621136,0.008331096731126308
1783693578267309300,4.015309326171875,-0.003417394822463393,-0.0033183731138706207,-0.0008970227790996432
1783693578277272600,4.0252724609375,-0.0012593766441568732,0.0027589648962020874,-0.007642227225005627
1783693578287234600,4.035234619140625,0.002447210717946291,0.007370228413492441,-0.018309785053133965
1783693578297197600,4.045197509765625,0.005772492382675409,0.005845040548592806,-0.028640935197472572
1783693578307160300,4.055160400390625,0.00528140552341938,0.006842128001153469,-0.032462041825056076
1783693578317122600,4.06512255859375,0.005012751556932926,0.010555111803114414,-0.036789894104003906
1783693578327085600,4.07508544921875,-0.0005162371089681983,0.009413947351276875,-0.03331287205219269
1783693578337047600,4.085047607421875,-0.0012491254601627588,0.008460813201963902,-0.02539290487766266
1783693578347010300,4.09501025390625,-0.004497915506362915,0.010397464968264103,-0.013427055440843105
1783693578356973300,4.104973388671875,-0.004249826073646545,0.003642080584540963,-0.004006221890449524
1783693578366935600,4.114935546875,0.002020586282014847,-0.003174812765792012,0.008540461771190166
1783693578376898600,4.124898681640625,0.0073248897679150105,-0.0006495756097137928,0.0238328967243433
1783693578386860300,4.1348603515625,0.00823648925870657,0.004743858240544796,0.03075098991394043
1783693578396823300,4.1448232421875,0.0060358066111803055,0.0019610701128840446,0.033102281391620636
1783693578406786600,4.15478662109375,0.0047276620753109455,-0.000961748999543488,0.029252681881189346
1783693578416748800,4.164748779296875,0.0024614117573946714,0.0008396523189730942,0.026104316115379333
1783693578426711800,4.1747119140625,-0.0009383796714246273,-0.0023273788392543793,0.020275454968214035
1783693578436673500,4.184673583984375,-0.004556505009531975,-0.005750879179686308,0.015470905229449272
1783693578446636800,4.19463671875,-0.006039086729288101,-0.006125319749116898,0.012721724808216095
1783693578456598800,4.204598876953125,-0.004283838905394077,-0.0037396945990622044,0.01185009814798832
1783693578466561800,4.214561767578125,-0.004982918966561556,-0.004165267571806908,0.01218539010733366
1783693578476524800,4.22452490234375,-0.0021996800787746906,-0.006894190330058336,0.010281961411237717
1783693578486486800,4.23448681640625,0.0013188885059207678,-0.005936517380177975,0.01023801974952221
1783693578496449800,4.24444970703125,0.0018491509836167097,-0.0007361401803791523,0.013562159612774849
1783693578506411800,4.254411865234375,0.0038752839900553226,-0.0004312081728130579,0.00881454162299633
1783693578516374800,4.264374755859375,0.003500252263620496,-0.004192128777503967,0.005005106795579195
1783693578526337500,4.274337646484375,0.003852055873721838,0.0001581448595970869,0.006665587425231934
1783693578536299800,4.2842998046875,0.004619520157575607,-0.0023779880721122026,0.005046869162470102
1783693578546262800,4.2942626953125,0.008561531081795692,-0.005059258081018925,0.0004060444189235568
1783693578556224800,4.304224853515625,0.01254501473158598,-0.007388208992779255,-0.010660230182111263
1783693578566187500,4.3141875,0.013277917169034481,-0.007381284609436989,-0.020872918888926506
1783693578576150500,4.324150634765625,0.011668121442198753,-0.007325064856559038,-0.03377696871757507
1783693578586112800,4.33411279296875,0.0093309311196208,-0.0034104841761291027,-0.04118428751826286
1783693578596075800,4.34407568359375,0.006648758426308632,0.0013933283044025302,-0.046104319393634796
1783693578606037500,4.35403759765625,0.004967771470546722,0.006184887606650591,-0.05821610987186432
1783693578616000800,4.364000732421875,0.0019242384005337954,0.02152121625840664,-0.06961341202259064
1783693578625962800,4.373962646484375,0.0013665726874023676,0.024858158081769943,-0.08420513570308685
1783693578635925800,4.38392578125,0.0036637114826589823,0.0027334170881658792,-0.09498599171638489
1783693578645888800,4.393888671875,0.005698100663721561,-0.006205483339726925,-0.0873831957578659
1783693578655850800,4.403850830078125,0.004509486258029938,-0.0014008673606440425,-0.07140029221773148
1783693578665813800,4.413813720703125,0.002662850543856621,0.003003468504175544,-0.05288572981953621
1783693578675775700,4.423775634765625,0.0029660670552402735,0.0015744068659842014,-0.03549831733107567
1783693578685738800,4.43373876953125,0.004122145473957062,-0.0009516013087704778,-0.020332681015133858
1783693578695701500,4.443701416015625,0.0016208007000386715,-0.00467176828533411,-0.003208131529390812
1783693578705663700,4.453663818359375,0.002169145504012704,-0.005925850942730904,0.008489803411066532
1783693578715626800,4.463626708984375,0.0002099753764923662,-0.012790672481060028,0.0197132620960474
1783693578725588700,4.473588623046875,0.0006488643120974302,-0.02170320600271225,0.03199203312397003
1783693578735551500,4.483551513671875,0.001989551354199648,-0.019620303064584732,0.051048509776592255
1783693578745513700,4.493513671875,0.0013724970631301403,-0.010709898546338081,0.0624588206410408
1783693578755476700,4.503476806640625,-0.002623465610668063,-0.002979584503918886,0.0652145966887474
1783693578765439700,4.513439697265625,-0.007559901103377342,-0.0005720870103687048,0.0582251250743866
1783693578775401700,4.523401611328125,-0.005765450187027454,-0.0006090934621170163,0.03999844193458557
1783693578785364700,4.53336474609375,-0.002623718697577715,-0.0027902224101126194,0.017035070806741714
1783693578795326700,4.54332666015625,0.0008679114980623126,-0.00951340701431036,-0.005587124265730381
1783693578805289700,4.553289794921875,0.0061143385246396065,-0.02098417468369007,-0.022358382120728493
1783693578815252700,4.563252685546875,0.009534027427434921,-0.01935109868645668,-0.026902925223112106
1783693578825214700,4.573214599609375,0.01478950958698988,-0.009135212749242783,-0.025514619424939156
1783693578835177700,4.583177734375,0.01711459830403328,-0.0016341625014320016,-0.025837760418653488
1783693578845139700,4.5931396484375,0.01801208406686783,0.0026061225216835737,-0.025930970907211304
1783693578855102700,4.603102783203125,0.011001369915902615,0.0037984242662787437,-0.029506215825676918
1783693578865064700,4.613064697265625,0.006334979552775621,0.007512468844652176,-0.036514587700366974
1783693578875027700,4.62302783203125,0.0035365750081837177,0.004437309689819813,-0.042747657746076584
1783693578884990700,4.63299072265625,0.005556316580623388,-0.002345229033380747,-0.04392291232943535
1783693578894952700,4.64295263671875,0.006635131314396858,-0.0050195567309856415,-0.03700355440378189
1783693578904915700,4.652915771484375,0.010424275882542133,-0.0029492154717445374,-0.024714399129152298
1783693578914877700,4.662877685546875,0.011266426183283329,0.003180587198585272,-0.009731405414640903
1783693578924840700,4.6728408203125,0.008143870159983635,0.011663819663226604,0.00775331212207675
1783693578934803700,4.6828037109375,0.006878959480673075,0.021486610174179077,0.012782810255885124
1783693578944765700,4.692765625,-0.0007659107213839889,0.0224717129021883,0.011568408459424973
1783693578954728700,4.702728759765625,-0.0021399527322500944,0.012259280309081078,0.0050156014040112495
1783693578964690700,4.712690673828125,-0.002992963185533881,0.0021286155097186565,0.002225141506642103
1783693578974653700,4.72265380859375,-0.0029487868305295706,-0.0028413571417331696,-0.0013163984986022115
1783693578984616700,4.73261669921875,-0.0002693803980946541,-0.00457614054903388,-0.00016857602167874575
1783693578994578700,4.74257861328125,0.006831880193203688,0.0021214387379586697,0.0026002631057053804
1783693579004541700,4.752541748046875,0.010547522455453873,0.002856471110135317,0.004766211844980717
1783693579014503700,4.762503662109375,0.014057617634534836,0.0013570630690082908,-0.0002225438365712762
1783693579024466700,4.772466796875,0.010666615329682827,-0.0016656247898936272,-0.006896158680319786
1783693579034428700,4.7824287109375,0.009537989273667336,-0.0078017497435212135,-0.005308220162987709
1783693579044391700,4.7923916015625,0.009522810578346252,-0.00888858549296856,-0.004856281913816929
1783693579054354700,4.802354736328125,0.003496821504086256,-0.004355398938059807,0.0005923165590502322
1783693579064316700,4.812316650390625,-0.001798874232918024,0.00546580646187067,0.016364356502890587
1783693579074279700,4.82227978515625,-0.0067180306650698185,0.013034528121352196,0.026656871661543846
1783693579084241700,4.83224169921875,-0.012068587355315685,0.015035627409815788,0.029969578608870506
1783693579094204700,4.84220458984375,-0.012336982414126396,0.016441024839878082,0.02616947516798973
1783693579104167700,4.852167724609375,-0.011821925640106201,0.013083577156066895,0.015659576281905174
1783693579114129700,4.862129638671875,-0.006623917259275913,0.005895922891795635,-0.0038191690109670162
1783693579124093000,4.872093017578125,0.0016872759442776442,0.0009738687658682466,-0.019282281398773193
1783693579134054700,4.8820546875,0.009151213802397251,-0.003193443641066551,-0.02820531092584133
1783693579144017700,4.892017578125,0.016053861007094383,0.0004518915666267276,-0.03233880177140236
1783693579153980000,4.90197998046875,0.02117815427482128,0.003913199529051781,-0.03447188436985016
1783693579163943000,4.91194287109375,0.022038619965314865,0.006505254190415144,-0.037038639187812805
1783693579173905700,4.92190576171875,0.017170511186122894,0.00902539398521185,-0.03950882330536842
1783693579183867600,4.93186767578125,0.012508646585047245,0.005431991070508957,-0.04201086238026619
1783693579193830700,4.94183056640625,0.009727119468152523,-0.0031356317922472954,-0.04362305998802185
1783693579203793000,4.95179296875,0.005520390346646309,-0.003956418018788099,-0.04203661531209946
1783693579213755600,4.961755615234375,0.0039201099425554276,-0.002067160326987505,-0.038378506898880005
1783693579223718700,4.97171875,0.003076953114941716,0.00048468064051121473,-0.02873147279024124
1783693579233680600,4.9816806640625,0.0022133677266538143,0.005536139011383057,-0.018247542902827263
1783693579243643600,4.9916435546875,0.002437339397147298,0.005681814160197973,-0.007567469496279955
1783693579253605600,5.001605712890625,0.00246102805249393,0.0031419459264725447,0.0004886023816652596
1783693579263568600,5.011568603515625,0.0017518282402306795,0.0016039704205468297,0.004690804053097963
1783693579273531600,5.02153173828125,-0.0023973698262125254,-0.0002822935348376632,0.005533330608159304
1783693579283493600,5.03149365234375,-0.0093050766736269,-0.004258393310010433,0.003579102922230959
1783693579293457000,5.041456787109375,-0.014430725947022438,-0.009954116307199001,0.0015574090648442507
1783693579303418600,5.051418701171875,-0.014130055904388428,-0.005561232101172209,0.00011530728079378605
1783693579313381600,5.061381591796875,-0.011101658456027508,-0.004177976865321398,0.0011082323035225272
1783693579323344000,5.07134375,-0.005142036359757185,-0.008739705197513103,-0.005237015429884195
1783693579333307000,5.081306884765625,0.004486528225243092,-0.011821330524981022,-0.010285506024956703
1783693579343270000,5.091269775390625,0.008288457058370113,-0.010956335812807083,-0.012925764545798302
1783693579353231600,5.101231689453125,0.012751572765409946,-0.015525229275226593,-0.014316059648990631
1783693579363194600,5.111194580078125,0.01580781675875187,-0.01587543450295925,-0.007956163957715034
1783693579373156900,5.121156982421875,0.01635988987982273,-0.00985216349363327,0.006012115627527237
1783693579383120000,5.131119873046875,0.015620063990354538,-0.012303071096539497,0.012111552990972996
1783693579393082600,5.14108251953125,0.014950110577046871,-0.017498591914772987,0.01673455722630024
1783693579403044000,5.151044189453125,0.010634724982082844,-0.014943024143576622,0.018255755305290222
1783693579413007400,5.16100732421875,0.004908798262476921,-0.011904111132025719,0.020411493256688118
1783693579422969000,5.170968994140625,0.001801688107661903,-0.008182343095541,0.01419647503644228
1783693579432932000,5.18093212890625,0.004773789085447788,-0.01380612887442112,0.010741813108325005
1783693579442894300,5.190894287109375,0.01065165176987648,-0.018307670950889587,0.0040066782385110855
1783693579452857300,5.200857421875,0.017433924600481987,-0.018173180520534515,0.0040618060156702995
1783693579462820400,5.2108203125,0.02906208485364914,-0.014992566779255867,0.0006923744804225862
1783693579472782000,5.220781982421875,0.03635287657380104,-0.01616678759455681,-0.0046521383337676525
1783693579482745000,5.2307451171875,0.03875531256198883,-0.015795541927218437,-0.018628407269716263
1783693579492707300,5.240707275390625,0.03379332646727562,-0.006664883345365524,-0.03330935910344124
1783693579502670300,5.25067041015625,0.026963116601109505,0.004702553618699312,-0.04569279029965401
1783693579512633300,5.26063330078125,0.022395307198166847,0.011910391971468925,-0.053010568022727966
1783693579522595000,5.270594970703125,0.01426174771040678,0.009466676041483879,-0.05526866018772125
1783693579532558000,5.28055810546875,0.009677025489509106,0.005460496060550213,-0.05013979598879814
1783693579542520300,5.290520263671875,0.008926279842853546,0.00511561706662178,-0.044554613530635834
1783693579552483300,5.3004833984375,0.006987499073147774,0.0025057189632207155,-0.03826102986931801
1783693579562446000,5.310446044921875,0.006438888143748045,0.0011930469190701842,-0.02774101495742798
1783693579572408300,5.320408203125,0.00686869490891695,0.004351799376308918,-0.014238502830266953
1783693579582371300,5.330371337890625,0.008906013332307339,0.010034185834228992,-0.0020015439949929714
1783693579592333300,5.340333251953125,0.013279411941766739,0.0054037547670304775,0.004177996423095465
1783693579602296000,5.350296142578125,0.020850777626037598,-0.001297291019000113,0.009868639521300793
1783693579612258300,5.36025830078125,0.02410588413476944,-0.00514020724222064,0.019111545756459236
1783693579622221300,5.37022119140625,0.02838052436709404,-0.006541030015796423,0.0235236044973135
1783693579632184300,5.380184326171875,0.028905436396598816,-0.009721684269607067,0.02530055120587349
1783693579642146000,5.39014599609375,0.028380261734128,-0.004244627431035042,0.02649897336959839
1783693579652109000,5.400109130859375,0.024126406759023666,0.0014806475955992937,0.02166506089270115
1783693579662071300,5.4100712890625,0.019058944657444954,0.005571262910962105,0.016058575361967087
1783693579672034300,5.420034423828125,0.011972722597420216,0.002620281185954809,0.0051631019450724125
1783693579681997300,5.429997314453125,0.008781456388533115,-0.0027973875403404236,-0.007581987418234348
1783693579691959000,5.439958984375,0.009031261317431927,-0.010248646140098572,-0.019760623574256897
1783693579701922300,5.44992236328125,0.01272426638752222,-0.019888222217559814,-0.02501450665295124
1783693579711884300,5.45988427734375,0.013832245953381062,-0.015467911027371883,-0.022470815107226372
1783693579721847300,5.469847412109375,0.01454117987304926,-0.003696206957101822,-0.018261954188346863
1783693579731809000,5.47980908203125,0.016117334365844727,-0.0018229945562779903,-0.014520539902150631
1783693579741772300,5.489772216796875,0.01582678221166134,0.0020359258633106947,-0.008556390181183815
1783693579751735300,5.4997353515625,0.010830512270331383,-0.0007542402017861605,-0.005993599537760019
1783693579761697300,5.509697265625,0.006250408478081226,-0.0028133965097367764,-0.00536456098780036
1783693579771660300,5.519660400390625,0.005668520461767912,-0.009455575607717037,-0.003917409107089043
1783693579781622300,5.529622314453125,0.01057885680347681,-0.019331641495227814,0.0016230312176048756
1783693579791585300,5.539585205078125,0.015786007046699524,-0.019689325243234634,0.014512907713651657
1783693579801548300,5.54954833984375,0.01930058002471924,-0.016442932188510895,0.02638101950287819
1783693579811510300,5.55951025390625,0.015030642971396446,-0.013482547365128994,0.03550116345286369
1783693579821473000,5.56947314453125,0.009663041681051254,-0.01511719636619091,0.03612540662288666
1783693579831435300,5.579435302734375,0.003206284251064062,-0.012327293865382671,0.03538117930293083
1783693579841398300,5.589398193359375,-0.0012611683923751116,-0.005841165315359831,0.027777589857578278
1783693579851360300,5.5993603515625,-0.0038932431489229202,-0.007381553295999765,0.018756357952952385
1783693579861323000,5.609322998046875,-0.00704988744109869,-0.008900620974600315,-0.0005859155207872391
1783693579871286300,5.619286376953125,-0.00011250192619627342,-0.015568633563816547,-0.012415311299264431
1783693579881248300,5.629248291015625,0.006565374322235584,-0.023814046755433083,-0.017832448706030846
1783693579891211300,5.639211181640625,0.01304271537810564,-0.0262758731842041,-0.014523736201226711
1783693579901173000,5.649173095703125,0.013077336363494396,-0.027384545654058456,-0.012242738157510757
1783693579911136300,5.65913623046875,0.01622486114501953,-0.027398891746997833,-0.005427046678960323
1783693579921099300,5.669099365234375,0.01522777508944273,-0.024985801428556442,0.003255657386034727
1783693579931061200,5.679061279296875,0.011923875659704208,-0.02126113511621952,0.009346384555101395
1783693579941024300,5.689024169921875,0.009397334419190884,-0.019839804619550705,0.013634074479341507
1783693579950986200,5.698986328125,0.007115403190255165,-0.019483987241983414,0.022211672738194466
1783693579960949200,5.70894921875,0.007934059016406536,-0.021057646721601486,0.027015749365091324
1783693579970911200,5.7189111328125,0.008013005368411541,-0.024775411933660507,0.03108675591647625
1783693579980874200,5.728874267578125,0.010607190430164337,-0.024506166577339172,0.03965015336871147
1783693579990837000,5.7388369140625,0.010674549266695976,-0.023718904703855515,0.04423150792717934
1783693580000799200,5.74879931640625,0.010406634770333767,-0.0270656980574131,0.04633700102567673
1783693580010762200,5.75876220703125,0.012624138034880161,-0.029683372005820274,0.04338567703962326
1783693580020724200,5.76872412109375,0.011616397649049759,-0.02916698530316353,0.04477238655090332
1783693580030687200,5.778687255859375,0.01421696413308382,-0.01948857679963112,0.041602250188589096
1783693580040650200,5.788650146484375,0.011902145110070705,-0.010724913328886032,0.035341158509254456
1783693580050612200,5.7986123046875,0.010197889059782028,-0.006890664342790842,0.024078361690044403
1783693580060575200,5.8085751953125,0.005767187103629112,-0.008345281705260277,0.01084857527166605
1783693580070537200,5.818537109375,0.00023602909641340375,-0.007524264510720968,-0.0057700518518686295
1783693580080500200,5.828500244140625,-0.005466863978654146,-0.016366226598620415,-0.02274264395236969
1783693580090462200,5.838462158203125,-0.007084792945533991,-0.026679586619138718,-0.02942962385714054
1783693580100425200,5.84842529296875,-0.01046354603022337,-0.024518432095646858,-0.024816229939460754
1783693580110388200,5.85838818359375,-0.00790476705878973,-0.022241150960326195,-0.014690636657178402
1783693580120350200,5.86835009765625,-0.010819063521921635,-0.0191380362957716,-0.0022986805997788906
1783693580130313200,5.878313232421875,-0.005440408363938332,-0.013474845327436924,0.003042465541511774
1783693580140275200,5.888275146484375,-0.006570653989911079,-0.00334364827722311,0.015317240729928017
1783693580150238200,5.89823828125,-0.0032533679623156786,0.0014042817056179047,0.02216685377061367
1783693580160201200,5.908201171875,-0.002229915000498295,-0.006530607119202614,0.02041502483189106
1783693580170163200,5.9181630859375,0.006713278591632843,-0.015771526843309402,0.019044898450374603
1783693580180126200,5.928126220703125,0.015739798545837402,-0.018058916553854942,0.023399166762828827
1783693580190088200,5.938088134765625,0.01841852068901062,-0.01826423592865467,0.02649359218776226
1783693580200051200,5.94805126953125,0.02057940885424614,-0.018365703523159027,0.02673008106648922
1783693580210014200,5.95801416015625,0.021950431168079376,-0.01083532627671957,0.026060275733470917
1783693580219976200,5.96797607421875,0.021322723478078842,-0.006136977579444647,0.023832274600863457
1783693580229939200,5.977939208984375,0.017186706885695457,0.0012500779703259468,0.017950596287846565
1783693580239901200,5.987901123046875,0.011576224118471146,0.007982282899320126,0.01659371517598629
1783693580249864200,5.9978642578125,0.006089657079428434,0.00639314902946353,0.012816148810088634
1783693580259826200,6.007826171875,0.005056883208453655,-0.00043706013821065426,0.0077673280611634254
1783693580269789200,6.0177890625,0.0022470273543149233,0.0028388872742652893,0.0043015494011342525
1783693580279752200,6.027752197265625,-0.002181809628382325,0.012648374773561954,-0.00043115427251905203
1783693580289714200,6.037714111328125,-0.01180240698158741,0.012856650166213512,-0.009438990615308285
1783693580299677200,6.04767724609375,-0.016566535457968712,0.00814871396869421,-0.016454821452498436
1783693580309639200,6.05763916015625,-0.024674192070961,0.011431609280407429,-0.017776507884263992
1783693580319602200,6.067602294921875,-0.02528911456465721,0.01498453225940466,-0.013464584946632385
1783693580329565200,6.077565185546875,-0.019801119342446327,0.008872280828654766,-0.009815709665417671
1783693580339527200,6.087527099609375,-0.013872126117348671,0.008640319108963013,0.004163755103945732
1783693580349490200,6.097490234375,-0.011767072603106499,0.018185872584581375,0.01587405800819397
1783693580359452200,6.1074521484375,-0.011135105043649673,0.01798347383737564,0.021317027509212494
1783693580369415200,6.117415283203125,-0.011949213221669197,0.01260208897292614,0.024308182299137115
1783693580379377200,6.127377197265625,-0.011728969402611256,0.012883318588137627,0.028805194422602654
1783693580389340200,6.137340087890625,-0.013984037563204765,0.018381625413894653,0.024290811270475388
1783693580399303200,6.14730322265625,-0.010297955945134163,0.01987539231777191,0.01606776937842369
1783693580409265200,6.15726513671875,-0.005400962196290493,0.0161938164383173,0.00754700368270278
1783693580419228200,6.167228271484375,0.0007887566462159157,0.011953797191381454,0.0017266650684177876
1783693580429190100,6.177190185546875,0.004234928172081709,0.0025360952131450176,-0.010005119256675243
1783693580439153200,6.187153076171875,0.007146828342229128,0.0006159560871310532,-0.011012859642505646
1783693580449116200,6.1971162109375,0.002851129975169897,0.011563974432647228,-0.005413375794887543
1783693580459078100,6.207078125,0.0017954527866095304,0.02087625116109848,-0.0006910586962476373
1783693580469041200,6.217041259765625,-0.002730719279497862,0.026460878551006317,0.005950243677943945
1783693580479003100,6.227003173828125,-0.004871102049946785,0.026610281318426132,0.011900012381374836
1783693580488966100,6.236966064453125,-0.008157293312251568,0.02206239104270935,0.006875860039144754
1783693580498928000,6.24692822265625,-0.003787844907492399,0.015151223167777061,0.0013237015809863806
1783693580508891100,6.25689111328125,-0.0029133534990251064,0.0115655567497015,-0.006691466085612774
1783693580518854100,6.266854248046875,-0.0020595439709722996,-0.0005976326065137982,-0.013429529964923859
1783693580528816000,6.276816162109375,0.0038376101292669773,-0.004966805223375559,-0.014026245102286339
1783693580538779100,6.286779052734375,0.004235752858221531,0.0016090719727799296,-0.0005368023412302136
1783693580548741000,6.2967412109375,0.005580772180110216,0.008784394711256027,0.01200900413095951
1783693580558704000,6.3067041015625,0.007882541976869106,0.004527597688138485,0.01874973066151142
1783693580568667100,6.316667236328125,0.0033471379429101944,0.010350565426051617,0.02777068316936493
1783693580578629400,6.32662939453125,-0.0031533718574792147,0.015464366413652897,0.026007935404777527
1783693580588592400,6.33659228515625,-0.011094137094914913,0.0057084388099610806,0.016353102400898933
1783693580598554000,6.34655419921875,-0.013255824334919453,-0.0022440264001488686,0.009883219376206398
1783693580608517000,6.35651708984375,-0.01694105565547943,-0.0030011171475052834,0.0009341600234620273
1783693580618479400,6.366479248046875,-0.018628699705004692,-0.004595018923282623,-0.0019641583785414696
1783693580628442400,6.3764423828125,-0.021273035556077957,0.0011928012827411294,0.0028625254053622484
1783693580638405000,6.386405029296875,-0.021696744486689568,0.006084229331463575,0.005513968877494335
1783693580648367000,6.3963671875,-0.02114507369697094,0.003057301277294755,0.0055830334313213825
1783693580658330000,6.406330078125,-0.02000737190246582,0.0022013611160218716,0.0029608849436044693
1783693580668292400,6.416292236328125,-0.022446244955062866,0.001283054705709219,-0.0018840574193745852
1783693580678255000,6.426255126953125,-0.019591601565480232,-0.005983646493405104,-0.003186343237757683
1783693580688218000,6.436218017578125,-0.016559995710849762,-0.0026229829527437687,0.000956560077611357
1783693580698180000,6.44618017578125,-0.018014347180724144,0.004887397866696119,0.006771838292479515
1783693580708143400,6.456143310546875,-0.013493216596543789,0.003307867795228958,0.007713966071605682
1783693580718105000,6.46610498046875,-0.010672662407159805,0.007718328852206469,0.009451145306229591
1783693580728068000,6.476068115234375,-0.006921697407960892,0.008114395663142204,0.010987583547830582
1783693580738031000,6.486031005859375,-0.0037831622175872326,0.0021513120736926794,0.0028356467373669147
1783693580747993300,6.495993408203125,-0.0030443097930401564,0.00018189079128205776,0.00037207524292171
1783693580757956400,6.505956298828125,-0.00047675619134679437,0.0011182582238689065,0.00034304679138585925
1783693580767918000,6.51591796875,0.0015327807050198317,-0.0036341804079711437,-0.00008868123404681683
1783693580777881000,6.525881103515625,0.0025522387586534023,-0.007364203687757254,-0.00039920583367347717
1783693580787843300,6.53584326171875,0.0038790577091276646,-0.007878744974732399,0.0026467195712029934
1783693580797806300,6.545806396484375,0.00431768037378788,-0.008734418079257011,0.008375711739063263
1783693580807769000,6.55576904296875,0.004182481672614813,-0.00683479942381382,0.01457407046109438
1783693580817731000,6.56573095703125,-0.0026495917700231075,-0.0034621721133589745,0.021512135863304138
1783693580827694000,6.575694091796875,-0.009419314563274384,0.0024320115335285664,0.02786046452820301
1783693580837656300,6.58565625,-0.014828193932771683,0.004133238922804594,0.0251456368714571
1783693580847619000,6.595619140625,-0.016289157792925835,0.005902103614062071,0.01952775940299034
1783693580857582000,6.60558203125,-0.014565293677151203,0.01105878222733736,0.00910680927336216
1783693580867544000,6.6155439453125,-0.012055763974785805,0.014489714056253433,-0.008342951536178589
1783693580877507300,6.62550732421875,-0.003912883345037699,0.007780945394188166,-0.027581892907619476
1783693580887469000,6.635468994140625,0.004586347844451666,0.0036455588415265083,-0.042053163051605225
1783693580897432000,6.64543212890625,0.011131598614156246,0.006989423651248217,-0.05107249319553375
1783693580907394000,6.65539404296875,0.010766668245196342,0.010210542008280754,-0.05902056023478508
1783693580917357300,6.665357421875,0.008449451997876167,0.015078268013894558,-0.062427543103694916
1783693580927320300,6.6753203125,0.0034261257387697697,0.01180203165858984,-0.060417428612709045
1783693580937282000,6.685281982421875,0.00348072056658566,0.006750015076249838,-0.052346449345350266
1783693580947245000,6.6952451171875,0.0006038247374817729,0.005616316571831703,-0.033796634525060654
1783693580957207300,6.705207275390625,-0.00545539939776063,0.00977484229952097,-0.011550718918442726
1783693580967170300,6.71517041015625,-0.009430446662008762,0.016676146537065506,0.006808856502175331
1783693580977133300,6.72513330078125,-0.0123652508482337,0.015551760792732239,0.02580837905406952
1783693580987095000,6.735094970703125,-0.0115337073802948,0.016737930476665497,0.03561051934957504
1783693580997058000,6.74505810546875,-0.00922368187457323,0.017070559784770012,0.036877650767564774
1783693581007020300,6.755020263671875,-0.0024191164411604404,0.009155935607850552,0.03341647982597351
1783693581016983300,6.7649833984375,0.006960803177207708,0.0007246339228004217,0.025858161970973015
1783693581026945000,6.774945068359375,0.014831840060651302,0.0005634756525978446,0.02118711546063423
1783693581036908000,6.784907958984375,0.021798670291900635,0.0015781399561092257,0.014810708351433277
1783693581046871300,6.794871337890625,0.026254884898662567,0.0031795469112694263,0.007777418941259384
1783693581056833300,6.804833251953125,0.024295596405863762,0.005014198832213879,0.0002910066395998001
1783693581066796000,6.814796142578125,0.02313832938671112,0.0040167830884456635,-0.004998299293220043
1783693581076758300,6.82475830078125,0.01821041665971279,-0.0027377926744520664,-0.010930224321782589
1783693581086721300,6.83472119140625,0.01507989689707756,-0.00500225555151701,-0.011476457118988037
1783693581096684300,6.844684326171875,0.011803676374256611,0.0014881343813613057,-0.0028313035145401955
1783693581106646000,6.85464599609375,0.005440676584839821,0.008781187236309052,0.007924256846308708
1783693581116609000,6.864609130859375,0.002447283361107111,0.011926380917429924,0.017209367826581
1783693581126571300,6.8745712890625,-0.0018119942396879196,0.011143743991851807,0.02159804105758667
1783693581136534300,6.8845341796875,-0.0026114750653505325,0.0059018442407250404,0.023240944370627403
1783693581146497300,6.894497314453125,-0.005143770948052406,0.0023896649945527315,0.029547950252890587
1783693581156459000,6.904458984375,-0.0054244683124125,0.0019915224984288216,0.03298289701342583
1783693581166422000,6.914422119140625,-0.001826238352805376,-0.005856298841536045,0.02812829054892063
1783693581176384300,6.92438427734375,0.0027272345032542944,-0.011400467716157436,0.02252047322690487
1783693581186347300,6.93434716796875,0.00570697383955121,-0.007031834684312344,0.014881154522299767
1783693581196309000,6.94430908203125,0.010034611448645592,-0.000257018837146461,0.016060935333371162
1783693581206272000,6.95427197265625,0.011200263164937496,0.00576357776299119,0.014996212907135487
1783693581216235300,6.9642353515625,0.013480993919074535,0.007511410396546125,0.012177523225545883
1783693581226197200,6.974197265625,0.01632801815867424,0.008610494434833527,0.010056955739855766
1783693581236160300,6.98416015625,0.01367417722940445,0.009797997772693634,0.0009726473945192993
1783693581246122200,6.994122314453125,0.012206165120005608,0.007499449420720339,-0.008027100935578346
1783693581256085200,7.004085205078125,0.013957194052636623,0.002504424424842,-0.01676493138074875
1783693581266047200,7.014047119140625,0.021059909835457802,-0.007188453804701567,-0.025795307010412216
1783693581276010200,7.02401025390625,0.027450164780020714,-0.006244363263249397,-0.022172078490257263
1783693581285973000,7.033972900390625,0.029126767069101334,0.0008766957325860858,-0.008508383296430111
1783693581295935200,7.043935302734375,0.024553321301937103,0.014355752617120743,0.0005825835396535695
1783693581305898200,7.053898193359375,0.01723231002688408,0.012904565781354904,0.014084622263908386
1783693581315860200,7.063860107421875,0.0081567894667387,0.006826167460530996,0.01844927668571472
1783693581325823000,7.073822998046875,0.00487973727285862,-0.003987313248217106,0.019801296293735504
1783693581335786000,7.083785888671875,0.001936944667249918,-0.005390799138695002,0.024080196395516396
1783693581345748200,7.093748291015625,0.0025864241179078817,-0.003316692542284727,0.028905173763632774
1783693581355711200,7.103711181640625,0.005856253672391176,-0.012246537953615189,0.030956873670220375
1783693581365673000,7.1136728515625,0.010299724526703358,-0.01732732728123665,0.02847455069422722
1783693581375636200,7.12363623046875,0.01738586463034153,-0.0068656327202916145,0.024827349931001663
1783693581385598200,7.13359814453125,0.011982303112745285,-0.0016442917985841632,0.022883340716362
1783693581395561200,7.143561279296875,0.008241627365350723,-0.0013715842505916953,0.020198075100779533
1783693581405524700,7.153524658203125,0.005750649608671665,-0.007113859988749027,0.017537390813231468
1783693581415486700,7.16348681640625,-0.00011203293252037838,-0.0027481396682560444,0.017455898225307465
1783693581425449700,7.17344970703125,-0.008111415430903435,0.0027150758542120457,0.01375910546630621
1783693581435411700,7.18341162109375,-0.013969037681818008,0.007049104198813438,0.007975785061717033
1783693581445374700,7.193374755859375,-0.01578017696738243,0.0034793775994330645,-0.002447966020554304
1783693581455337700,7.203337646484375,-0.016761019825935364,0.001478278310969472,-0.006297032814472914
1783693581465300000,7.213300048828125,-0.017543058842420578,0.007883467711508274,-0.007910818792879581
1783693581475263000,7.223262939453125,-0.011764531955122948,0.0037758080288767815,-0.009809919632971287
1783693581485224700,7.233224609375,-0.010008222423493862,0.004019494168460369,-0.002043135231360793
1783693581495187700,7.243187744140625,-0.008016977459192276,0.007009691558778286,0.001467177295126021
1783693581505150000,7.25314990234375,-0.006256459280848503,0.0037187840789556503,0.0018575754947960377
1783693581515113000,7.263113037109375,-0.004840989131480455,0.0018732135649770498,0.0022381413727998734
1783693581525076000,7.273075927734375,-0.007236255332827568,0.004601385910063982,0.007484757341444492
1783693581535037700,7.28303759765625,-0.00639256602153182,0.00974714569747448,0.024092495441436768
1783693581545000700,7.293000732421875,-0.009019020013511181,0.020209647715091705,0.0364907830953598
1783693581554963000,7.302962890625,-0.005855984054505825,0.016375228762626648,0.04470184072852135
1783693581564926000,7.312926025390625,-0.005118080880492926,0.008078144863247871,0.05169738084077835
1783693581574888700,7.322888671875,-0.002062635961920023,0.009609461762011051,0.05474989861249924
1783693581584850700,7.3328505859375,-0.005510332062840462,0.006717783864587545,0.047979678958654404
1783693581594813700,7.342813720703125,-0.0005035893991589546,-0.002751618158072233,0.034922197461128235
1783693581604776000,7.35277587890625,0.0022530420683324337,-0.005962283816188574,0.025074806064367294
1783693581614738700,7.36273876953125,0.004832846578210592,0.0023441158700734377,0.02553233876824379
1783693581624700700,7.37270068359375,0.004290321841835976,0.0038168092723935843,0.024599729105830193
1783693581634664000,7.382663818359375,0.004997124895453453,0.0033534192480146885,0.025449277833104134
1783693581644627000,7.392626953125,0.002899008337408304,0.007958582602441311,0.02950141578912735
1783693581654588700,7.402588623046875,-0.001978038577362895,0.008725306950509548,0.02903083525598049
1783693581664551700,7.4125517578125,-0.0017704032361507416,0.004640031605958939,0.02348308637738228
1783693581674514000,7.422513916015625,-0.000420713156927377,0.00365652609616518,0.019351458176970482
1783693581684477000,7.432476806640625,0.0021109203808009624,0.002338509541004896,0.018145380541682243
1783693581694438700,7.442438720703125,0.003999101463705301,-0.0036573312245309353,0.01595546491444111
1783693581704401700,7.452401611328125,0.011373309418559074,-0.010607676580548286,0.009974239394068718
1783693581714364700,7.46236474609375,0.01574675366282463,-0.008536802604794502,0.009296998381614685
1783693581724327000,7.472326904296875,0.01641169749200344,0.0025251763872802258,0.010026113130152225
1783693581734290000,7.4822900390625,0.010949822142720222,0.00945898238569498,0.011253563687205315
1783693581744251600,7.492251708984375,0.004929837305098772,0.009996927343308926,0.00883846078068018
1783693581754214700,7.502214599609375,-0.0001639911497477442,0.0057441252283751965,-0.002480506431311369
1783693581764178000,7.512177978515625,-0.002032562391832471,0.002772359177470207,-0.013164250180125237
1783693581774140000,7.522139892578125,-0.0005601005395874381,-0.008390014991164207,-0.023983873426914215
1783693581784102700,7.5321025390625,0.003115451894700527,-0.013288664631545544,-0.029584314674139023
1783693581794064600,7.542064697265625,0.0041410350240767,-0.003656810149550438,-0.02631581760942936
1783693581804028000,7.55202783203125,0.005446178838610649,-0.0015207049436867237,-0.02033945731818676
1783693581813990000,7.561989990234375,0.0077620637603104115,-0.0012384098954498768,-0.016597716137766838
1783693581823953000,7.571952880859375,0.006187421269714832,0.001162457512691617,-0.009284645318984985
1783693581833915600,7.58191552734375,0.0000397801777580753,0.002861287910491228,-0.006758636794984341
1783693581843878000,7.5918779296875,-0.00707668112590909,-0.0053641172125935555,-0.004041710868477821
1783693581853841000,7.6018408203125,-0.009852226823568344,-0.009071237407624722,0.002034823875874281
1783693581863803000,7.611802978515625,-0.010444584302604198,-0.012071836739778519,0.012686630710959435
1783693581873765600,7.621765625,-0.01114472933113575,-0.008168973959982395,0.022023407742381096
1783693581883728600,7.631728759765625,-0.014805744402110577,-0.004553484730422497,0.029123729094862938
1783693581893691000,7.64169091796875,-0.01649152673780918,7.867347449064255e-7,0.03576165810227394
1783693581903654000,7.65165380859375,-0.016541652381420135,-0.003001132979989052,0.03224810212850571
1783693581913615600,7.66161572265625,-0.015591436065733433,-0.00982228759676218,0.0246860571205616
1783693581923578600,7.67157861328125,-0.009490160271525383,-0.008196184411644936,0.01896587200462818
1783693581933540900,7.681540771484375,-0.0036061720456928015,-0.005844613537192345,0.013049125671386719
1783693581943504000,7.69150390625,-0.0009711365564726293,-0.007798310369253159,0.0014650165103375912
1783693581953467000,7.701466796875,-0.00014475767966359854,-0.00519187469035387,-0.008177757263183594
1783693581963428600,7.7114287109375,-0.002216670662164688,-0.0027398793026804924,-0.01542743295431137
1783693581973392000,7.721391845703125,-0.008108913898468018,0.0026871103327721357,-0.019548941403627396
1783693581983353900,7.731353759765625,-0.010858628898859024,0.0017755102599039674,-0.02191329561173916
1783693581993316900,7.74131689453125,-0.013703150674700737,-0.0012168175308033824,-0.02576742134988308
1783693582003278800,7.75127880859375,-0.012246960774064064,-0.001820579171180725,-0.025929324328899384
1783693582013241900,7.761241943359375,-0.010782222263514996,0.0014202214078977704,-0.019375283271074295
1783693582023204900,7.771204833984375,-0.009589087218046188,0.0004988024011254311,-0.010024155490100384
1783693582033166800,7.781166748046875,-0.006174647714942694,-0.004496755078434944,-0.004702627193182707
1783693582043129600,7.791129638671875,-0.004107053857296705,-0.002197942230850458,-0.0015582628548145294
1783693582053091800,7.801091796875,-0.0038860116619616747,0.0029147942550480366,-0.004656318575143814
1783693582063054800,7.811054931640625,-0.004466671496629715,-0.0005592853995040059,-0.0037166066467761993
1783693582073017900,7.821017822265625,-0.005920757539570332,-0.005334066692739725,0.0008336702012456954
1783693582082979600,7.8309794921875,-0.003107303287833929,-0.005592407193034887,0.008743909187614918
1783693582092942600,7.840942626953125,-0.003898794762790203,-0.005608386360108852,0.01714564859867096
1783693582102904800,7.85090478515625,-0.003921958617866039,-0.005674645770341158,0.021524053066968918
1783693582112867800,7.860867919921875,-0.006003751419484615,-0.0015174514846876264,0.022090774029493332
1783693582122829800,7.870829833984375,-0.007894276641309261,0.008681874722242355,0.01884799264371395
1783693582132792800,7.880792724609375,-0.012382769025862217,0.009460316970944405,0.011215638369321823
1783693582142755800,7.890755859375,-0.012985889799892902,-0.0017132145585492253,-0.003158477135002613
1783693582152717800,7.9007177734375,-0.009530172683298588,-0.006340723484754562,-0.013794077560305595
1783693582162680800,7.910680908203125,-0.006542709656059742,-0.005954847205430269,-0.021823015064001083
1783693582172642800,7.920642822265625,-0.001958344131708145,-0.008191104047000408,-0.020980922505259514
1783693582182605800,7.930605712890625,-0.00007513893069699407,-0.00548557098954916,-0.014865743927657604
1783693582192567800,7.94056787109375,-3.777677193284035e-8,-0.0007403504569083452,-0.005228562746196985
1783693582202530800,7.95053076171875,-0.0021509232465177774,-0.001244229730218649,-0.005114677362143993
1783693582212493800,7.960493896484375,-0.004292637575417757,-0.003934288863092661,-0.004097349941730499
1783693582222455800,7.970455810546875,-0.006229891907423735,-0.002617371268570423,0.0006981647456996143
1783693582232418800,7.980418701171875,-0.009330344386398792,0.001219444558955729,0.008969943039119244
1783693582242380800,7.990380859375,-0.0090333828702569,0.003526244778186083,0.010959136299788952
1783693582252343800,8.00034375,-0.01049732230603695,-0.004055508878082037,0.01160708349198103
1783693582262306800,8.010306884765624,-0.0062554581090807915,-0.0028503979556262493,0.018147462978959084
1783693582272268800,8.020268798828125,-0.0024956073611974716,0.0038455878384411335,0.02643042616546154
1783693582282231800,8.030231689453124,0.003771492512896657,-0.0006322605768218637,0.024880634620785713
1783693582292193800,8.04019384765625,0.0071387928910553455,-0.00822306890040636,0.016058379784226418
1783693582302156800,8.05015673828125,0.008927118964493275,-0.007107192650437355,0.012391463853418827
1783693582312118800,8.060118896484376,0.007915650494396687,-0.00466800294816494,0.003868549596518278
1783693582322081800,8.070081787109375,0.00744751188904047,-0.01316775567829609,-0.011793442070484161
1783693582332044800,8.080044921875,0.008056310936808586,-0.014743546955287457,-0.021152323111891747
1783693582342006800,8.0900068359375,0.007762926630675793,-0.005712995305657387,-0.014421429485082626
1783693582351969800,8.0999697265625,0.005147170275449753,0.004197159316390753,0.00024406524607911706
1783693582361931800,8.109931884765626,0.001003844547085464,0.004869045224040747,0.007681821007281542
1783693582371894800,8.119894775390625,-0.0031671985052525997,0.004893013741821051,0.011856059543788433
1783693582381856800,8.129856689453124,-0.007341515738517046,0.010763976722955704,0.017004620283842087
1783693582391819800,8.13981982421875,-0.004928159061819315,0.003240281017497182,0.013290042988955975
1783693582401782800,8.14978271484375,0.0007743301102891564,-0.007165467832237482,0.004644444677978754
1783693582411744800,8.159744873046876,0.011507402174174786,-0.006164119113236666,0.006248999387025833
1783693582421707800,8.169707763671875,0.01990537717938423,-0.000018110382370650768,0.011504512280225754
1783693582431670000,8.179669921875,0.01989738643169403,0.003916177432984114,0.010384386405348778
1783693582441632800,8.1896328125,0.019459400326013565,0.010124269872903824,0.004455766640603542
1783693582451595800,8.199595703125,0.016867613419890404,0.011232411488890648,-0.002684434875845909
1783693582461557800,8.209557861328125,0.013326836749911308,0.00469009205698967,-0.016565736383199692
1783693582471521000,8.21952099609375,0.01050921157002449,-0.011471034958958626,-0.031199807301163673
1783693582481482800,8.229482666015626,0.009129343554377556,-0.022734103724360466,-0.038633253425359726
1783693582491445800,8.23944580078125,0.005522358231246471,-0.01703893207013607,-0.03358762711286545
1783693582501407700,8.24940771484375,0.000019481783965602517,0.001145675079897046,-0.017458999529480934
1783693582511371000,8.25937109375,-0.009468828327953815,0.018028518185019493,0.0016158900689333677
1783693582521334000,8.269333984375,-0.011640273034572601,0.024999381974339485,0.008064487017691135
1783693582531295700,8.279295654296876,-0.015408912673592567,0.01841871067881584,0.006970726884901524
1783693582541258800,8.2892587890625,-0.012922799214720726,0.005191007163375616,0.0062779211439192295
1783693582551221000,8.299220947265624,-0.00542493537068367,-0.007140493486076593,0.009173842146992683
1783693582561184000,8.30918408203125,0.003571552224457264,-0.013223894871771336,0.018338261172175407
1783693582571145700,8.319145751953124,0.009493091143667698,-0.012719492428004742,0.027184749022126198
1783693582581108700,8.329108642578126,0.015268656425178051,-0.010592767037451267,0.0349128320813179
1783693582591071700,8.33907177734375,0.01764552854001522,-0.009591951034963131,0.038244180381298065
1783693582601034000,8.349033935546874,0.01713128387928009,-0.010549346916377544,0.03588354215025902
1783693582610996700,8.358996826171875,0.013955199159681797,-0.013817843981087208,0.03126189485192299
1783693582620958700,8.368958740234374,0.01174270361661911,-0.007901094853878021,0.02349669858813286
1783693582630921700,8.378921630859375,0.006116243079304695,-0.007399887777864933,0.012486922554671764
1783693582640885000,8.388885009765625,0.0023312349803745747,-0.007216630037873983,0.00853487104177475
1783693582650846700,8.3988466796875,0.0006491825915873051,-0.007425955031067133,0.0035534282214939594
1783693582660809700,8.408809814453125,-0.002875128062441945,-0.006957228761166334,-0.008348406292498112
1783693582670771700,8.418771728515624,-0.003920951392501593,-0.005423514638096094,-0.015976764261722565
1783693582680735000,8.42873486328125,-0.004520246759057045,-0.006191864609718323,-0.01861066184937954
1783693582690697000,8.438697021484375,-0.002026728820055723,-0.00770880002528429,-0.022051731124520302
1783693582700659700,8.44865966796875,0.0023100990802049637,-0.01169717125594616,-0.017491158097982407
1783693582710622700,8.458622802734375,0.006279007997363806,-0.008355969563126564,-0.011498778127133846
1783693582720585000,8.4685849609375,0.006831328384578228,-0.004861872643232346,-0.0028542359359562397
1783693582730548000,8.4785478515625,0.006747971288859844,-0.0082014761865139,0.0031626441050320864
1783693582740509700,8.488509765625,0.006167551502585411,-0.0079767145216465,0.007349301129579544
1783693582750472700,8.49847265625,0.007775833830237389,-0.012311807833611965,0.010348287411034107
1783693582760435000,8.50843505859375,0.0121945571154356,-0.015735609456896782,0.010976347140967846
1783693582770398000,8.51839794921875,0.015507794916629791,-0.01069717574864626,0.015045391395688057
1783693582780361000,8.52836083984375,0.018715105950832367,-0.00266023026779294,0.019795622676610947
1783693582790322700,8.53832275390625,0.021710628643631935,-0.0031369361095130444,0.017318882048130035
1783693582800285700,8.54828564453125,0.02322738990187645,-0.0028248270973563194,0.012876583263278008
1783693582810248000,8.558248046875,0.022711535915732384,-0.00487146619707346,0.007561179809272289
1783693582820211000,8.5682109375,0.02016313187777996,-0.006331168580800295,0.0022969290148466825
1783693582830172700,8.578172607421875,0.017828870564699173,-0.0036400440149009228,-0.0025337787810713053
1783693582840136000,8.588135986328124,0.01283882837742567,-0.0008642057655379176,-0.01090315729379654
1783693582850099000,8.598098876953125,0.008177497424185276,0.0006601877394132316,-0.01915016770362854
1783693582860061000,8.60806103515625,0.0021013787481933832,-0.000013335025869309902,-0.02240065485239029
1783693582870023700,8.618023681640626,-0.003923757001757622,0.004144658334553242,-0.021054692566394806
1783693582879986000,8.62798583984375,-0.007660886738449335,0.003944682888686657,-0.023395847529172897
1783693582889949000,8.637948974609374,-0.011749904602766037,-0.0018679327331483364,-0.02648431621491909
1783693582899912000,8.647911865234375,-0.012859195470809937,-0.005442721303552389,-0.023226765915751457
1783693582909873700,8.657873779296875,-0.011726019904017448,-0.007064852863550186,-0.011378629133105278
1783693582919836700,8.667836669921876,-0.007908983156085014,-0.002061322098597884,0.0007461703498847783
1783693582929799000,8.677798828125,-0.011396658606827259,0.002419979078695178,0.016019664704799652
1783693582939762000,8.687761962890624,-0.014819593168795109,0.007858176715672016,0.024838438257575035
1783693582949723600,8.6977236328125,-0.014484833925962448,0.008929832838475704,0.02581688202917576
1783693582959686700,8.707686767578124,-0.016787268221378326,0.0014322149800136685,0.01705685816705227
1783693582969649700,8.717649658203126,-0.018216852098703384,-0.005907190497964621,0.009219973348081112
1783693582979612000,8.72761181640625,-0.018162772059440613,-0.0061250668950378895,0.002148027066141367
1783693582989575000,8.737574951171876,-0.018177418038249016,-0.007294461131095886,-0.0030400771647691727
1783693582999536600,8.74753662109375,-0.012410316616296768,-0.011987194418907166,-0.009454585611820221
1783693583009500000,8.7575,-0.008506388403475285,-0.00576844671741128,-0.013104980811476707
1783693583019463000,8.767462890625,-0.005746437236666679,0.003433582838624716,-0.01743890903890133
1783693583029425000,8.7774248046875,-0.0014853797620162368,0.006551345344632864,-0.02196282148361206
1783693583039388000,8.787387939453126,0.0019606726709753275,0.0045183137990534306,-0.024525975808501244
1783693583049350000,8.797349853515625,0.005575114861130714,0.004158254247158766,-0.02720511518418789
1783693583059313000,8.80731298828125,0.007535234093666077,0.002479379065334797,-0.02638878859579563
1783693583069275000,8.81727490234375,0.011566461063921452,0.0015051949303597212,-0.024467583745718002
1783693583079238000,8.82723779296875,0.012825973331928253,0.004331871401518583,-0.018251655623316765
1783693583089200600,8.83720068359375,0.013552217744290829,0.003103888127952814,-0.017589326947927475
1783693583099163000,8.847162841796875,0.012169089168310165,0.00139494682662189,-0.0132240429520607
1783693583109126000,8.8571259765625,0.007493643555790186,0.0031430458184331656,-0.004367433954030275
1783693583119087900,8.867087890625,0.0029766748193651438,0.007623251527547836,0.002059117890894413
1783693583129050600,8.877050537109374,-0.003464180277660489,0.01291388738900423,0.0075108748860657215
1783693583139012900,8.887012939453125,-0.009067675098776817,0.014017198234796524,0.008924349211156368
1783693583148975900,8.896975830078125,-0.011731901206076145,0.00573316914960742,0.004134920425713062
1783693583158939000,8.90693896484375,-0.015863560140132904,0.0054495614022016525,-0.0036700726486742496
1783693583168900600,8.916900634765625,-0.018533112481236458,0.0059515670873224735,-0.010284033603966236
1783693583178863900,8.92686376953125,-0.016867632046341896,-0.0006046075141057372,-0.01665755920112133
1783693583188825900,8.936825927734375,-0.013285679742693901,-0.005105616059154272,-0.024314414709806442
1783693583198788900,8.946788818359375,-0.007404088042676449,-0.0028736204840242863,-0.025101911276578903
1783693583208751900,8.956751953125,-0.0010915974853560328,-0.000806741532869637,-0.018310850486159325
1783693583218713900,8.9667138671875,0.002094350755214691,0.0000593715813010931,-0.012282880954444408
1783693583228676900,8.9766767578125,0.002936708275228739,0.007081062067300081,0.00021373573690652847
1783693583238638800,8.986638916015625,0.0013825460337102413,0.012594874948263168,0.011375891976058483
1783693583248601900,8.996601806640625,0.0005231439135968685,0.008777500130236149,0.016165321692824364
1783693583258563800,9.006563720703125,0.0024865625891834497,0.0008284763316623867,0.018652090802788734
1783693583268526800,9.01652685546875,0.004998456221073866,0.0023448802530765533,0.021190617233514786
1783693583278489900,9.02648974609375,0.006947790738195181,0.004090010654181242,0.023422589525580406
1783693583288451800,9.036451904296875,0.010112958028912544,-0.0009745230199769139,0.020054755732417107
1783693583298414800,9.046414794921875,0.013302069157361984,-0.0026301387697458267,0.018078526481986046
1783693583308376800,9.056376953125,0.01580091193318367,0.0015939009608700871,0.02244504541158676
1783693583318339800,9.06633984375,0.015204225666821003,-0.0018760053208097816,0.018553640693426132
1783693583328302800,9.076302734375,0.015663089230656624,-0.011708396486938,0.008274904452264309
1783693583338264800,9.086264892578125,0.016834717243909836,-0.009413019753992558,0.0019049972761422396
1783693583348227800,9.096227783203124,0.015215516090393066,0.005139824002981186,0.0035255306866019964
1783693583358189800,9.10618994140625,0.009651752188801765,0.010296819731593132,0.002705290447920561
1783693583368152800,9.11615283203125,0.006924674846231937,0.00031023204792290926,-0.003915061708539724
1783693583378115800,9.12611572265625,-0.0002481155388522893,0.0010401654290035367,-0.0026980191469192505
1783693583388077800,9.136077880859375,-0.001670776167884469,0.00838063657283783,0.001972100231796503
1783693583398040800,9.146040771484374,-0.002646572422236204,0.0066093564964830875,0.0011159025598317385
1783693583408002000,9.156001953125,-0.0017669301014393568,-0.0002528107725083828,-0.010172971524298191
1783693583417965000,9.165965087890624,0.0028546294197440147,-0.0026879911310970783,-0.01656041480600834
1783693583427927000,9.175927001953125,0.0044778259471058846,0.0020289993844926357,-0.015599544160068035
1783693583437890000,9.18589013671875,0.00561303598806262,-0.0019494416192173958,-0.009310162626206875
1783693583447853000,9.19585302734375,0.00595658365637064,-0.00621529296040535,-0.0019031123956665397
1783693583457815300,9.205815185546875,0.0025859754532575607,0.005670610815286636,0.009148994460701942
1783693583467778300,9.2157783203125,0.0010418747551739216,0.008927123621106148,0.014907014556229115
1783693583477740000,9.225739990234375,0.001371691469103098,-0.0009955387795343995,0.014154771342873573
1783693583487703000,9.235703125,0.0021613186690956354,-0.009284893982112408,0.015963323414325714
1783693583497666000,9.245666015625,0.00032038241624832153,-0.010693483054637909,0.015834886580705643
1783693583507628300,9.255628173828125,-0.0022501007188111544,-0.010973382741212845,0.01846981793642044
1783693583517591000,9.265591064453124,-0.0025575098115950823,-0.016274336725473404,0.02281668409705162
1783693583527553000,9.275552978515625,0.0014726518420502543,-0.01612360216677189,0.024887824431061745
1783693583537516000,9.28551611328125,0.00384900881908834,-0.00931552704423666,0.030095713213086128
1783693583547479000,9.29547900390625,0.0027509876526892185,-0.006522936746478081,0.03178176283836365
1783693583557441000,9.30544091796875,0.0029784664511680603,-0.009021520614624023,0.029322922229766846
1783693583567404000,9.315404052734374,-0.00044449433335103095,-0.00725770927965641,0.0334409661591053
1783693583577366000,9.325365966796875,-0.006651049945503473,0.003937415778636932,0.03314663842320442
1783693583587329000,9.3353291015625,-0.006837471388280392,-0.0020307281520217657,0.026406180113554
1783693583597291000,9.345291015625,-0.006954018957912922,-0.004683463368564844,0.025873836129903793
1783693583607254000,9.35525390625,-0.0043912590481340885,0.005179819650948048,0.022314520552754402
1783693583617217000,9.365217041015624,-0.007124428637325764,0.002720105927437544,0.01383322011679411
1783693583627179300,9.37517919921875,-0.009593712165951729,0.000023921485990285873,0.0035968273878097534
1783693583637142300,9.385142333984374,-0.007868457585573196,0.0012037064880132675,-0.005593691952526569
1783693583647104000,9.39510400390625,-0.006063100416213274,0.0032777762971818447,-0.015001840889453888
1783693583657067000,9.40506689453125,-0.0013392046093940735,-0.0007867099484428763,-0.018173744902014732
1783693583667030000,9.415030029296876,-0.00008006207644939423,-0.0023555783554911613,-0.018853383138775826
1783693583676992300,9.4249921875,-0.0009016416152007878,-0.001039219438098371,-0.01847992092370987
1783693583686955000,9.434955078125,-0.00040283158887177706,-0.003095712512731552,-0.018943576142191887
1783693583696917000,9.4449169921875,-0.0020258482545614243,-0.0027567194774746895,-0.017529204487800598
1783693583706880000,9.4548798828125,-0.0029861843213438988,0.000359178869985044,-0.014222090132534504
1783693583716843000,9.464843017578126,-0.0009393685031682253,-0.00030180392786860466,-0.012975581921637058
1783693583726805000,9.474804931640625,-0.0030635057482868433,-0.003994809463620186,-0.009537974372506142
1783693583736768000,9.48476806640625,-0.0034959306940436363,-0.002122590783983469,0.0006143035716377199
1783693583746730000,9.49472998046875,-0.0037252288311719894,0.002119558397680521,0.012901329435408115
1783693583756693200,9.504693359375,-0.0015409227926284075,0.003637323621660471,0.0237863902002573
1783693583766656300,9.51465625,0.0000734854256734252,0.0034679467789828777,0.026649555191397667
1783693583776618000,9.524617919921875,0.0021397334057837725,0.000549082993529737,0.022322162985801697
1783693583786581000,9.5345810546875,0.005187188275158405,-0.0015044803731143475,0.0163140706717968
1783693583796543200,9.544543212890625,0.0055709900334477425,-0.0033825067803263664,0.005890164989978075
1783693583806506200,9.55450634765625,0.009535371325910091,-0.005984681658446789,-0.004983788356184959
1783693583816468000,9.564468017578125,0.010136940516531467,-0.0013191243633627892,-0.010987323708832264
1783693583826431000,9.574430908203125,0.009618955664336681,0.001004217192530632,-0.014900040812790394
1783693583836394000,9.58439404296875,0.009340370073914528,0.0023760416079312563,-0.017465008422732353
1783693583846356200,9.594356201171875,0.00536560220643878,0.0030247876420617104,-0.016623448580503464
1783693583856319200,9.6043193359375,0.003608615603297949,0.0016026203520596027,-0.014215175062417984
1783693583866281000,9.614281005859375,-0.0026956195943057537,0.005334774497896433,-0.010677964426577091
1783693583876244000,9.624243896484375,-0.006438913755118847,0.007765168324112892,-0.007131907157599926
1783693583886207000,9.63420703125,-0.005321185104548931,0.004820777103304863,-0.006742552854120731
1783693583896169200,9.644169189453125,-0.0034934128634631634,0.004079080186784267,-0.006240488961338997
1783693583906132000,9.654132080078124,-0.0006749893655069172,0.00493768323212862,-0.010368121787905693
1783693583916094000,9.664093994140625,0.00333797512575984,0.007569735869765282,-0.012473070994019508
1783693583926057200,9.67405712890625,0.011527195572853088,0.004065548535436392,-0.010532958433032036
1783693583936020200,9.684020263671876,0.01791509985923767,0.0034655313938856125,-0.0030209203250706196
1783693583945982000,9.69398193359375,0.02361772581934929,0.0007618903182446957,0.00503833731636405
1783693583955945000,9.703945068359374,0.022466666996479034,0.000505659612827003,0.012314919382333755
1783693583965907200,9.7139072265625,0.014879587106406689,0.005599221680313349,0.0202316977083683
1783693583975870200,9.7238701171875,0.005695535335689783,0.006780129857361317,0.01734190620481968
1783693583985833200,9.733833251953126,-0.0007626302540302277,0.004476761445403099,0.012812667526304722
1783693583995795000,9.743794921875,-0.003973701503127813,-0.0010477390605956316,0.0036471113562583923
1783693584005758000,9.753758056640624,-0.002364886226132512,-0.0031236729118973017,-0.0008525656303390861
1783693584015720200,9.76372021484375,0.0013950548600405455,0.0043653883039951324,0.0008053694618865848
1783693584025683200,9.77368310546875,0.006930435076355934,0.00478563504293561,-0.000857242033816874
1783693584035645000,9.78364501953125,0.010987643152475357,0.004176294431090355,0.00047237472608685493
1783693584045608000,9.79360791015625,0.01193706039339304,0.01016680896282196,-0.0020536333322525024
1783693584055571200,9.8035712890625,0.0096658393740654,0.009259229525923729,-0.005395493935793638
1783693584065533200,9.813533203125,0.007403218653053045,0.007973454892635345,-0.009278649464249611
1783693584075496200,9.82349609375,0.005982805974781513,0.008434457704424858,-0.014067979529500008
1783693584085458000,9.8334580078125,0.005521546117961407,0.0031118635088205338,-0.018008392304182053
1783693584095421200,9.843421142578125,0.006944401189684868,0.0032540601678192616,-0.01754877157509327
1783693584105384200,9.85338427734375,0.0046410332433879375,0.010162034071981907,-0.011573170311748981
1783693584115346200,9.86334619140625,0.003435406368225813,0.015079283155500889,-0.004824178293347359
1783693584125309000,9.873308837890624,0.00005292531568557024,0.02203226462006569,0.0012560845352709293
1783693584135271200,9.883271240234375,-0.0030711882282048464,0.02098621055483818,0.0014246354112401605
1783693584145234200,9.893234130859375,-0.0027401575352996588,0.01634964533150196,-0.0027253683656454086
1783693584155197200,9.903197265625,-0.0061001903377473354,0.013515218161046505,-0.005740739405155182
1783693584165159000,9.913158935546875,-0.008570272475481033,0.00534730264917016,-0.013274822384119034
1783693584175122000,9.923121826171876,-0.013928467407822609,-0.00021920888684689999,-0.019046125933527946
1783693584185084200,9.933084228515625,-0.01742972433567047,-0.0007755432743579149,-0.017065268009901047
1783693584195047200,9.943047119140624,-0.017347505316138268,-0.003720749169588089,-0.015247167088091373
1783693584205009000,9.9530087890625,-0.012224116362631321,-0.008463039994239807,-0.01161328423768282
1783693584214972000,9.962971923828125,-0.004693274386227131,-0.012455910444259644,-0.003967408090829849
1783693584224935200,9.97293505859375,0.0003443610912654549,-0.010543495416641235,0.002094745635986328
1783693584234897200,9.982897216796875,0.0032778007443994284,-0.0068534002639353275,0.012940133921802044
1783693584244860200,9.992860107421874,0.0032226734329015017,-0.004477594047784805,0.01703900471329689
1783693584254822000,10.00282177734375,0.0039258976466953754,-0.004548177123069763,0.014114489778876305
1783693584264785200,10.01278515625,0.005151217803359032,-0.0072084092535078526,0.012253738939762115
1783693584274748200,10.022748046875,0.008987266570329666,-0.008336009457707405,0.008694492280483246
1783693584284710100,10.032710205078125,0.008536925539374352,-0.0074941846542060375,0.006878482643514872
1783693584294673200,10.042673095703124,0.004531607963144779,-0.003821444232016802,0.003630617633461952
1783693584304635100,10.05263525390625,0.0031158719211816788,-0.0027702944353222847,-0.0004858305910602212
1783693584314598100,10.06259814453125,-0.0056218113750219345,0.0003173649311065674,-0.006826117634773254
1783693584324561200,10.07256103515625,-0.006121953018009663,0.0022457598242908716,-0.018398351967334747
1783693584334523100,10.082523193359375,-0.006478003226220608,0.0023115514777600765,-0.0313786081969738
1783693584344486000,10.09248583984375,-0.004979708697646856,0.0036902697756886482,-0.034290242940187454
1783693584354448100,10.1024482421875,-0.004921845626085997,0.003018104238435626,-0.0361645333468914
1783693584364411100,10.1124111328125,-0.011208769865334034,0.0030993307009339333,-0.035686228424310684
1783693584374373000,10.122373046875,-0.012007529847323895,0.003380852285772562,-0.035105254501104355
1783693584384336000,10.1323359375,-0.01562490127980709,0.002193881431594491,-0.0296564269810915
1783693584394299100,10.142299072265626,-0.017286594957113266,0.0016548667335882783,-0.020615162327885628
1783693584404261000,10.15226123046875,-0.01731935143470764,0.0048778243362903595,-0.010169180110096931
1783693584414224400,10.162224365234374,-0.013510644435882568,0.005256227217614651,-0.0017592634540051222
1783693584424186400,10.172186279296875,-0.011196623556315899,-0.0015068704960867763,0.007687235251069069
1783693584434149400,10.1821494140625,-0.00317456410266459,-0.007935980334877968,0.017052272334694862
1783693584444112600,10.192112548828124,0.0027022333815693855,-0.013109437189996243,0.018405158072710037
1783693584454074400,10.202074462890625,0.005379112437367439,-0.012489739805459976,0.020828809589147568
1783693584464037400,10.212037353515624,0.008940291590988636,-0.011301171034574509,0.026337025687098503
1783693584473999600,10.22199951171875,0.004473962355405092,-0.009302997030317783,0.027436695992946625
1783693584483962600,10.231962646484375,0.0012978767044842243,-0.0031790579669177532,0.028816213831305504
1783693584493925400,10.24192529296875,-0.0012173752766102552,0.0022529896814376116,0.02268891967833042
1783693584503887400,10.251887451171875,-0.003846181556582451,-0.003673342987895012,0.012697272934019566
1783693584513850400,10.261850341796874,-0.0021210580598562956,-0.010241779498755932,0.0009516268037259579
1783693584523812600,10.2718125,-0.000271492637693882,-0.01420589443296194,-0.005231700837612152
1783693584533775400,10.281775390625,0.002252813894301653,-0.012497208081185818,-0.007120522670447826
1783693584543737300,10.2917373046875,0.006082173436880112,-0.005140758119523525,0.0015352832851931453
1783693584553700400,10.301700439453125,0.006680210120975971,-0.004470130428671837,0.007315745577216148
1783693584563663400,10.311663330078124,0.008345484733581543,-0.00022212229669094086,0.01196216233074665
1783693584573625300,10.321625244140625,0.008099265396595001,0.004675664938986301,0.011620399542152882
1783693584583588400,10.33158837890625,0.0045082587748765945,0.00836361013352871,0.01371364388614893
1783693584593550300,10.34155029296875,0.0022228998132050037,0.008972103707492352,0.017878537997603416
1783693584603513600,10.351513671875,-0.00035956737701781094,0.004290266428142786,0.01688544638454914
1783693584613476600,10.3614765625,0.0014565818710252643,-0.0015840603737160563,0.018766164779663086
1783693584623438300,10.371438232421875,0.005673963576555252,0.0005808232235722244,0.020203471183776855
1783693584633401300,10.3814013671875,0.00796117726713419,0.0007501862710341811,0.016387280076742172
1783693584643363600,10.391363525390625,0.010449368506669998,0.003115606028586626,0.0046960036270320415
1783693584653326600,10.40132666015625,0.012265216559171677,0.007027254905551672,-0.011745446361601353
1783693584663289300,10.411289306640626,0.013389336876571178,0.00988962035626173,-0.02776888571679592
1783693584673251300,10.421251220703125,0.01015293225646019,0.015120847150683403,-0.03292299062013626
1783693584683214300,10.43121435546875,0.005013031419366598,0.01398580800741911,-0.03363671898841858
1783693584693176600,10.441176513671875,-0.0002002236433327198,0.018520362675189972,-0.031760621815919876
1783693584703139300,10.451139404296875,-0.0015616316813975573,0.014588471502065659,-0.03130602091550827
1783693584713101300,10.461101318359376,-0.002330998657271266,0.013641515746712685,-0.03255195543169975
1783693584723064300,10.471064208984375,-0.0022590933367609978,0.011020433157682419,-0.037922751158475876
1783693584733027600,10.481027587890624,-0.005217547062784433,0.008094369433820248,-0.038158029317855835
1783693584742989600,10.490989501953125,-0.003050000173971057,-0.0027763876132667065,-0.03336460143327713
1783693584752952300,10.500952392578125,0.0036915065720677376,-0.0027321488596498966,-0.02639705315232277
1783693584762914300,10.510914306640625,0.012713763862848282,0.0013779073487967253,-0.016138557344675064
1783693584772877600,10.520877685546875,0.01907026208937168,-0.0003300148528069258,0.004408933222293854
1783693584782840600,10.530840576171874,0.01949184015393257,0.018938489258289337,0.023254524916410446
1783693584792802300,10.54080224609375,0.015145989134907722,0.017534205690026283,0.03448816388845444
1783693584802765300,10.550765380859374,0.017748164013028145,0.0015371296321973205,0.036520689725875854
1783693584812727600,10.5607275390625,0.022629056125879288,0.004932669457048178,0.031643740832805634
1783693584822690600,10.570690673828125,0.030439842492341995,0.0073076761327683926,0.019379353150725365
1783693584832652300,10.58065234375,0.029435355216264725,-0.0026863636448979378,0.012900995090603828
1783693584842615300,10.590615234375,0.021722840145230293,0.0025645908899605274,0.0166360791772604
1783693584852578300,10.600578369140624,0.013747075572609901,0.019589625298976898,0.01733027584850788
1783693584862540500,10.61054052734375,0.0018704426474869251,0.0259079746901989,0.01714811474084854
1783693584872503600,10.620503662109375,-0.008702520281076431,0.0322926864027977,0.014699832536280155
1783693584882465300,10.63046533203125,-0.013518847525119781,0.04601861909031868,0.025856880471110344
1783693584892428300,10.64042822265625,0.00024860442499630153,0.054577991366386414,0.02342037297785282
1783693584902391600,10.6503916015625,0.015005978755652905,0.0528557263314724,0.0003177171456627548
1783693584912353500,10.660353515625,0.03703191876411438,0.042434245347976685,-0.027537083253264427
1783693584922316300,10.67031640625,0.03318870812654495,0.05773144215345383,-0.06268735229969025
1783693584932278300,10.6802783203125,0.017002075910568237,0.034022122621536255,-0.07351544499397278
1783693584942241500,10.690241455078125,-0.00579937594011426,0.13575248420238495,-0.008415537886321545
1783693584952203500,10.70020361328125,0.010464737191796303,0.07581673562526703,-0.032711420208215714
1783693584962166300,10.710166259765625,0.01153506152331829,0.04896461218595505,-0.004961279686540365
1783693584972129300,10.72012939453125,-0.009601050987839699,0.008672546595335007,0.02319246716797352
1783693584982091500,10.730091552734375,-0.02657497487962246,0.004417347721755505,0.049458421766757965
1783693584992054500,10.740054443359375,-0.03920136019587517,-0.009230037219822407,0.04964800179004669
1783693585002016300,10.750016357421876,-0.049113910645246506,-0.027495328336954117,0.034922849386930466
1783693585011979300,10.759979248046875,-0.0460517518222332,-0.04892658069729805,0.007162908092141151
1783693585021942300,10.7699423828125,-0.04284317418932915,-0.08912939578294754,-0.024220049381256104
1783693585031904500,10.779904541015625,-0.054434288293123245,-0.11473939567804337,-0.013097641058266163
1783693585041867500,10.789867431640625,-0.04477020725607872,-0.01468789204955101,0.04311743006110191
