time,seconds_elapsed,z,y,x
1783693547403577000,0.0685771484375,0.454983071103692,0.027113817321381066,0.11582140500620007
1783693547413540000,0.0785400390625,0.43213644852340216,0.13922646518684922,0.10323372611179947
1783693547423502000,0.088502197265625,0.3677285660207271,0.18308190046101808,0.08818769427984953
1783693547433465000,0.098465087890625,0.22370178788006304,0.182533947722055,0.014909692101180552
1783693547443428000,0.108427978515625,0.022599369820952415,0.1471895895531401,-0.16626374439001082
1783693547453390000,0.11839013671875,-0.11441314564347266,0.16571345356348902,-0.3960914678044617
1783693547463353000,0.12835302734375,-0.15566110183298587,0.1662291114680469,-0.5690794058829546
1783693547473315800,0.13831591796875,0.0421370139837265,0.10996740001467988,-0.45333808037564155
1783693547483278000,0.148278076171875,0.42021278649568555,0.09078041418679059,-0.14296733221560715
1783693547493241000,0.158240966796875,0.6938765828967094,0.08498533630827441,0.14655512757450342
1783693547503204000,0.1682041015625,0.706531481808424,0.1289249975334853,0.2470709730297327
1783693547513166000,0.178166015625,0.5129126975029706,0.1696302251484245,0.18265388430729507
1783693547523129000,0.188129150390625,0.3155751849353313,0.14973658888852223,0.012127075645327567
1783693547533092000,0.198092041015625,0.21413258002400398,0.05432822264013812,-0.12072598205208777
1783693547543054000,0.20805419921875,0.12465630723834037,-0.0317956709777005,-0.20113909680768846
1783693547553017000,0.21801708984375,-0.01930734253823757,-0.044125484387204046,-0.3089692107990384
1783693547562980000,0.22797998046875,-0.15102233611643315,-0.07063181678513064,-0.4240250382602215
1783693547572942000,0.237942138671875,-0.2702016732484102,-0.10123632348319515,-0.37972792363315816
1783693547582905000,0.247905029296875,-0.40164837127923964,-0.15224316488197073,-0.28780966452285645
1783693547592868000,0.2578681640625,-0.5106868381470442,-0.1518236608282663,-0.2006365541130304
1783693547602830000,0.267830078125,-0.5615028331488371,-0.07257052976274862,-0.078817954518646
1783693547612793000,0.27779296875,-0.5645633897632361,0.06093527448866516,0.02472249945476651
1783693547622756000,0.287756103515625,-0.3895984525233507,0.20103706120532006,0.042567222094535825
1783693547632718000,0.297718017578125,-0.17508067257404325,0.19437564882105215,-0.025822715781629084
1783693547642681000,0.30768115234375,-0.11435352441072463,0.10475998583100736,-0.07743322216197848
1783693547652644000,0.31764404296875,0.0025707272708415984,-0.0038671237569302317,0.050068391504883764
1783693547662606000,0.327606201171875,0.08666355345249176,0.014800349975191055,0.25211612759009
1783693547672569000,0.337569091796875,0.09063888682425021,0.09348214742615818,0.3718061907231808
1783693547682532000,0.347531982421875,0.004471007934212685,0.16176825960166752,0.31108576456159354
1783693547692494000,0.357494140625,-0.025840543699264525,0.2230567314421758,0.10274886520430446
1783693547702457000,0.36745703125,-0.0036649522483348843,0.1646475413650274,0.0011029928058385848
1783693547712420000,0.377420166015625,0.05163491016924381,0.057341670443490145,-0.06703881552815437
1783693547722382000,0.387382080078125,0.12437515220940112,-0.011922931375354528,-0.09328925520256161
1783693547732345000,0.397344970703125,0.05772329017221927,-0.007135952827148139,-0.05906637534424662
1783693547742308000,0.40730810546875,-0.0492518144249916,-0.04715305204745382,-0.17611966023296116
1783693547752270000,0.41727001953125,-0.13261632633209228,-0.0597102262057364,-0.2687505976572633
1783693547762233000,0.427233154296875,-0.10258359163999557,-0.09110475077033042,-0.2819571391023695
1783693547772196000,0.437196044921875,-0.052285483032464976,-0.12180877232011407,-0.35406931237205863
1783693547782158000,0.447157958984375,0.05933773963153362,-0.13069690257683395,-0.3352434697404504
1783693547792121000,0.45712109375,0.1896843674659729,-0.1246058922253549,-0.22157281302735207
1783693547802084000,0.467083984375,0.2976432224035263,0.08406012948844581,0.012855974441766739
1783693547812046000,0.477046142578125,0.22602292430400847,0.2404917042372748,0.3447926577217877
1783693547822009000,0.487009033203125,0.1792746171325445,0.265847971550934,0.41133258381709453
1783693547831972000,0.49697216796875,0.19366905318796634,0.25810108375120905,0.39182884192392226
1783693547841934000,0.50693408203125,0.26293489711582657,0.16338340318072586,0.35573578427955505
1783693547851897000,0.51689697265625,0.32781741139292714,0.05002320065628737,0.3576059620656073
1783693547861860000,0.526860107421875,0.31796704850792884,0.007098214632645249,0.39369682775288817
1783693547871822000,0.536822021484375,0.26524785023331643,0.00348170463591814,0.4236687721684575
1783693547881785000,0.54678515625,0.19135843815803527,-0.01784793751016259,0.34643647940605876
1783693547891748000,0.556748046875,0.08293722640573978,-0.009294920959323645,0.2718974443156272
1783693547901710000,0.5667099609375,-0.05489303518235683,0.0896565247233957,0.2987025221981108
1783693547911673000,0.576673095703125,-0.21893092021644114,0.14445435590296982,0.34433673064783216
1783693547921636000,0.586635986328125,-0.3740963474869728,0.15398728686925023,0.20892317481264472
1783693547931598000,0.59659814453125,-0.5044026433110237,0.02571837862432003,0.02587999892681837
1783693547941561000,0.60656103515625,-0.5176157606273889,-0.05670636821463704,-0.1585452789671719
1783693547951524000,0.616524169921875,-0.4040753061652183,-0.10078406793735921,-0.2129978769056499
1783693547961486000,0.626486083984375,-0.26425708563029765,-0.10135518235620111,-0.20885741610005495
1783693547971449000,0.636448974609375,-0.14423662149906158,-0.06373396529648452,-0.19235095632672308
1783693547981412000,0.646412109375,-0.05324176084399223,-0.04257821841258556,-0.16210589405819772
1783693547991374000,0.6563740234375,0.04821662615835667,-0.035154352022148665,-0.19396876678690314
1783693548001337000,0.666337158203125,0.14537293205261229,-0.009572020867653191,-0.16054931226596236
1783693548011300000,0.676300048828125,0.28261224201023577,-0.00597399637568742,-0.13323533501327037
1783693548021262000,0.686261962890625,0.2564636552751064,0.0020575535843148827,-0.1329033265799284
1783693548031225000,0.69622509765625,0.10975450618267059,0.0006607654636725783,-0.12348828637227416
1783693548041188000,0.70618798828125,0.04477554579377174,0.0009824351660907267,-0.12341244465708733
1783693548051150000,0.716150146484375,0.053877720659971234,-0.00960745750721544,-0.10899462772607803
1783693548061113000,0.726113037109375,0.06973346143960953,-0.010434555981121956,-0.0835617880448699
1783693548071076000,0.736076171875,0.06152735863029957,-0.03860580765027553,-0.03329918914213777
1783693548081038000,0.7460380859375,-0.03494505665302276,-0.05488455961495638,-0.06757686792761088
1783693548091001000,0.7560009765625,-0.05836743329465389,-0.0746128309790045,-0.08109963571503757
1783693548100964000,0.765964111328125,-0.025749942806363103,-0.0636406609898433,-0.047979164140671486
1783693548110926000,0.775926025390625,-0.01428805307149887,-0.04260229340791702,0.020774930872768164
1783693548120889000,0.78588916015625,-0.13926935448050498,-0.017903613220155237,0.07737170123308897
1783693548130852000,0.79585205078125,-0.1995651254892349,0.03597242693938315,0.044175680204480886
1783693548140814000,0.80581396484375,-0.18565818068981169,0.0327357100404799,0.048960722523927684
1783693548150777000,0.815777099609375,-0.2157435223519802,0.02573255328014493,0.06145429339408874
1783693548160740000,0.825739990234375,-0.22513620459735392,0.05110701383762061,0.04379895584657788
1783693548170702000,0.8357021484375,-0.12251520355641841,0.022004984124377368,0.09230199773088096
1783693548180665000,0.8456650390625,-0.038408933371305465,-0.002662131881341338,0.09246814807802438
1783693548190627000,0.855626953125,-0.04778758709132671,-0.03375697937961668,0.08373115326240659
1783693548200590000,0.865590087890625,-0.04178746989369392,-0.028080541178397832,0.029848756427317855
1783693548210553000,0.875552978515625,0.011336217528581619,-0.07152008912805467,0.02575578802525997
1783693548220515000,0.88551513671875,0.00457096117734909,-0.0625766484875232,0.030490269201248883
1783693548230478000,0.89547802734375,-0.07343874569833278,0.015104410955682396,0.024129940389096736
1783693548240441000,0.905441162109375,-0.09394552715420722,0.029074739847518502,0.08594795252904296
1783693548250403000,0.915403076171875,-0.027089666977524757,-0.01584068934097886,0.0828394651196897
1783693548260366000,0.925365966796875,-0.005503858113288879,-0.022081519959308207,0.04581979414969682
1783693548270329000,0.9353291015625,-0.09714519997835158,-0.018655783294327558,0.03234627233147621
1783693548280291000,0.945291015625,-0.15351824458539484,0.0034080183451995253,-0.0004842763856053352
1783693548290254000,0.955254150390625,-0.15854863996803759,0.0017042101019993424,-0.013938947372883558
1783693548300217000,0.965217041015625,-0.11197861197292804,-0.032830402586609124,-0.05817614850625395
1783693548310179000,0.975178955078125,-0.06443593955338,-0.09720281191710382,-0.10578925581350922
1783693548320142000,0.98514208984375,-0.0002332242339849472,-0.10364683695733547,-0.14201733801439403
1783693548330105000,0.99510498046875,0.04221066374182701,-0.038179362399131056,-0.09090440589264034
1783693548340067000,1.005067138671875,0.08718260889053345,-0.014994886166602371,-0.0258241770863533
1783693548350030000,1.015030029296875,0.0967781202316284,0.010105250961519777,0.002611643803119659
1783693548359993000,1.0249931640625,0.11003507668972015,-0.008424275604635477,0.021068360861390828
1783693548369954800,1.034954833984375,0.07376140178143978,-0.04022354504521936,0.004197451689839363
1783693548379917800,1.044917724609375,0.042729719179868696,-0.04085650918651372,0.0001784253068268299
1783693548389880800,1.054880859375,0.027570143970847127,-0.05425517567023635,-0.0027155425690114495
1783693548399842800,1.0648427734375,0.004839841246604919,-0.03284461377505213,-0.021744652687758208
1783693548409805800,1.074805908203125,-0.029600773015618323,-0.02474145988356322,0.015776099672168493
1783693548419768800,1.084768798828125,-0.06463876864910126,-0.003429061133228242,0.028766221887618303
1783693548429730800,1.094730712890625,-0.13130232112407683,0.02811623354628682,0.025967092688381672
1783693548439693800,1.10469384765625,-0.17451485538482664,0.037084224106185136,0.033441081830859185
1783693548449656800,1.11465673828125,-0.2070125188857317,0.029485147279314696,0.03624050329104066
1783693548459618800,1.124618896484375,-0.19001345328986644,0.032008710940182206,0.04460048148781061
1783693548469581800,1.134581787109375,-0.14957038374245166,0.022349267517402766,0.03065495824366808
1783693548479544800,1.144544921875,-0.11394903526306152,0.005944076161459088,0.042825434639304875
1783693548489506800,1.1545068359375,-0.05904606320858001,-0.033394502742774786,0.048924628297239536
1783693548499469800,1.1644697265625,0.03917114991545677,-0.019340258427150547,0.04643544183000922
1783693548509432800,1.174432861328125,0.06270458571612834,0.013261961426772176,0.07943579415604472
1783693548519394800,1.184394775390625,-0.0002104278802871704,0.04414554079454392,0.06724559014663099
1783693548529357800,1.19435791015625,-0.0093763156324625,0.052266084212251006,0.04285480686426162
1783693548539320800,1.20432080078125,-0.01987374424934387,0.030080007899925112,0.02140226899087429
1783693548549282800,1.21428271484375,-0.02563596103787422,0.015475107431598007,-0.02741319984346628
1783693548559245800,1.224245849609375,-0.0071019409596920005,-0.021761055833287534,-0.07312032739892602
1783693548569208800,1.234208740234375,0.047805707269906995,-0.042152832607366145,-0.10188143472000956
1783693548579170800,1.2441708984375,0.038141806867718696,-0.04793642097748816,-0.10570186979100107
1783693548589133800,1.2541337890625,0.002452069327235222,-0.04456544670704752,-0.09524638061970472
1783693548599095800,1.264095703125,-0.02956219457089901,-0.047424489399977024,-0.09702493459954857
1783693548609058800,1.274058837890625,-0.028500118297338485,-0.061996766240335996,-0.08842340273186564
1783693548619021800,1.284021728515625,-0.09666764559447764,-0.06999547337666154,-0.08174071009755134
1783693548628983800,1.29398388671875,-0.15392799443006513,-0.0587023643374443,-0.07489142872467637
1783693548638946800,1.30394677734375,-0.15326514660716056,-0.05442691550794988,-0.05577741680145264
1783693548648909800,1.313909912109375,-0.12215338450670242,-0.025860198247805236,-0.019576807129383086
1783693548658871800,1.323871826171875,-0.07761340103447437,-0.0031041034951806066,0.04889642511606216
1783693548668834800,1.333834716796875,-0.04807867899239063,0.0034662513384595512,0.08177782723754644
1783693548678797800,1.3437978515625,-0.008259294301271439,0.0042709187848493455,0.11359832212924957
1783693548688759800,1.353759765625,-0.01497778890132904,0.008837240319699048,0.10344283881783485
1783693548698722800,1.363722900390625,-0.03171615773439407,0.005347790768742561,0.07651683796942234
1783693548708685800,1.373685791015625,-0.04368599699139595,-0.008526566935330628,0.07091156530827283
1783693548718647800,1.383647705078125,-0.0547854831546545,0.004499576441571116,0.04713686809763312
1783693548728610800,1.39361083984375,-0.05376666150093078,0.008113200361467898,0.04633928797915578
1783693548738573800,1.40357373046875,-0.01219663375020027,-0.016779029637016354,0.05757379869893193
1783693548748535800,1.413535888671875,0.08205284478664397,-0.061018130466528236,0.04260813862681389
1783693548758498800,1.423498779296875,0.11297639083862304,-0.08743508581425995,0.03496142326593399
1783693548768461800,1.4334619140625,0.09765490306615829,-0.08533493519723415,0.0202080907702446
1783693548778423800,1.443423828125,0.03396130631268024,-0.05471508479956537,-0.011753127766400575
1783693548788386800,1.45338671875,-0.03325871100127697,-0.029193982313014566,-0.012260054375231266
1783693548798349800,1.463349853515625,-0.052857729962468146,-0.0002285115262493491,0.005023527250438928
1783693548808312000,1.47331201171875,-0.07581482717990874,0.013757891717553138,0.04042801810875535
1783693548818274800,1.48327490234375,-0.1724953322559595,0.0031206527711823582,0.026288287466764447
1783693548828237800,1.49323779296875,-0.22310440650880337,0.0155007167968899,0.014798340681195258
1783693548838199800,1.50319970703125,-0.1717190871864557,0.036866489702276885,0.029128479328751563
1783693548848162800,1.513162841796875,-0.0967787047535181,0.03154573307093233,0.08382891454845666
1783693548858125800,1.523125732421875,-0.033793548530340195,0.035315278204903,0.10787146891504526
1783693548868087800,1.533087890625,0.009322539618611335,0.045456879121437664,0.08112360111251472
1783693548878050800,1.54305078125,0.06873334448635578,0.026645613004453478,0.07653758849650621
1783693548888012800,1.5530126953125,0.06927519627809524,0.01388414844572544,0.0500416496284306
1783693548897975800,1.562975830078125,0.020684476110339165,0.006969254490733146,0.019690642767399548
1783693548907938800,1.572938720703125,-0.0625888503819704,0.026221323177777228,-0.015749942317605018
1783693548917900800,1.58290087890625,-0.14546879364252088,0.036751448487862944,-0.028936171627044677
1783693548927863800,1.59286376953125,-0.19201777884960172,0.0010712824933230877,-0.026513474524766205
1783693548937826800,1.602826904296875,-0.13066577678620814,-0.021325148634053766,-0.021448884611576794
1783693548947788800,1.612788818359375,-0.06545709929466247,-0.04122523290105164,-0.018363339686393736
1783693548957751800,1.622751708984375,-0.006284779357910156,-0.0667365811785683,-0.00312748437076807
1783693548967714800,1.63271484375,0.07521276963353156,-0.08882796494476497,-0.00004369301125407219
1783693548977676800,1.6426767578125,0.1603477983444929,-0.09984693321771919,0.012957681250572204
1783693548987639800,1.652639892578125,0.12051321608424186,-0.05014960351493209,0.050998219700902694
1783693548997602800,1.662602783203125,-0.05196984121203422,0.047497408505715426,0.07484656666964293
1783693549007564800,1.672564697265625,-0.1906938367694616,0.029961678749881683,0.06646700698956846
1783693549017527800,1.68252783203125,-0.15875672976076602,0.021316417338326572,0.05282309704050422
1783693549027490800,1.69249072265625,-0.08143792775869368,-0.0026588804783299566,0.04187485591620207
1783693549037453000,1.702453125,-0.007588847693800926,-0.026237872453778982,0.029587621273100374
1783693549047415800,1.712415771484375,0.010469371566176415,-0.023600400089658795,0.04854980363547802
1783693549057378800,1.72237890625,-0.0008124854266643523,0.019365064074844122,0.05882584458664059
1783693549067340800,1.7323408203125,0.008231821772456169,0.029052016559056936,0.035787352696061134
1783693549077303800,1.7423037109375,-0.008413608080148696,0.011694894773140549,0.049344753405451774
1783693549087266800,1.752266845703125,0.005757540613412856,0.00557407380528748,0.034885873811691996
1783693549097228800,1.762228759765625,0.029939795711636543,0.018286365460045636,0.024141630826890467
1783693549107191800,1.77219189453125,-0.036329204487800595,0.010924494922533631,0.013776450287550687
1783693549117154800,1.78215478515625,-0.058171618461608884,0.046052506927028294,0.01979132666289806
1783693549127116800,1.79211669921875,-0.10887012456357478,0.10153974514286965,0.010086948119848966
1783693549137079800,1.802079833984375,-0.1404658707886934,0.10255016429442912,0.06671177553087472
1783693549147042800,1.812042724609375,-0.10049860205948352,0.05006488437354564,0.07908508102223277
1783693549157004800,1.8220048828125,-0.05827274074852466,0.0067116630004718895,0.04156359800994396
1783693549166967800,1.8319677734375,-0.08944646216928959,-0.03683799426015466,0.006426233655214309
1783693549176930800,1.841930908203125,-0.11242986287176608,-0.0304093859847635,-0.0058345513723790645
1783693549186892800,1.851892822265625,-0.10965221485197543,-0.012448197358474135,0.018569675913453102
1783693549196855800,1.861855712890625,-0.07104045238494873,0.027883228508010505,0.03987374522686005
1783693549206818800,1.87181884765625,-0.04450549668073654,0.035973047993890936,0.06778758806884289
1783693549216780800,1.88178076171875,0.054582069537043566,0.02310403140746057,0.0962602338373661
1783693549226744000,1.891744140625,0.08240414244234562,0.007986139915697276,0.08141513140499591
1783693549236706800,1.901706787109375,0.04714870466589927,-0.012156813196465372,0.06372106928229332
1783693549246668800,1.911668701171875,0.022835516664385793,-0.0040289267225191,0.05834259111434221
1783693549256631800,1.9216318359375,-0.011951134556531906,0.006430106112733483,0.05028364169076085
1783693549266594000,1.931593994140625,-0.06989946565628051,0.058577641979232424,0.07558423329442739
1783693549276556800,1.941556884765625,-0.11257073264718055,0.05935147589594125,0.07455167537629603
1783693549286519800,1.951519775390625,-0.10531330886483192,0.041541970700025556,0.05133768078833818
1783693549296481800,1.961481689453125,-0.08177168975770473,0.01663998649250716,0.045656566412001845
1783693549306444800,1.97144482421875,-0.07090133617520332,-0.036188261647149916,0.01924172995612025
1783693549316407800,1.98140771484375,-0.008348726150393485,-0.05266684703286737,-0.020344722761958835
1783693549326369800,1.991369873046875,0.07165887654423714,-0.039406602639146145,-0.0022713059328496456
1783693549336332800,2.001332763671875,0.05712766236662865,-0.0003091755470260978,0.017066285613179206
1783693549346295800,2.0112958984375,-0.010373509976267814,0.05588160782828927,0.035068536902219054
1783693549356257800,2.0212578125,-0.054009238085150714,0.048053800279460844,0.01614887850731611
1783693549366220800,2.031220703125,-0.03514613218307495,0.0261590350639075,0.018554916735738516
1783693549376183800,2.041183837890625,0.01667056429386139,-0.006855491917952895,0.044376609604060646
1783693549386145500,2.0511455078125,0.030700843212008475,0.010300919664092361,0.04354220460653305
1783693549396108500,2.061108642578125,0.028587796580791473,0.0011417539136484266,0.07467807823494076
1783693549406071600,2.071071533203125,-0.020305705925822256,0.02611048321444541,0.06714286042451859
1783693549416033800,2.08103369140625,-0.11679624138772488,0.06775036133099346,0.0611610095359385
1783693549425996800,2.090996826171875,-0.19446458747982978,0.09617982554491608,0.0601632306702435
1783693549435959800,2.100959716796875,-0.2436293081432581,0.09735760062001644,0.02543897716104984
1783693549445921500,2.110921630859375,-0.2032388455659151,0.02358706568405032,0.005723053821921348
1783693549455884800,2.120884765625,-0.1516997969865799,-0.03114084206447005,-0.03897138955965638
1783693549465847800,2.130847900390625,-0.06606909371316433,-0.07615925670340656,-0.07425795312672853
1783693549475809800,2.140809814453125,-0.04959726686179638,-0.07714355503302067,-0.06420081562325358
1783693549485772500,2.1507724609375,-0.02660626737475395,-0.03170501528587192,-0.10050371662601829
1783693549495735600,2.160735595703125,0.002669511470198631,-0.030131884217634797,-0.10799465690329671
1783693549505697800,2.17069775390625,0.0187222361266613,0.009928360024653374,-0.08882365409582853
1783693549515660800,2.180660888671875,-0.01118365731537342,0.034117556320317086,-0.09576426701396704
1783693549525623800,2.190623779296875,-0.04050561338961124,0.02498356154374778,-0.11043225931376219
1783693549535585500,2.20058544921875,-0.017068039178848266,0.04096124820262193,-0.11002718564420938
1783693549545548800,2.210548828125,0.004030278429389,0.018786533534526823,-0.08855959633216261
1783693549555511800,2.22051171875,0.005693243205547332,0.0042857875604182475,-0.07408814951777458
1783693549565473800,2.230473876953125,0.030185879427194594,-0.03726889649070799,-0.06799889273196458
1783693549575436500,2.2404365234375,0.09042787442207335,-0.045309762268327176,-0.044903117696195836
1783693549585399600,2.250399658203125,0.058113166272640224,-0.018535152589343486,-0.031204993341863153
1783693549595361800,2.26036181640625,-0.0051630818516016,-0.042060624279268086,-0.0334216464780271
1783693549605324800,2.27032470703125,-0.03698445352613926,-0.05159278806056827,-0.06424611606970429
1783693549615287800,2.280287841796875,-0.022342180189490315,-0.041574192469194526,-0.03725640233531594
1783693549625249500,2.29024951171875,0.004480944806337356,-0.056348750416003165,-0.01293254680931568
1783693549635212500,2.300212646484375,-0.008891162464022636,-0.04216178309880197,-0.033553894555568696
1783693549645175800,2.31017578125,-0.04555062181949615,-0.02447053398769349,-0.03448956797048449
1783693549655137800,2.3201376953125,-0.04925298346877098,-0.02021828337069601,-0.022613690607249735
1783693549665100800,2.330100830078125,-0.047077977517247196,-0.0010565963808447122,0.004707739299535751
1783693549675063600,2.3400634765625,-0.05794774657785892,0.04460365982558578,0.03917655674293637
1783693549685025800,2.35002587890625,-0.05556815796494484,0.04865154697690159,0.02383388005197048
1783693549694988800,2.35998876953125,-0.05512450585067272,0.03597038111276924,0.030260405968129633
1783693549704951800,2.369951904296875,-0.049638767915964124,0.02797514457516372,-0.0009574468553066253
1783693549714913500,2.37991357421875,-0.05489829587936401,0.009923281990736723,-0.02571487149298191
1783693549724876500,2.38987646484375,-0.04355389504432678,-0.019688523875549434,-0.038522622878849506
1783693549734839600,2.399839599609375,-0.02092646817266941,-0.03394965240750462,-0.036234073550254105
1783693549744801800,2.4098017578125,0.013666121780872344,-0.0340602731751278,-0.021582155602425334
1783693549754764800,2.419764892578125,0.02417816344499588,-0.0372426295382902,-0.023308394873142242
1783693549764727600,2.4297275390625,0.027609891459345816,-0.02307352667134255,0.01522898718342185
1783693549774689800,2.439689697265625,-0.01712882945537567,-0.007321282798796892,0.026670272521674632
1783693549784652800,2.44965283203125,-0.05165887556672096,-0.027687377142347393,0.027616759591549633
1783693549794615800,2.45961572265625,-0.10572890392839908,-0.02080784676168114,0.056594140011817215
1783693549804577500,2.46957763671875,-0.1484317351013422,-0.018267806890048085,0.045657443194836375
1783693549814540500,2.47954052734375,-0.18633681060373783,-0.036095468797162175,0.03081058719679713
1783693549824503600,2.489503662109375,-0.19122399812340735,-0.06785637898873538,-0.002559767485409975
1783693549834465800,2.4994658203125,-0.18670622843801973,-0.08234002769757062,0.01211933073028922
1783693549844428800,2.5094287109375,-0.14390753567516804,-0.08292944495808333,0.0025086218200623986
1783693549854391800,2.519391845703125,-0.09515841007530688,-0.09177464938852936,-0.012861235138773918
1783693549864353500,2.529353515625,-0.028813422030210492,-0.07418105196561664,0.02454597384408116
1783693549874316800,2.53931689453125,0.0071586395829916,-0.05825991779956966,0.03199000623971224
1783693549884279800,2.54927978515625,-0.015022212564945221,-0.02875770978759974,0.02461319386139512
1783693549894241800,2.55924169921875,-0.038057635715603826,0.0019912468824535606,0.029916853227466345
1783693549904204500,2.56920458984375,-0.04152385052144527,0.011074169058911502,0.034399843860417605
1783693549914167600,2.57916748046875,-0.054964346852898596,0.01956825849674642,0.01993658035248518
1783693549924129800,2.5891298828125,-0.07989128283858299,0.025212109602615235,-0.00010828268006443977
1783693549934092800,2.5990927734375,-0.06991232513785361,0.011592311181500553,-0.0015055822573602198
1783693549944055800,2.609055908203125,0.0027817396730184553,-0.017432561642304063,-0.013246142803132533
1783693549954017500,2.619017578125,0.07051730529367924,-0.02174907313454896,-0.04248524289950728
1783693549963980800,2.628980712890625,0.13638941513001918,-0.00699270843155682,-0.01841521600410342
1783693549973943800,2.63894384765625,0.12298808176517485,-0.011858853163197637,-0.01582198464050889
1783693549983905800,2.64890576171875,0.03653495619297027,-0.013507752881385384,-0.03731558517664671
1783693549993868500,2.65886865234375,-0.06080839670598506,0.014684687706269323,-0.0348008258767426
1783693550003831600,2.66883154296875,-0.12480536032021045,0.036215040056221184,-0.03287307268455624
1783693550013793800,2.678793701171875,-0.15097498984336852,0.003153933986276388,-0.04747516014128923
1783693550023756800,2.6887568359375,-0.12806406985521315,-0.020675635216757655,-0.01752104364335537
1783693550033719800,2.6987197265625,-0.08961538899540901,-0.0155432407643646,-0.007545300813019276
1783693550043681500,2.708681640625,-0.03876549172401428,-0.01281567896399647,0.003354278863966465
1783693550053644500,2.71864453125,0.0016267244189977644,-0.0016350538559257984,0.05741407809257507
1783693550063607800,2.72860791015625,0.04157704201340675,0.015276369989104569,0.09921455359831452
1783693550073569800,2.73856982421875,0.005331424155831337,0.030443580515310167,0.09068594083636998
1783693550083532800,2.74853271484375,-0.06581658025681972,0.05286291759423911,0.11343261017352342
1783693550093495600,2.75849560546875,-0.07957564101815223,0.052275948019139463,0.11000950385704636
1783693550103457800,2.768457763671875,-0.0727887573570013,0.012415537197887896,0.11828092698752879
1783693550113420800,2.7784208984375,-0.029993571725487708,0.00017689093686640262,0.09731500358730553
1783693550123383800,2.7883837890625,-0.04120119443833828,-0.017644304696843027,0.07823913171738385
1783693550133345500,2.798345458984375,-0.11091127500236034,0.0053104544330388305,0.023363778322190044
1783693550143308500,2.80830859375,-0.13669512007832527,0.015015928954631089,0.0068101184062659735
1783693550153271600,2.818271484375,-0.15134966837465763,0.01842157267965376,-0.04022401996925473
1783693550163233800,2.82823388671875,-0.12042495327889918,0.022322196847386656,-0.03623392741978168
1783693550173196800,2.83819677734375,-0.07772329114973545,0.04226279578786343,-0.017227759785205125
1783693550183159600,2.84815966796875,0.04908873281776905,0.04821651656050235,0.016412644010037183
1783693550193121800,2.858121826171875,0.13252864804863929,0.04164144901912659,0.039870238095521926
1783693550203084800,2.868084716796875,0.16281974141597746,-0.0039652869017794724,0.04117518321424722
1783693550213047800,2.8780478515625,0.1265408058106899,-0.031867658501677214,0.030708880387991664
1783693550223009500,2.888009521484375,0.07447744109630584,-0.02298716356214136,0.02563946816921234
1783693550232972500,2.89797265625,0.0014753332495689392,-0.05484506785478443,0.03007803513854742
1783693550242935600,2.907935546875,-0.02921265048086643,-0.05048026024140417,0.010363280843198298
1783693550252897800,2.917897705078125,-0.05007832837700844,-0.07293897948265075,0.006774900962412357
1783693550262860800,2.92786083984375,-0.0724058955192566,-0.05804868620168417,0.009318301834911108
1783693550272823800,2.93782373046875,-0.14586743757128715,-0.03036090720053762,0.04035846000388264
1783693550282785500,2.94778564453125,-0.23919395604431629,-0.025928258515335617,0.04185673573762178
1783693550292748800,2.957748779296875,-0.2697533449590206,-0.014682532281801103,0.055762511493265624
1783693550302711800,2.9677119140625,-0.27936814552247524,-0.007203793898969888,0.04620835507586598
1783693550312673800,2.977673828125,-0.2529647072434425,-0.04547452437598258,0.031358138076961035
1783693550322636500,2.987636474609375,-0.18163082486987112,-0.06409406731314957,0.030625439888238903
1783693550332599600,2.997599609375,-0.12327683557868004,-0.059981298232078546,0.02187090941593051
1783693550342561800,3.007561767578125,-0.0927051717042923,-0.04001582057867199,-0.0013303718209266662
1783693550352524800,3.01752490234375,-0.08165478537976742,-0.01860606240108609,0.035665333751589055
1783693550362487800,3.02748779296875,-0.06856383313834667,0.006238894389569759,0.03864347277954221
1783693550372449500,3.037449462890625,-0.049861470755934716,0.019356369311735032,0.0025748189240694043
1783693550382412800,3.047412841796875,-0.0063625207692384715,0.025582696480676532,-0.004597118531912565
1783693550392375800,3.057375732421875,0.02539981419444084,0.03358403396550566,-0.006493015281111001
1783693550402337500,3.067337646484375,0.040645314121246334,0.03129347534291446,-0.008812836530804634
1783693550412300500,3.077300537109375,0.08003799783289432,0.04246514995954931,-0.02845715593844652
1783693550422263600,3.087263671875,0.11811959894597529,0.03479417694024742,-0.022525135540962218
1783693550432225800,3.097225830078125,0.1777986993610859,0.014151092286221682,-0.04368658151328563
1783693550442188500,3.1071884765625,0.18156068224310873,0.0039594782155007125,-0.06117211545184254
1783693550452151600,3.117151611328125,0.1190039805650711,0.009756327925994991,-0.047633419442921876
1783693550462113500,3.127113525390625,0.02864917137920856,0.03571099952422082,-0.04531608241125941
1783693550472076500,3.13707666015625,-0.03364332640469074,0.034248598821461196,-0.035551644244045014
1783693550482039800,3.147039794921875,-0.0683142422914505,0.059672414945997294,-0.0018831833980977534
1783693550492001500,3.15700146484375,-0.10260463442802428,0.05761566507928073,0.023027970496565103
1783693550501964500,3.166964599609375,-0.10241875646710395,0.0422747419539839,0.023537965845316648
1783693550511927600,3.176927490234375,-0.0643581981420517,0.04582355700936168,0.03094634240567684
1783693550521889800,3.186889892578125,-0.04398118054568767,0.0515923131365329,0.05017477448880672
1783693550531852800,3.196852783203125,0.017477204501628874,0.026226364679075777,0.07182093523815274
1783693550541815600,3.206815673828125,0.05451017334461212,0.030712241388857364,0.10206570524573326
1783693550551777500,3.216777587890625,0.02971709287166595,0.07306560153700412,0.12611702744066713
1783693550561740500,3.226740478515625,-0.03387830420434475,0.08986870616935193,0.12190671626925467
1783693550571703600,3.23670361328125,-0.04160802167356014,0.07603687243275344,0.08588160929456352
1783693550581665500,3.24666552734375,-0.01757540417909622,0.043224882285669446,0.05615092628896236
1783693550591628500,3.256628662109375,-0.0143564421325922,0.007935140380822122,0.030493191810697314
1783693550601591600,3.266591552734375,-0.023660861572623253,0.0001134703118354082,-0.016891221307218075
1783693550611553800,3.2765537109375,-0.020609072786569593,-0.016344620275124906,-0.03966638608649373
1783693550621516800,3.286516845703125,-0.017716858476400376,-0.01577061977945268,-0.040812195120751855
1783693550631479600,3.2964794921875,-0.013095628416538238,-0.029815438679605722,-0.042243104706704615
1783693550641441500,3.306441650390625,-0.007675941455364227,-0.05507536947932094,-0.06624532706290483
1783693550651404500,3.316404541015625,-0.0013069909453392028,-0.05548380414973944,-0.05389920183941722
1783693550661367600,3.326367431640625,-0.018135960671305656,-0.036040596804767844,-0.013301964643597602
1783693550671329500,3.33632958984375,-0.09999708227813243,-0.02199541257843375,0.009845248318463564
1783693550681292500,3.34629248046875,-0.1839057840645313,0.01417754190173,0.08245090419352054
1783693550691255600,3.356255615234375,-0.14561492411494253,0.04689465683959424,0.12634440645575523
1783693550701217500,3.366217529296875,-0.10000117393136024,0.032608028540201485,0.15350217023342846
1783693550711180800,3.376180908203125,-0.061325114056468004,0.0023266893818974493,0.1530783918634057
1783693550721143800,3.386143798828125,-0.0007066869646310806,-0.018589001668430864,0.16022928653135896
1783693550731105500,3.39610546875,0.05400514643192291,-0.032758506394177676,0.15201879980787633
1783693550741068500,3.406068603515625,0.01659282288253307,0.00347151203546673,0.12101809686645865
1783693550751031600,3.416031494140625,-0.07076631161868571,0.037179428108967835,0.11301833028420805
1783693550760993800,3.425993896484375,-0.1529933439284563,0.07506525092162192,0.07734685905277729
1783693550770956500,3.43595654296875,-0.20680150648355483,0.06390227106809615,0.00909121508076787
1783693550780919600,3.44591943359375,-0.18992928213775156,0.04755008854102343,-0.044937458357214924
1783693550790881500,3.455881591796875,-0.11697627412974834,0.023925869184359908,-0.08869710510671139
1783693550800844500,3.465844482421875,-0.07021569199860096,0.008176219127699733,-0.1046354096032679
1783693550810807800,3.475807861328125,-0.004519523251056671,-0.00757456344012171,-0.11867752508968114
1783693550820769500,3.48576953125,0.08761457056701183,-0.052993704367056485,-0.12244374575540423
1783693550830732500,3.495732666015625,0.08959551525115966,-0.06050729486756026,-0.125562462297827
1783693550840695600,3.505695556640625,0.03205167329907417,-0.042377325545623894,-0.07186945055499673
1783693550850657800,3.51565771484375,0.01733458116054535,-0.031763504007458684,-0.0510515573233366
1783693550860620500,3.52562060546875,0.048422962385416025,-0.024311215240135787,0.002709112828224897
1783693550870583600,3.53558349609375,0.05243044446110725,0.007819806905463337,0.015818039117753504
1783693550880545500,3.545545654296875,0.0366992068439722,0.02300824288278818,0.044964346364140505
1783693550890508500,3.555508544921875,0.022395956203341484,0.016805333122052252,0.06594649024680256
1783693550900471800,3.565471923828125,0.031229835522174832,-0.00813833480272442,0.07228256140053271
1783693550910433500,3.57543359375,0.03965396499633789,-0.0385597400188446,0.07856938658505677
1783693550920396500,3.585396484375,-0.0002934299886226654,-0.042619061879627405,0.09245967251062392
1783693550930359600,3.595359619140625,-0.050752866637706756,-0.024745405406318602,0.11186857572719454
1783693550940321800,3.60532177734375,-0.08877309295237064,-0.00909702376704663,0.09519991112947464
1783693550950284800,3.615284912109375,-0.09273615136444568,-0.0011348127162083984,0.08340294422134757
1783693550960247600,3.62524755859375,-0.03198912945687771,0.009390855614468455,0.029306904635578394
1783693550970209500,3.63520947265625,0.026571196061372756,-0.023918635725975034,0.014431260934472083
1783693550980172500,3.645172607421875,0.039218496188521385,-0.017710647931322453,0.004294920714944601
1783693550990135600,3.655135498046875,-0.014629413855075836,-0.014844883236661553,-0.008802315136790275
1783693551000097500,3.66509765625,-0.10770458791553973,0.024185506501235066,-0.0236794201426208
1783693551010060500,3.675060546875,-0.17251929765343665,0.015674977385252715,-0.031709143471717834
1783693551020023600,3.6850234375,-0.1860334437429905,0.022627244208566842,-0.0741132839590311
1783693551029985800,3.69498583984375,-0.19081424827873705,-0.01359879216570407,-0.09192337367683648
1783693551039948800,3.70494873046875,-0.17489304104745387,-0.011175985465571284,-0.08451704294309019
1783693551049911600,3.71491162109375,-0.09978197822272777,0.012273936770111321,-0.02427154081687331
1783693551059873500,3.72487353515625,-0.026573534148931502,0.010221607350185513,0.03201923233419657
1783693551069836500,3.73483642578125,0.0012029460489749908,-0.0029938115211203694,0.07611161816939711
1783693551079799600,3.744799560546875,-0.0056575873702764505,-0.03155234547480941,0.08489522860571741
1783693551089761800,3.75476171875,-0.04396422941088676,-0.035471089821122584,0.043029578909277916
1783693551099724500,3.764724609375,-0.09576163666546345,-0.020504991357587276,0.06939663070067763
1783693551109687600,3.7746875,-0.11367606354057788,0.029311398147605357,0.08231310315802692
1783693551119649500,3.7846494140625,-0.16215104837417602,0.0610536767039448,0.0919059841506183
1783693551129612800,3.79461279296875,-0.19324936647117136,0.09521788517758249,0.10401625479161739
1783693551139575800,3.804575927734375,-0.16096446893811225,0.11382460516579448,0.1136120583936572
1783693551149538600,3.81453857421875,-0.07397066061794758,0.06171210408005863,0.10021949285715819
1783693551159500500,3.82450048828125,0.0510907202899456,0.020077450127899646,0.0917519626326859
1783693551169463600,3.834463623046875,0.1584708985567093,0.00691946053225547,0.09999547484293579
1783693551179426600,3.844426513671875,0.24449732314944267,-0.010135536501929164,0.08333060963749885
1783693551189388500,3.854388427734375,0.3011427549570799,-0.003304777166433632,0.07171718260273337
1783693551199351600,3.8643515625,0.270392227384448,-0.01271240125261247,0.04435848942548036
1783693551209314600,3.874314453125,0.1722515866279602,0.0008466434245929122,0.040005847173929215
1783693551219276500,3.884276611328125,0.0967348656117916,0.07319733815789223,-0.01830488749742508
1783693551229239800,3.89423974609375,0.06395312447249889,0.024293643050827086,-0.09374985845163464
1783693551239202600,3.90420263671875,0.04368307438194752,-0.010384871620498597,-0.14772957818135618
1783693551249164500,3.91416455078125,0.006772270613908767,-0.022971673732064664,-0.20107932944446802
1783693551259127600,3.92412744140625,0.0015682722300291061,-0.03442961794417351,-0.16078370554372667
1783693551269090600,3.934090576171875,-0.014663316124677658,0.00026120821945369244,-0.1382042094670236
1783693551279052500,3.944052490234375,-0.03032499563694,-0.0109674938140437,-0.12256123465523124
1783693551289015600,3.954015625,-0.0930406872689724,0.019433745396882293,-0.06103504506871104
1783693551298978600,3.963978515625,-0.18125556181669233,0.05053487650547176,-0.008798223483562469
1783693551308940500,3.9739404296875,-0.25534604942202566,0.04291154202017933,-0.02119724793806672
1783693551318903800,3.98390380859375,-0.26772563852369785,0.0487002449568361,-0.01322451549321413
1783693551328866800,3.99386669921875,-0.21467676990330217,0.022857472767867145,0.00021598083823919296
1783693551338828500,4.00382861328125,-0.12956862919926643,-0.027711013746261594,-0.004221563217788935
1783693551348791600,4.01379150390625,-0.06278232712745666,-0.055292592426575714,0.02044175339564681
1783693551358754600,4.023754638671875,-0.07232640054225921,-0.039529023442417384,0.0327944544903934
1783693551368716800,4.033716796875,-0.0933668504834175,-0.03373378116711974,0.023695056103169916
1783693551378679800,4.0436796875,-0.14639467631578446,-0.030722360924072562,-0.004876227734237909
1783693551388642800,4.053642822265625,-0.17684417511522768,-0.03363612947892398,-0.027898499142378567
1783693551398604500,4.0636044921875,-0.15665303547978401,-0.03307352716010064,-0.05236015570387244
1783693551408567600,4.073567626953125,-0.11250818880498409,-0.03205068691838533,-0.035690760453790424
1783693551418530800,4.08353076171875,-0.04241524640321731,-0.01040364938620478,-0.02349471122547984
1783693551428492800,4.093492919921875,-0.057092006531357764,0.02996960632801056,0.0039035833097994326
1783693551438455800,4.103455810546875,-0.07239128247201443,0.07250047846753149,0.011920301026850938
1783693551448418800,4.113418701171875,-0.057362055644392965,0.07369622759073972,0.004146306024491787
1783693551458380800,4.123380859375,-0.015775076758861542,0.052722595808096226,0.011707827319949864
1783693551468343800,4.13334375,0.035350130322575564,0.024618710286729035,-0.02638064192533493
1783693551478306800,4.143306884765625,0.022500585621595383,-0.01352499627713114,-0.05865691776052117
1783693551488268800,4.153268798828125,0.051827217870950695,-0.03255596955940127,-0.06019084932953119
1783693551498231600,4.1632314453125,0.12782850753366948,-0.02677241772189736,0.01208469780832529
1783693551508194600,4.173194580078125,0.08589432264566421,-0.03138400317057967,0.028480390683561563
1783693551518156800,4.18315673828125,0.002205401089787483,0.010820048167370259,0.028346389040350913
1783693551528119800,4.193119873046875,-0.07072948673963546,0.003760192783735692,0.04224690409898758
1783693551538082800,4.203082763671875,-0.08088263196349144,-0.011744871394708752,0.017646861980110406
1783693551548044800,4.213044921875,-0.045942251485586165,-0.019349976103566587,0.028673282907158135
1783693551558007800,4.2230078125,-0.0836906751215458,-0.001365589264780283,0.04999269592016935
1783693551567970800,4.232970703125,-0.14550211139023303,0.008308284542150796,0.05427344197928905
1783693551577932800,4.242932861328125,-0.15883037951886653,0.01557476841378957,0.06160948395580053
1783693551587895600,4.2528955078125,-0.16730302430987357,0.007359934308752417,0.08305676113218069
1783693551597858600,4.262858642578125,-0.1705477053195238,-0.0059996422735974185,0.0970487538665533
1783693551607820800,4.27282080078125,-0.1447802268564701,0.007394055774062871,0.0985603274732828
1783693551617783800,4.28278369140625,-0.13247136490345002,0.0029165085012093184,0.10439049493148922
1783693551627746800,4.292746826171875,-0.08130641033351421,-0.0065237392129376525,0.08910130199342965
1783693551637708500,4.30270849609375,-0.047862405893206596,-0.02213595356028527,0.08373582943752407
1783693551647671800,4.312671875,-0.08624854291081428,-0.001920702396892011,0.08393588205426931
1783693551657634800,4.322634765625,-0.10789514205157756,-0.004345153064839542,0.0736832219786942
1783693551667596800,4.3325966796875,-0.08496610188484191,-0.017771182479523123,0.03493146651908755
1783693551677559800,4.342559814453125,-0.0713163467168808,-0.02968998566903174,0.02808949166983366
1783693551687522600,4.3525224609375,-0.049990650093555446,-0.023317601092904806,0.018935148224979638
1783693551697484800,4.36248486328125,-0.02259703173339367,-0.03565839255414903,-0.013198358138650656
1783693551707447800,4.37244775390625,0.01722936722040176,-0.022799678166024386,0.0009134615831077099
1783693551717410800,4.382410888671875,0.025115152034163472,-0.035407815326564014,0.0017488894939422606
1783693551727372500,4.39237255859375,0.022149287965893744,-0.009757058578357099,0.00888531724512577
1783693551737335800,4.402335693359375,0.058470309147238726,-0.017198899016901848,0.018636311408877372
1783693551747298800,4.412298828125,0.09373802188336848,-0.01866162851322442,-0.006506020893156528
1783693551757260800,4.4222607421875,0.06403261944949626,-0.010752060965076088,-0.04458265357017517
1783693551767223800,4.432223876953125,0.015521978780627249,0.013073343519493937,-0.06205386672243476
1783693551777186600,4.4421865234375,-0.033248774129152295,0.04045881510581821,-0.09062295860275625
1783693551787148800,4.452148681640625,-0.030101708275079724,0.030871450538560746,-0.09246449481621384
1783693551797111800,4.46211181640625,-0.059033203727006905,0.020985431818291544,-0.08674801686555146
1783693551807074800,4.47207470703125,-0.10263678313195705,0.03227744487896561,-0.06548647151961923
1783693551817036500,4.48203662109375,-0.1037239938467741,0.007168466857261955,-0.07192702596113085
1783693551826999600,4.49199951171875,-0.121818453463912,-0.006254749545827508,-0.04972103937193751
1783693551836962800,4.501962890625,-0.06481763234734535,-0.023130554088205097,-0.04848930561989546
1783693551846924800,4.5119248046875,-0.03556523437798023,-0.05307221296336501,-0.026211276707798242
1783693551856887800,4.5218876953125,-0.0117640875518322,-0.07606368737444281,0.002162146469950676
1783693551866850800,4.531850830078125,0.020810732838511467,-0.07589786582086235,-0.0027973756335675716
1783693551876812800,4.541812744140625,0.08498246849775314,-0.06450955277886242,0.031902620217204095
1783693551886775800,4.55177587890625,0.0879728824853897,-0.03451616371646523,0.08709872999936341
1783693551896738800,4.56173876953125,0.03598842822611332,0.04355020524989813,0.1456976339623332
1783693551906700800,4.57170068359375,-0.05003682732284069,0.09863339270949363,0.17577376940473913
1783693551916663600,4.58166357421875,-0.11745207494795322,0.0744676503546536,0.1748945023521781
1783693551926626600,4.59162646484375,-0.12844634717106818,0.04576660265773534,0.15398936922848225
1783693551936588800,4.6015888671875,-0.16003624817728995,0.013961049606837332,0.12988558619394897
1783693551946551800,4.6115517578125,-0.10346505064964294,-0.02719535584170371,0.13110709081292152
1783693551956514800,4.621514892578125,-0.06542787320017815,-0.046718058163672686,0.09166165400072931
1783693551966476800,4.631476806640625,-0.03301554989516735,-0.06815061269495636,0.12008490766957401
1783693551976439800,4.641439697265625,-0.026851766568422315,-0.051653066880442196,0.141984750919044
1783693551986402800,4.65140283203125,-0.06297814196050167,-0.032747985000163314,0.10702639639303088
1783693551996364800,4.66136474609375,-0.1409632989168167,0.014648228153400122,0.057440089316666124
1783693552006327600,4.67132763671875,-0.16967442961633206,0.04527786929272115,0.026673341261595485
1783693552016290600,4.68129052734375,-0.1838847412765026,0.05616097275894135,0.002385579962283373
1783693552026252800,4.691252685546875,-0.16333528972268105,0.0666448477745056,0.006629355011880398
1783693552036215800,4.7012158203125,-0.1178711771428585,0.06756283940225839,0.025677023700624704
1783693552046178800,4.7111787109375,-0.05202712435722351,0.0735657696114853,0.022695231410861015
1783693552056140500,4.721140625,-0.003421206620335579,0.06260021202620118,0.03879033390432596
1783693552066103800,4.731103759765625,0.02911854245662689,0.05417743425890803,0.01952230046316981
1783693552076066800,4.74106689453125,0.016104747104644775,0.042284642293490465,-0.024956308210641143
1783693552086028800,4.75102880859375,0.002591185536980629,0.06346471990104764,-0.042229806833714245
1783693552095991800,4.76099169921875,0.013020225092768668,0.06942804875224828,-0.06496434734165668
1783693552105954600,4.77095458984375,0.04477028509676456,0.03492405039761215,-0.09135872553139925
1783693552115916800,4.780916748046875,0.10570435400903225,0.020386369946599005,-0.10155600215792655
1783693552125879800,4.7908798828125,0.09400631743073463,0.001989383718930185,-0.1056533544741571
1783693552135841800,4.800841796875,0.058277416923642154,-0.019879151076823472,-0.07977744720056652
1783693552145804500,4.810804443359375,-0.05672200417518616,-0.006441212028637528,-0.0938103564672172
1783693552155767600,4.820767578125,-0.23038988734185695,-0.004980309163220227,-0.1432955412566662
1783693552165729800,4.830729736328125,-0.30064181969761844,-0.009522190376557408,-0.17576310188025235
1783693552175692800,4.84069287109375,-0.30151100374758244,-0.032555129309184846,-0.19056231934428214
1783693552185655800,4.85065576171875,-0.2532721657574177,-0.027951617569103835,-0.20841770950853825
1783693552195617800,4.86061767578125,-0.18277064255475997,-0.012618110565282404,-0.17694222866222262
1783693552205580800,4.870580810546875,-0.08124737362265587,0.003043240153416991,-0.07402984345927834
1783693552215543800,4.880543701171875,0.050664019310474394,0.003991444256342947,-0.019161212065815926
1783693552225505800,4.890505859375,0.15729191790521144,-0.01588314024321735,0.046180151894688604
1783693552235468500,4.900468505859375,0.1899368809223175,-0.03062021572384983,0.07453443198055028
1783693552245431600,4.910431640625,0.1718459284365177,-0.040815190795436496,0.08493731418177485
1783693552255393800,4.920393798828125,0.15259119286835193,-0.02589534262642264,0.11168956589847802
1783693552265356800,4.930356689453125,0.12807225316166876,0.0005809416931122541,0.11581979757100343
1783693552275319800,4.94031982421875,0.095367084389925,0.015432948790304362,0.14568579739406703
1783693552285281500,4.950281494140625,0.09213234025239944,0.02552888393420726,0.15088672703802586
1783693552295244800,4.960244873046875,0.05492226127684116,0.0461835128955543,0.12027473115324973
1783693552305207800,4.970207763671875,-0.004905892220139503,0.022978103472851216,0.10594254667907953
1783693552315169800,4.980169677734375,-0.0379804788261652,-0.0012832812761887906,0.03736307758018374
1783693552325132800,4.9901328125,-0.10019114354550838,-0.01474704888537526,-0.026763211502134798
1783693552335095600,5.000095458984375,-0.1622650301426649,-0.04529650092795491,-0.06968421547040343
1783693552345057800,5.010057861328125,-0.13276011871695517,-0.05342186665125191,-0.07365574944987893
1783693552355020800,5.020020751953125,-0.16351356889903546,-0.034807255617529155,-0.0716026163123548
1783693552364983800,5.02998388671875,-0.17337854483127593,-0.032172559732384975,-0.04066840273588895
1783693552374945500,5.039945556640625,-0.1267903966575861,-0.016870361182279883,-0.001618687243014574
1783693552384908800,5.04990869140625,-0.056364861300587654,-0.030482670416682955,0.03290843625888228
1783693552394871800,5.059871826171875,-0.008216624203324318,-0.05649433289915323,0.06730550364032388
1783693552404833800,5.069833740234375,0.05365735590755939,-0.053606137176975606,0.08189107835367322
1783693552414796500,5.079796630859375,0.10003449167907237,-0.06478340128418057,0.07295081605091691
1783693552424759600,5.089759521484375,0.08398410511016845,-0.047001770475879306,0.07421294494122266
1783693552434721800,5.0997216796875,0.07990881849527358,-0.006527794333547354,0.11196604475229978
1783693552444684800,5.109684814453125,0.05699556041955948,0.027446334928087887,0.13964242557659745
1783693552454647800,5.119647705078125,0.07022095269560813,0.04111234711110592,0.18318521470502017
1783693552464609500,5.129609619140625,0.07767243774533271,0.045323717728443444,0.1712362721055746
1783693552474572500,5.139572509765625,0.05561375067234039,0.08046970378104597,0.18150179166272282
1783693552484535800,5.149535888671875,0.08840952033698558,0.14339797871783375,0.19149740823730826
1783693552494497800,5.159497802734375,0.10819032560586929,0.1600616018142551,0.14895926610678434
1783693552504460800,5.169460693359375,0.07886369335651397,0.1435165270635858,0.07519874110817909
1783693552514423600,5.179423583984375,0.0011965163081884384,0.11451521777845919,0.024223463891446587
1783693552524385800,5.1893857421875,-0.09810381587743759,0.10346526984535157,-0.04870791680663824
1783693552534348800,5.199348876953125,-0.15183131441175937,0.0573481367168948,-0.10725172958150506
1783693552544311800,5.209311767578125,-0.17892858017385005,0.035398316845856606,-0.18102774441018699
1783693552554273500,5.2192734375,-0.20732465357482432,0.040081433160789305,-0.18623685736060142
1783693552564236500,5.229236572265625,-0.2003197432488203,0.04347187931668013,-0.18834449716433882
1783693552574199600,5.239199462890625,-0.1758808830410242,0.040185222328826785,-0.17774857660904525
1783693552584161800,5.249161865234375,-0.15861995163857937,0.051133828779309984,-0.11780015773326158
1783693552594124800,5.259124755859375,-0.14278583816885948,0.04286781247630715,-0.09601415012180804
1783693552604087600,5.269087646484375,-0.10380816499888897,0.0066610653243958946,-0.03374561773538589
1783693552614049800,5.2790498046875,-0.03620996202230453,-0.053651364558190105,0.006954641443490982
1783693552624012800,5.2890126953125,0.01576338632106781,-0.11104889337476342,0.009135200352966786
1783693552633975800,5.298975830078125,0.053636897641420364,-0.16280951228290796,0.04120484770014882
1783693552643937500,5.3089375,0.07776771481335162,-0.1632547352997586,0.06068886197954416
1783693552653900500,5.318900634765625,0.06875497179627418,-0.15189608674366026,0.12999065400362014
1783693552663863600,5.328863525390625,0.006494622716307639,-0.11049549727570265,0.15692454589754343
1783693552673825800,5.33882568359375,-0.045130350580811496,-0.08724529886320233,0.18549992138817906
1783693552683788800,5.348788818359375,-0.05937865616381168,-0.10323431063368915,0.17696473275497554
1783693552693751800,5.358751708984375,-0.031603929531574246,-0.10756379120536148,0.15244491626545786
1783693552703713500,5.368713623046875,-0.016056231787800787,-0.08042436680197715,0.14255012971684336
1783693552713676800,5.3786767578125,-0.0387386037170887,-0.0762168686421588,0.1514446531817317
1783693552723638800,5.388638671875,-0.11289806490540504,-0.027266850175336,0.12849603153169153
1783693552733601800,5.398601806640625,-0.2250117014348507,0.013034765074774622,0.1117461183913052
1783693552743564500,5.408564453125,-0.25442308935821056,0.04531056598592549,0.08910802399516105
1783693552753526800,5.41852685546875,-0.21541385200619698,0.0229368216143921,0.06178732474073767
1783693552763489800,5.42848974609375,-0.14483166478276252,0.006661394117958843,0.037839024528861044
1783693552773452800,5.438452880859375,-0.07847381725609302,-0.015226977889426051,0.015652181031554937
1783693552783414500,5.44841455078125,-0.026304654079675673,-0.009026917672902346,0.000022357962280511855
1783693552793377500,5.45837744140625,-0.032305940321087835,0.044598143400251866,-0.02673413153812289
1783693552803340800,5.4683408203125,-0.08043196558654307,0.08128193347938359,-0.007091857957094908
1783693552813302800,5.478302734375,-0.09863573079705237,0.09242854671999812,-0.016961363933980463
1783693552823265800,5.488265869140625,-0.07396189278960227,0.08035188608765602,-0.01676847171038389
1783693552833228500,5.498228515625,-0.04671557394564151,0.058029871903359884,-0.02355886250287294
1783693552843190800,5.508190673828125,0.035306291180849075,0.04261745444443077,-0.019031740467250344
1783693552853153800,5.51815380859375,0.0636649551808834,0.039761297828331585,0.01094035007879138
1783693552863116800,5.52811669921875,0.03721007897555828,0.015740224641188977,0.01963306736126542
1783693552873078500,5.53807861328125,0.0044447044491767885,-0.0023727935459464788,0.011175766269862651
1783693552883041500,5.54804150390625,-0.01616203024983406,-0.0420310693912208,0.00035918870121240615
1783693552893004500,5.558004638671875,0.001561257967352867,-0.06031363545898348,-0.012471359038352966
1783693552902966800,5.567966796875,0.06186462776064872,-0.06264463568981736,0.011154723481833934
1783693552912929800,5.5779296875,0.13534428999125955,-0.04908131669629365,0.047883740942180154
1783693552922892800,5.587892822265625,0.18882453576624392,-0.02651431477498263,0.08342296409606934
1783693552932854500,5.5978544921875,0.16330372554063796,-0.008276829957962036,0.07575140655487775
1783693552942817800,5.60781787109375,0.1380307525962591,0.010186061112768947,0.10461407455429435
1783693552952780800,5.61778076171875,0.05218552978932857,0.015053959410078822,0.07088540795370936
1783693552962742800,5.62774267578125,-0.05756313117444515,0.0030757541835308073,0.02516454413384199
1783693552972705500,5.63770556640625,-0.14587211374640463,-0.010353088242746888,0.0027568974927067755
1783693552982668500,5.64766845703125,-0.18472236114442347,-0.018199965818226336,-0.056463060978054994
1783693552992630800,5.657630859375,-0.23315350683629513,-0.01211567746847868,-0.0408854064874351
1783693553002593800,5.66759375,-0.303514744785428,-0.014776640306040643,-0.017370090865343808
1783693553012556800,5.677556884765625,-0.31503391766548156,0.01707739152908325,-0.011200754580646753
1783693553022518500,5.6875185546875,-0.28826164607405663,0.010033208638615905,-0.029937457624077794
1783693553032481800,5.697481689453125,-0.2249497421145439,-0.0029810251047834753,-0.01996580644696951
1783693553042444800,5.70744482421875,-0.18179566004276274,0.028732210020162165,-0.030957594452053306
1783693553052406800,5.71740673828125,-0.11206395216882228,0.04454392899498343,0.02158975438699126
1783693553062369500,5.72736962890625,-0.03641454468369484,0.032159663718193766,0.048588674341142175
1783693553072331800,5.737331787109375,0.0011328034222126005,0.0488028650810942,0.06274228737801313
1783693553082294800,5.747294677734375,-0.020208675292134284,0.09736501674149185,0.08635492589473724
1783693553092257800,5.7572578125,0.006427402698993683,0.1029537401266396,0.07635887092873454
1783693553102220800,5.767220703125,0.07413783387839794,0.055403468922525644,0.03309913652539253
1783693553112182500,5.7771826171875,0.1753629966467619,0.004685089076310396,-0.0018017887249588964
1783693553122145500,5.7871455078125,0.1672837350875139,-0.07480846314895898,-0.06488222201615572
1783693553132107800,5.797107666015625,0.14287059384286402,-0.10931096366625279,-0.09030249447673559
1783693553142070800,5.80707080078125,0.1000076036721468,-0.12410444550924002,-0.10316621383354067
1783693553152033800,5.81703369140625,0.04897475104928017,-0.11343593464177101,-0.12675240273475646
1783693553161995800,5.826995849609375,-0.01999064862728119,-0.12113792385384439,-0.10533668974041938
1783693553171958800,5.836958740234375,-0.034117958179116246,-0.10613646181598305,-0.09077186555415391
1783693553181921800,5.846921875,-0.06691314332187176,-0.09461878677327186,-0.0743292647972703
1783693553191883800,5.8568837890625,-0.07601940984129905,-0.06857599850017577,-0.057500587332248686
1783693553201846500,5.866846435546875,-0.10437456670999526,-0.002289754904992878,-0.019659370846301316
1783693553211809500,5.8768095703125,-0.1745084256440401,0.0065915802847594015,0.024969459953159093
1783693553221771800,5.886771728515625,-0.19115677810609338,0.01391647981274873,0.03635243923291564
1783693553231734800,5.89673486328125,-0.2023620627313852,0.008786240784823894,0.06426613594442605
1783693553241697800,5.90669775390625,-0.19015666115283966,0.010974435011483728,0.06267872062250972
1783693553251659500,5.916659423828125,-0.14617197347581384,0.014029475200548766,0.08853402349948883
1783693553261622800,5.926622802734375,-0.07350479667186736,0.022339111449569463,0.11205211560055613
1783693553271585800,5.936585693359375,-0.023598902252316475,0.04766162262409925,0.0950274771720171
1783693553281547800,5.9465478515625,-0.01994037974476814,0.053759793368726966,0.06097556996643543
1783693553291510500,5.956510498046875,-0.05140694663226604,0.05765720266606658,-0.007536386854201555
1783693553301473500,5.9664736328125,-0.04705693472921848,0.029371603902243075,-0.03246887579783797
1783693553311435800,5.976435791015625,-0.013306056296825408,0.008707951384223997,-0.0769512838639319
1783693553321398800,5.986398681640625,0.044991818892955775,-0.02662672564089298,-0.07972484023049474
1783693553331361800,5.99636181640625,0.07963526225090026,-0.06600194676108657,-0.09579290858656167
1783693553341323500,6.006323486328125,0.09644435823261738,-0.074072696220316,-0.0957229120902717
1783693553351286500,6.01628662109375,0.09434884725809096,-0.05883161674030125,-0.07592851668745279
1783693553361249800,6.026249755859375,0.09182838886976241,-0.029688159038126466,-0.04936608845442533
1783693553371211800,6.036211669921875,0.0719698421895504,-0.016636515893787146,-0.03854878023341298
1783693553381175000,6.046175048828125,-0.0026356092005968093,-0.012879611045680939,-0.01975114078298211
1783693553391137800,6.0561376953125,-0.059818216624855994,0.03000716185942292,-0.016921762575954197
1783693553401100000,6.06610009765625,-0.07622516154646873,0.03561813360899686,-0.0200771578669548
1783693553411063000,6.07606298828125,-0.0670809011042118,0.007972768977470696,-0.0033585166476666926
1783693553421025000,6.08602490234375,-0.020499182671308517,0.009688231125846505,0.013272884679585694
1783693553430987800,6.09598779296875,-0.04705342759788036,-0.0064044967474415895,0.026881284923851487
1783693553440950800,6.10595068359375,-0.08615268132090569,-0.012456855588965117,0.0013299334295094013
1783693553450913000,6.1159130859375,-0.07101356437802314,-0.012552424917928873,0.008172346670180559
1783693553460876000,6.1258759765625,-0.07084229946434498,0.006543978283368051,0.03778115686178207
1783693553470839000,6.135839111328125,-0.07888122901320457,0.005196728392876685,0.03652136605903506
1783693553480800800,6.14580078125,-0.07347557057738303,0.0014211553769186138,0.04428074801415205
1783693553490763800,6.155763671875,-0.10255261197984218,-0.01802804331742227,0.04908128016367554
1783693553500727000,6.16572705078125,-0.10233692340254782,0.003583046118542552,0.028894962833821772
1783693553510689000,6.17568896484375,-0.07625029598772526,-0.025748006577603517,0.04501140037626028
1783693553520652000,6.185652099609375,-0.036000703185796734,-0.05105816972721368,0.02536430448964238
1783693553530614800,6.19561474609375,0.010345452925562859,-0.04673610527701676,0.02521072136312723
1783693553540577000,6.205576904296875,0.02687807005345821,-0.05435246203225106,0.0015114274762570857
1783693553550540000,6.2155400390625,-0.0273100317299366,-0.03744984254818409,0.02155687503069639
1783693553560503000,6.2255029296875,-0.0596218172699213,-0.008310987955890595,0.07411635269895195
1783693553570464800,6.23546484375,-0.0400894338041544,-0.00846548439785838,0.06449614530801773
1783693553580427800,6.245427734375,-0.05423778614401817,0.0020020605374127627,0.08393032909631729
1783693553590391000,6.25539111328125,-0.03269640094339847,0.012911467488668858,0.10750190495029091
1783693553600353000,6.26535302734375,-0.0364250660777092,0.008087919789738952,0.10909779583960771
1783693553610316000,6.27531591796875,0.003214285871386528,0.03075878394432366,0.0825613788306713
1783693553620278800,6.28527880859375,0.05993745909035206,0.004107471851445734,0.09541150805354118
1783693553630241000,6.295240966796875,0.060444239568710326,0.007190130699798464,0.08360635783895849
1783693553640204000,6.3052041015625,0.04264496350586414,-0.015488113043643533,0.04140680001303553
1783693553650167000,6.3151669921875,-0.02922317187488079,-0.04087481202818453,0.015432254670560358
1783693553660128800,6.325128662109375,-0.06732756934165954,-0.019024178215302525,-0.01782835602685809
1783693553670091800,6.335091796875,-0.09815700736939907,-0.03407185401506722,-0.06156754451021552
1783693553680054000,6.345053955078125,-0.10875497375130652,-0.055301762113720176,-0.13091829024255275
1783693553690017000,6.35501708984375,-0.07776537672579288,-0.0409542339399457,-0.23131956940740345
1783693553699980000,6.36497998046875,0.11684534122645854,-0.07421225082147866,-0.25171061552911994
1783693553709941800,6.374941650390625,0.2910147441744804,-0.18549798515941945,-0.07102014024928212
1783693553719905000,6.384905029296875,0.3516869472801685,-0.13253504125680773,0.0557590043619275
1783693553729868000,6.394867919921875,0.22890403269827364,0.02948708350807428,0.160629245634377
1783693553739830000,6.404830078125,-0.005200491252541542,0.09971216438952833,0.11338409485667943
1783693553749793000,6.41479296875,-0.16900632109642028,0.122943767699413,0.041121553330868484
1783693553759755800,6.424755859375,-0.2583171741873026,0.04220014234781265,0.034867899763584134
1783693553769718000,6.434718017578125,-0.25584640015959736,0.03291278364043683,0.037973172302544114
1783693553779681000,6.444680908203125,-0.23607553176283835,0.07330562083795666,0.10560337785258889
1783693553789644000,6.45464404296875,-0.21013445029854774,0.07671400450933724,0.14477116676717997
1783693553799605800,6.464605712890625,-0.21160978354811666,0.08740436188243329,0.13617241137847302
1783693553809568800,6.47456884765625,-0.2249403897643089,0.04125829492043703,0.10984934485927224
1783693553819532000,6.484531982421875,-0.2102928557306528,0.013244937226735054,0.09191256002187728
1783693553829494000,6.494493896484375,-0.19438684606850146,-0.009274389627948403,0.07411635269895195
1783693553839457000,6.50445703125,-0.21039163993000984,-0.025285138306207953,0.030103461840748785
1783693553849419800,6.514419677734375,-0.2040934165686369,-0.02457271572053432,0.011659750394523143
1783693553859382000,6.524382080078125,-0.1418260532259941,0.024392463782802222,0.05232990669608116
1783693553869345000,6.534344970703125,-0.05948562366962432,0.04035641417726874,0.03777560390383005
1783693553879308000,6.54430810546875,0.0016220482438802717,0.04767229014858603,0.03819485222920775
1783693553889270000,6.55427001953125,0.05728548327684402,0.05345346736591309,0.028155688773840663
1783693553899232800,6.564232666015625,0.09143032946288585,0.035798787405528124,0.033290129052847624
1783693553909195000,6.574195068359375,0.10102993245720862,0.026286643498949706,0.01464315011948347
1783693553919158000,6.584157958984375,0.06251286253631115,0.01955138042718172,-0.03307765534594655
1783693553929121000,6.59412109375,-0.014940964022278784,0.05480130177829414,-0.06498217525929212
1783693553939082800,6.604082763671875,-0.0646194794267416,0.045082492851093406,-0.05194105350896716
1783693553949046000,6.6140458984375,-0.014916414102911947,0.021455131689272818,-0.0416273108959198
1783693553959009000,6.624009033203125,0.06520107870697975,-0.013351539406366646,-0.04314706780910492
1783693553968971000,6.633970947265625,0.12109481536448001,-0.05297521886229515,-0.028606939672678706
1783693553978934000,6.64393408203125,0.1642290236920118,-0.06924337636772543,-0.025507658483088017
1783693553988896800,6.653896728515625,0.21691665778458116,-0.07623458696193992,-0.009251374078541994
1783693553998859000,6.66385888671875,0.2455406947225332,-0.043093803251907224,0.01746624471619725
1783693554008822000,6.673822021484375,0.23860768058896065,-0.03177055480275303,0.045051147864758966
1783693554018785000,6.683784912109375,0.15113631788492202,-0.028526129521429536,0.024106121122092008
1783693554028746800,6.693746826171875,0.08666647606194018,-0.015140870508551597,0.029573300486803053
1783693554038709800,6.703709716796875,0.07441080560088158,-0.01261869508717209,0.02535714409649372
1783693554048673000,6.713673095703125,0.04406009100079536,-0.0010553908044472337,-0.002047434049099684
1783693554058635000,6.723635009765625,0.03907236571609974,-0.003652257163543254,0.0023224515981972215
1783693554068598000,6.733597900390625,0.052958852249383924,0.03659443129524589,-0.010131371783465147
1783693554078560800,6.743560791015625,-0.040158991909027095,0.02722721228469163,-0.046868280289322134
1783693554088523000,6.75352294921875,-0.19927052645683288,0.035766309908032416,-0.06247179987356066
1783693554098486000,6.763486083984375,-0.2576671858459711,0.054852301313169295,-0.07458440860211848
1783693554108449000,6.773448974609375,-0.29362872606515883,-0.02599969805004075,-0.1078150625526905
1783693554118411000,6.783410888671875,-0.3822726396799087,-0.06407156322039663,-0.19427081847339867
1783693554128373800,6.793373779296875,-0.45597149761915207,-0.04627727385992184,-0.20702567062824964
1783693554138337000,6.8033369140625,-0.48384325488507746,0.0030491219049319624,-0.15679317460283637
1783693554148299000,6.813299072265625,-0.40745618077516554,0.07093728427141904,-0.10439254075810313
1783693554158262000,6.823261962890625,-0.31332477566003797,0.08785298243276775,-0.014772913978993892
1783693554168223700,6.8332236328125,-0.147281396022439,0.08217709222082048,0.08631678584143519
1783693554178187000,6.84318701171875,0.041163785037398336,0.10053637678660451,0.20189152261018753
1783693554188150000,6.85314990234375,0.15441840829551218,0.11881377348890527,0.21194434926472602
1783693554198112000,6.863112060546875,0.19633330396115778,0.10365861872667446,0.18846710063070057
1783693554208075000,6.873074951171875,0.16313889036774634,0.11003096677018329,0.18053521165288983
1783693554218037800,6.883037841796875,0.15524492224752903,0.08533698102384805,0.12392843135520815
1783693554228000000,6.893,0.056740708875656125,0.06738819522140548,0.0807696731083095
1783693554237963000,6.902962890625,-0.014481529816985129,0.05422604090729728,0.03646013739109039
1783693554247926000,6.912926025390625,-0.0616214666545391,0.047684802570287135,0.03004866291359067
1783693554257887700,6.9228876953125,-0.012952420553565025,0.028419107216689735,0.01969276165924966
1783693554267850800,6.932850830078125,-0.062462009131908414,0.010361381147056817,0.015995806837454437
1783693554277814000,6.94281396484375,-0.163549809256196,0.10465099076488986,-0.039373905945941805
1783693554287776000,6.95277587890625,-0.21330080537497997,0.04692501544523984,-0.028509909038990734
1783693554297739000,6.962739013671875,-0.219904733684659,0.0778326880746521,0.016624240934103727
1783693554307702000,6.972701904296875,-0.15608371115922928,0.06822230795798823,0.060103609437495466
1783693554317664000,6.9826640625,-0.06940086848437786,0.017651337225828317,0.12488836242854594
1783693554327627000,6.992626953125,0.0815770439684391,-0.022423593128938227,0.18432642062939703
1783693554337589000,7.002589111328125,0.16532500223517416,-0.047940786625351756,0.1418327752277255
1783693554347552000,7.012552001953125,0.2384790857732296,-0.07412908431636168,0.16260463736057282
1783693554357514800,7.0225146484375,0.16941373285353184,-0.05187339510023593,0.1086122773449868
1783693554367477000,7.03247705078125,0.1841542058676481,-0.03927269232748076,0.06884060425311327
1783693554377439700,7.042439697265625,0.271263165000081,-0.007281754506006837,0.04720167696215212
1783693554387402800,7.05240283203125,0.3357978887528181,-0.01194393763076514,0.07398578512184321
1783693554397364700,7.06236474609375,0.45381928802132604,-0.059014572091773146,0.1892684801414609
1783693554407327700,7.07232763671875,0.532076832178235,-0.1535232130214572,0.21613076810389756
1783693554417290800,7.082290771484375,0.5620084445834159,-0.1795858385061845,0.14196984561085702
1783693554427252700,7.092252685546875,0.40303368815779683,-0.04354683511587791,-0.05375643236786127
1783693554437215700,7.1022158203125,0.20286708964407443,0.06497058528619817,-0.09791574595943092
1783693554447178500,7.112178466796875,-0.04964987383186817,0.07357486623339354,-0.12372479854188859
1783693554457140700,7.122140625,-0.2597352242916822,0.06411274004757869,-0.13098777528218924
1783693554467103700,7.132103759765625,-0.40138592095077036,0.02541772431046702,-0.18719898039102553
1783693554477066800,7.142066650390625,-0.47229193330109115,-0.027770849608140996,-0.1940671856600791
1783693554487028500,7.152028564453125,-0.5588596251636743,-0.07506378505032044,-0.18658055623173714
1783693554496991700,7.16199169921875,-0.6277046133309603,-0.06283741831555963,-0.17421046561077236
1783693554506954800,7.171954833984375,-0.6877344268798827,-0.08985981047684326,-0.16243227646835148
1783693554516916700,7.181916748046875,-0.8583271403849124,-0.040469546562386674,-0.24026027010157702
1783693554526879700,7.191879638671875,-0.9515461068302392,0.02471898090698523,-0.245440814544633
1783693554536841700,7.201841796875,-0.8488117085427045,0.03593940830248175,-0.11199154451973736
1783693554546804700,7.2118046875,-0.5981155307531356,0.005211939661740325,0.010283055213838816
1783693554556767700,7.221767822265625,-0.31165245853364465,-0.025859362564166075,0.11270699931271373
1783693554566729700,7.231729736328125,-0.05529343267679214,-0.03856589576499536,0.12835713451765476
1783693554576692500,7.2416923828125,0.10119359858632088,-0.08181392146423458,0.040029812571406365
1783693554586655700,7.25165576171875,0.24454116229116915,-0.10654688751408829,-0.02317958086170256
1783693554596617700,7.26161767578125,0.32616613705456254,-0.12266944427005946,-0.05700440131314098
1783693554606580700,7.271580810546875,0.33384733920693394,-0.09673699363679625,-0.03900163856744766
1783693554616543700,7.281543701171875,0.40268297502398487,-0.020320337239373473,0.01565671107620001
1783693554626505700,7.291505615234375,0.4422907627910375,0.008774860874284059,0.06326543446928262
1783693554636468700,7.30146875,0.3932417774617672,0.05578315242249518,0.1276707596886903
1783693554646431700,7.311431640625,0.28278292240202424,0.08695113822221756,0.1418280259873718
1783693554656393700,7.321393798828125,0.19901392134726045,0.08188947091847658,0.2065103415172547
1783693554666356700,7.331356689453125,0.14709668710529802,0.08853725663619115,0.10455335734300315
1783693554676319500,7.341319580078125,0.17355623948574064,0.04681762781431898,-0.04526610578969121
1783693554686281700,7.35128173828125,0.16420973446965217,-0.025140797932073473,-0.11443842621520162
1783693554696244700,7.36124462890625,0.19302783267498017,-0.08895617616800591,-0.12454817068874835
1783693554706207700,7.371207763671875,0.27226094386577604,-0.14784916770672424,-0.06696531190052628
1783693554716169500,7.38116943359375,0.27550387130975723,-0.15762317741988227,-0.021733692902326584
1783693554726132700,7.3911328125,0.1357394267886877,-0.10381751734912395,-0.04905512280911207
1783693554736094700,7.4010947265625,0.059058922690153115,-0.05801081100986339,-0.12131671448685229
1783693554746057700,7.4110576171875,0.0895288797557354,-0.03989208916772622,-0.12212342775985598
1783693554756020700,7.421020751953125,0.13211597559452057,-0.024625418588728642,-0.04634403721950948
1783693554765982700,7.430982666015625,0.14381868834793568,0.010306315075128804,0.0024335838224738833
1783693554775945700,7.44094580078125,0.048971243917942046,0.04462660687633324,0.02128441476486623
1783693554785908700,7.45090869140625,-0.11223229447305202,0.09507764558983035,-0.0065104048073291775
1783693554795870700,7.46087060546875,-0.22827917879819867,0.09571477444958873,-0.00616707126237452
1783693554805833700,7.470833740234375,-0.3082815207958221,0.09438843034980818,0.08219101114831864
1783693554815796700,7.480796630859375,-0.3494476439207792,0.09413790792115032,0.11596717015244067
1783693554825758700,7.4907587890625,-0.3528419625341892,0.08402947862185538,0.12996763845421372
1783693554835721700,7.5007216796875,-0.3431231170743704,0.06635860557849518,0.13259177641272543
1783693554845684700,7.510684814453125,-0.2993412584930658,0.03587604475966655,0.14806399776749313
1783693554855646700,7.520646728515625,-0.2055477070301771,-0.025881807291414587,0.17024295021928845
1783693554865609700,7.530609619140625,-0.17182605469226836,-0.057505628833547234,0.17590514069944618
1783693554875572700,7.54057275390625,-0.20223639052510262,-0.035714223527768624,0.17235519313290715
1783693554885534700,7.55053466796875,-0.23319909954369067,-0.0066614489168860015,0.08832308416254818
1783693554895497700,7.560497802734375,-0.2524690326809883,-0.020960790567379442,0.04979110893346369
1783693554905459700,7.570459716796875,-0.24757307733297346,-0.03274506239071488,0.03720116501674056
1783693554915422700,7.580422607421875,-0.19782617286741733,-0.04201440138421021,0.026745310519263148
1783693554925385700,7.5903857421875,-0.16561960126757622,-0.04446103648450225,0.01785517096854746
1783693554935347700,7.60034765625,-0.1251519818007946,-0.0038051279040053486,0.02004690885916352
1783693554945310700,7.610310791015625,-0.0867617531299591,0.004244834495522082,0.01098214339390397
1783693554955273700,7.620273681640625,-0.06543781007230282,0.014321224688738584,0.018763664115592837
1783693554965235700,7.630235595703125,-0.08419219490289688,0.0488590431145858,-0.00644581513851881
1783693554975198700,7.64019873046875,-0.0873281548410654,0.07357119927185121,-0.011689780206605792
1783693554985161700,7.65016162109375,-0.1348117905497551,0.07120229644973296,-0.012884323753416537
1783693554995123700,7.660123779296875,-0.10459317789673804,0.04670121662672609,-0.024948563295602796
1783693555005086700,7.670086669921875,-0.04973872115910053,0.010893277800362557,-0.017687924642860887
1783693555015049700,7.6800498046875,0.03342179260849953,-0.002923901789798401,0.012226590497046708
1783693555025011700,7.69001171875,0.11547346835136413,0.0003782724275952205,0.03171542708203196
1783693555034974700,7.699974609375,0.10337912593185901,-0.03652906530830077,0.003176218883320689
1783693555044937700,7.709937744140625,0.10786065526008605,-0.06731178725063801,-0.03152019677087665
1783693555054899700,7.719899658203125,0.12385668129324913,-0.056714884881232865,-0.00858801479898393
1783693555064862700,7.72986279296875,0.1290904902935028,-0.058434182954509736,-0.01888385642915964
1783693555074824700,7.73982470703125,0.11048749663233756,-0.08627320242803543,-0.022523966497182846
1783693555084787700,7.74978759765625,0.11037351486384868,-0.05978820964565966,0.0011931553073227404
1783693555094750700,7.759750732421875,0.12007424014508723,-0.06025828397597652,0.02003602213896811
1783693555104712700,7.769712646484375,0.12880056743621826,-0.04117582710164133,0.04206175679042935
1783693555114675700,7.77967578125,0.1587783570706844,-0.05301342284767888,0.04947634389586746
1783693555124638700,7.789638671875,0.12552373772263525,-0.07087801466512028,0.054270957761257885
1783693555134600700,7.7996005859375,-0.03501987545490265,-0.0854931305667851,0.055667599751427765
1783693555144563700,7.809563720703125,-0.11528174517154693,-0.035127418349450455,0.10121449524387717
1783693555154526700,7.819526611328125,-0.12022796940207481,0.00868279867665842,0.11953311900570988
1783693555164488700,7.82948876953125,-0.11787643783986568,0.005406005495693534,0.13365991710089145
1783693555174451700,7.83945166015625,-0.12302432212233542,0.027333421738678587,0.10406031312905252
1783693555184414700,7.849414794921875,-0.09990823495090007,0.03593848813716322,0.09311082989573478
1783693555194376700,7.859376708984375,-0.06656652184128761,0.03632777971569449,0.04189546031281352
1783693555204339700,7.869339599609375,-0.08322890282869339,0.0025929299694951624,-0.04060973135121167
1783693555214301700,7.8793017578125,-0.09003566023409366,0.031898163237795235,-0.03380881916470826
1783693555224264700,7.8892646484375,-0.13382570212185382,0.03028290092772804,0.012089447048678993
1783693555234227700,7.899227783203125,-0.17655016060471534,0.027082826244784516,0.008721431920304895
1783693555244189700,7.909189697265625,-0.16977788999080656,0.06203483322840184,-0.036921909683942794
1783693555254152700,7.919152587890625,-0.12082827338278293,0.066727813350223,-0.08184292836301028
1783693555264115700,7.92911572265625,-0.10370470462441443,0.014719749886495992,-0.12579305618330835
1783693555274077700,7.93907763671875,-0.11099018545746803,-0.015534765196964144,-0.17660174466148018
1783693555284040700,7.949040771484375,-0.039276363855600356,-0.009876849033124744,-0.15492255842536687
1783693555294003700,7.959003662109375,0.015156068077683448,-0.010189458646252751,-0.10565627708360552
1783693555303965700,7.968965576171875,0.04368015177249908,-0.008908086199359969,-0.053822191080451005
1783693555313928700,7.9789287109375,0.052525721529126164,-0.016953673817869275,-0.012711962861195206
1783693555323891700,7.9888916015625,0.023995208093523977,-0.021595754869515076,0.0069725424263626335
1783693555333853700,7.998853759765625,-0.003472644546627998,-0.00012955379695631564,0.014972966595739125
1783693555343816700,8.008816650390624,-0.048962476089596745,0.007609214628394693,0.023568141787871717
1783693555353779700,8.01877978515625,-0.07927928842008114,0.019385504074674098,0.08160247067064047
1783693555363741700,8.02874169921875,-0.10607961706221103,0.017543081945227457,0.09246142607629299
1783693555373704700,8.03870458984375,-0.1248556292027235,-0.020519019882939755,0.1048852196458727
1783693555383667000,8.0486669921875,-0.11156360143125056,-0.03617022366696037,0.10509747415706515
1783693555393630000,8.0586298828125,-0.15389818381369114,-0.00727195463120006,0.11160349505022167
1783693555403593000,8.068593017578126,-0.22825988957583904,0.047119250242551786,0.1015022992093116
1783693555413555200,8.07855517578125,-0.2558990071296692,0.08265151393269188,0.06933138344474137
1783693555423518200,8.088518310546876,-0.2643447639137506,0.10995158139104023,0.04495711290575564
1783693555433481000,8.09848095703125,-0.23791736023724078,0.11064566460242495,0.00329882234968245
1783693555443443000,8.10844287109375,-0.17023147897720337,0.08452623089654371,-0.005422171179205179
1783693555453406200,8.11840625,-0.07594225295186043,0.05103784389181528,-0.029198256629332897
1783693555463369200,8.128369140625,0.0009147767573595046,0.0036020225303596814,-0.04822926644422114
1783693555473331000,8.1383310546875,0.07783551935255527,-0.0004749377351021394,-0.04310132897123694
1783693555483294000,8.1482939453125,0.05346037203073501,0.01955907510987017,-0.03780687582492828
1783693555493257000,8.158257080078124,0.04598082993030548,0.029900897606508804,-0.08553352650925516
1783693555503219200,8.16821923828125,0.09246902486085891,0.033754764589644035,-0.10483268574103713
1783693555513182200,8.17818212890625,0.17828852870464323,-0.007795472186050028,-0.07008256713822483
1783693555523144000,8.18814404296875,0.17981296179294584,-0.011490952574211405,-0.04853095280453563
1783693555533107000,8.19810693359375,0.22639292666018007,-0.008320062315734685,-0.08935651886351406
1783693555543070000,8.208070068359374,0.2784931162536144,-0.07163098389031365,-0.08916808361932635
1783693555553032200,8.2180322265625,0.2437497196525335,-0.10020354636935516,-0.08895553684718906
1783693555562995000,8.227994873046875,0.11233107867240905,-0.08225573781444691,-0.0829907101586461
1783693555572958000,8.2379580078125,0.011512743139266967,-0.04603479317382443,-0.0706474344793707
1783693555582920200,8.247920166015625,-0.06148351948857307,0.006234475655245478,-0.026760069696977733
1783693555592883200,8.25788330078125,-0.056735448178648944,0.03526609616777859,0.057107934752851724
1783693555602846200,8.26784619140625,-0.02892740379869938,0.04924342105598189,0.10656170149073003
1783693555612808000,8.277807861328125,-0.03884615574479103,0.07457507451819255,0.11694807094857096
1783693555622771000,8.28777099609375,-0.017110709276795387,0.061419505208497864,0.14049385477416215
1783693555632734000,8.29773388671875,-0.001997311297059059,0.036545671666518315,0.13336911746077237
1783693555642696200,8.3076962890625,-0.0071557169735431666,0.022505209281074346,0.10707103925235568
1783693555652659200,8.3176591796875,-0.020484569624066352,0.04596394272758625,0.1336019763685763
1783693555662622000,8.3276220703125,-0.110167763158679,0.08521352817411534,0.15057503074035047
1783693555672584000,8.337583984375,-0.21071897218823432,0.1171623347537592,0.11922222642563282
1783693555682547200,8.347547119140625,-0.20697803209424018,0.06698746893340721,0.10383044989593326
1783693555692509200,8.35750927734375,-0.16070026504397392,0.005697786949924193,0.07806384821571409
1783693555702472000,8.367471923828125,-0.17279460746347902,-0.04785849233649205,0.06068002108596265
1783693555712435000,8.37743505859375,-0.2665431507408619,-0.07682661630464717,-0.005175576006993651
1783693555722397200,8.387397216796876,-0.27070962277054783,-0.09350096172448247,-0.03629574060961604
1783693555732360200,8.397360107421875,-0.1558037251740694,-0.09628447322947904,-0.013447656724601983
1783693555742323200,8.4073232421875,-0.0677174454420805,-0.09833787122848443,0.010131079522520302
1783693555752285000,8.417284912109375,-0.002967617633938789,-0.11168198538022116,0.031174013681709765
1783693555762248000,8.427248046875,0.07135024898648262,-0.08756693203300236,0.03321669849045574
1783693555772211200,8.437211181640626,0.0046603930264711374,-0.026935076920723076,0.0314767229553312
1783693555782173200,8.447173095703125,-0.07128010635972022,0.02568486908036284,0.012286796251684426
1783693555792136200,8.45713623046875,-0.056532034561038016,0.04487876413965132,0.024585429071635006
1783693555802099000,8.467098876953125,-0.04552431833446026,0.05442962805484421,0.03939524099491536
1783693555812061200,8.477061279296874,-0.036682255709171295,0.07621263542503584,0.014306027119606733
1783693555822024200,8.487024169921876,-0.0014057751446962356,0.08027589824199675,-0.007604848980531096
1783693555831986200,8.496986083984375,0.07497954539954661,0.0487527514622081,-0.012403992890566587
1783693555841949000,8.506948974609376,0.07190262217223643,0.02207927320329472,-0.024991014197841284
1783693555851912000,8.516911865234375,0.04715279631912708,0.015458297860692255,-0.017644743088260292
1783693555861874200,8.526874267578124,0.023721651849150656,0.021822067588812204,-0.007959215376153588
1783693555871837200,8.536837158203125,0.01752221268713474,-0.010528133140754653,-0.03798946585021913
1783693555881800200,8.54680029296875,0.01629413219690323,-0.02881631952348398,-0.04091872423514724
1783693555891762000,8.556761962890626,-0.004337152421474456,-0.05740421428568661,-0.05550115714333951
1783693555901725000,8.566724853515625,-0.07009469596743584,-0.05106399667980149,-0.06061323946006596
1783693555911688200,8.576688232421875,-0.09447802659571171,-0.040864751858473755,-0.03808401226587593
1783693555921650200,8.586650146484375,-0.11151917776763438,-0.028338630425580776,0.015932605408132076
1783693555931613000,8.596613037109375,-0.13544073610305785,-0.02110686624087393,0.04926248194947838
1783693555941575200,8.6065751953125,-0.12668401367366314,-0.017235913408908527,0.04438450064957142
1783693555951538200,8.6165380859375,-0.09212181885838508,-0.02916801218811888,0.03173047852069139
1783693555961501200,8.626501220703124,-0.009854454538226127,-0.02855143977591069,0.06256780759394169
1783693555971463000,8.636462890625,0.01719604947268963,-0.026993871602986472,0.1189391717005521
1783693555981426000,8.646426025390625,-0.0735556500762701,0.013825483910914043,0.1467421015139669
1783693555991389000,8.656388916015626,-0.1661468400120735,0.06960277056491468,0.12915318026617167
1783693556001351200,8.66635107421875,-0.13990765238404274,0.06943929623204749,0.12080679220333694
1783693556011314200,8.676314208984374,-0.11489888333380222,0.05436695634848438,0.12153780989162623
1783693556021277200,8.686277099609375,-0.08989128332734107,0.05540219941404648,0.07466704538427293
1783693556031239000,8.696239013671875,-0.035575171250104905,0.07733966212701052,0.05130940454192459
1783693556041202200,8.7062021484375,0.0689461104542017,0.06366448025684804,0.0727672031123191
1783693556051165200,8.716165283203125,0.07646656908690928,0.06728528283620253,0.05432824090644717
1783693556061127200,8.726127197265624,0.06586801818311214,0.07328926792477723,0.03633621875047684
1783693556071090000,8.73608984375,0.06175766025483608,0.04984300351748243,-0.006637830579280853
1783693556081053000,8.746052978515625,0.03155599873661995,0.03947143433655146,-0.04790339549072087
1783693556091015200,8.75601513671875,-0.019933365482091903,-0.0008422732101520523,-0.09942498147860168
1783693556100978200,8.765978271484375,-0.0018202011644840239,-0.02770971227174159,-0.14589439864344894
1783693556110940000,8.77593994140625,0.06917991921007632,-0.0494949663979467,-0.14744308939017356
1783693556120903000,8.78590283203125,0.091650109693408,-0.052249493837053886,-0.11994250352419912
1783693556130866200,8.7958662109375,0.09183657217621803,-0.05468689988469705,-0.10444916631616652
1783693556140828200,8.805828125,0.08857786264121532,-0.07637907346654683,-0.08737572030983864
1783693556150791200,8.815791259765625,0.06255494811236859,-0.04183193922308273,-0.05230484532006085
1783693556160754000,8.82575390625,-0.023867782321572304,-0.02086892016599886,-0.011886910213902592
1783693556170716200,8.835716064453125,-0.07777648264169693,0.0015778255096636712,0.011060104000940919
1783693556180679200,8.84567919921875,-0.1107517005264759,0.0394800606010016,0.04218384880013764
1783693556190642200,8.85564208984375,-0.1431909118384123,0.030903870953840666,0.09505984507165849
1783693556200604000,8.86560400390625,-0.1831616876989603,0.04719358498724177,0.11854703057780862
1783693556210567000,8.87556689453125,-0.19619711036086082,0.039308160933083855,0.10773023381344973
1783693556220529200,8.885529052734375,-0.20115327146351336,0.04359115374821704,0.1051268463820219
1783693556230492200,8.8954921875,-0.14563596690297126,0.02453337465741206,0.07794519027210771
1783693556240455200,8.905455078125,-0.1182546235024929,0.007335850180266425,0.080569182100147
1783693556250417000,8.9154169921875,-0.0674251844972372,-0.00007193729162681848,0.09629610886834561
1783693556260380000,8.9253798828125,-0.014853870260715484,-0.006477182957739569,0.04499744491614401
1783693556270343200,8.93534326171875,-0.002454991936683655,-0.0030638536831829695,-0.0019573446128517387
1783693556280305200,8.94530517578125,0.0012099603116512297,0.007750440596835688,-0.02645180746540427
1783693556290268200,8.95526806640625,-0.016660627421736716,0.05684445694449823,-0.06423778663277625
1783693556300231000,8.96523095703125,-0.015421441015601157,0.06418539429183584,-0.08122976490072906
1783693556310193200,8.975193115234376,-0.0012380173623561857,0.07210390319826547,-0.08598908825702965
1783693556320156200,8.98515625,0.008591302734613417,0.06921520515258889,-0.08460048344284296
1783693556330119200,8.995119140625,-0.015537760871648787,0.04013030923723709,-0.07757299595884978
1783693556340081000,9.005080810546875,-0.0032750761479139324,0.037486060072458346,-0.10788082126528024
1783693556350044000,9.0150439453125,0.017722119173407554,0.021896139755309556,-0.1131887914802879
1783693556360006100,9.025006103515626,0.015371756654977798,0.005249376462143846,-0.09706073656529188
1783693556369969200,9.03496923828125,-0.04120236348211765,-0.001980953817302361,-0.0668796794436872
1783693556379932000,9.044931884765624,-0.04435585907697678,0.013085298818768933,-0.0344815307945013
1783693556389894000,9.054893798828125,-0.01863338879942894,0.009845175253227352,0.0031735154695808885
1783693556399857200,9.064857177734375,0.03336509398519993,-0.020155976990517226,0.017725699369981883
1783693556409820200,9.074820068359376,0.05381576133966445,-0.019741578370193018,0.02843596701994538
1783693556419782000,9.084781982421875,0.015914777490496634,-0.019729307977086864,0.018243147372826934
1783693556429745000,9.094744873046874,-0.013648586124181747,0.007020285991649143,0.025915289435908196
1783693556439708000,9.1047080078125,-0.10210019203722476,0.01771267092505004,0.03775236915871501
1783693556449670100,9.114670166015625,-0.15525836625099182,0.020718478844640776,0.008480681966990231
1783693556459633000,9.1246328125,-0.16944938868880272,-0.008311933237384073,-0.002967690699175
1783693556469595000,9.134594970703125,-0.16552724680900574,-0.007534838784509338,-0.034588936691731215
1783693556479558000,9.144557861328124,-0.10341945794224738,-0.03355792684329208,-0.009496361815556882
1783693556489521200,9.154521240234375,0.01964110453724861,-0.08825868628998286,0.019531287487223742
1783693556499483100,9.164483154296875,0.11184417193830012,-0.1078930414260365,0.08523461662791669
1783693556509446000,9.17444580078125,0.18373861080408097,-0.09923766961242071,0.1770852173294872
1783693556519409000,9.184408935546875,0.18344342724978924,-0.02681559014334343,0.24171419523693619
1783693556529371100,9.19437109375,0.12381108858585357,0.055277550121070815,0.2797292339198291
1783693556539334100,9.204334228515625,0.07796995938718318,0.09283831483097746,0.2722160087455064
1783693556549297200,9.214297119140625,-0.030343700337409973,0.133584897369612,0.23138715475089847
1783693556559259000,9.2242587890625,-0.15007307256758212,0.12828279977296478,0.16172551643848418
1783693556569222000,9.234221923828125,-0.2363572713136673,0.10089114504102617,0.08369710486233234
1783693556579185000,9.244184814453124,-0.29241116696894165,0.05665542347868904,0.016783961540460586
1783693556589147100,9.254147216796875,-0.29233751721084117,-0.003019087526272051,-0.021488632100075483
1783693556599110000,9.26410986328125,-0.2302355735629797,-0.05048445235933177,-0.05784625896476209
1783693556609071900,9.27407177734375,-0.21396891389489173,-0.08872662346214055,-0.08045534646213054
1783693556619035000,9.284034912109375,-0.16380466080009937,-0.09059488328574225,-0.13641425731033086
1783693556628998100,9.293998046875,-0.06577683276832104,-0.11393993864115327,-0.1235453503217548
1783693556638959900,9.3039599609375,-0.027219430837035177,-0.12081375166708602,-0.09218860048428178
1783693556648923000,9.3139228515625,0.01057107837498188,-0.08735641282116993,-0.06726086078099906
1783693556658886000,9.323885986328126,0.019318448454141615,-0.018289096273249015,-0.03758534202873707
1783693556668848000,9.33384814453125,0.024564532414078712,0.08134940922502427,0.09437252039462328
1783693556678811100,9.34381103515625,0.028801731592416762,0.10665797407259232,0.1705206711821258
1783693556688774100,9.353774169921875,-0.013918050715327262,0.10450054944353178,0.16345599349290132
1783693556698735900,9.36373583984375,-0.012977554994821547,0.07093161714903544,0.13789865064918994
1783693556708699000,9.373698974609376,0.036197687062621116,0.009200443042325786,0.08875241549052297
1783693556718661000,9.3836611328125,0.09058101915717125,-0.027850203021243213,0.04365523652695119
1783693556728624000,9.3936240234375,0.10249357526898384,-0.060498485940019595,0.03335581470020115
1783693556738587000,9.4035869140625,0.06208966868817806,-0.04099333297447301,0.03496777994148433
1783693556748548900,9.413548828125,-0.03322071707844734,-0.0068458107741549605,0.02270721410959959
1783693556758512000,9.42351220703125,-0.08162146763205527,0.02042529088461306,0.0009577391162514686
1783693556768475100,9.43347509765625,-0.07370937933325768,0.001596064419252798,-0.011809899454936384
1783693556778436900,9.443436767578126,-0.042868835389614106,-0.009707218954106792,-0.0027313977252691984
1783693556788399900,9.45339990234375,0.01883504885137081,-0.0104773722095415,0.004850143444910645
1783693556798363000,9.46336279296875,0.08712707931101321,-0.04260200114697218,0.003321472572907805
1783693556808325000,9.4733251953125,0.09671148473620414,-0.036069000915344804,0.023082477162778375
1783693556818288000,9.4832880859375,0.03876256911456585,0.015622306483099237,0.040275019504129886
1783693556828249900,9.493249755859376,-0.014870821395516395,0.07004328087402972,0.06289798939637839
1783693556838212900,9.503212890625,-0.08119768926203251,0.07932605017125606,0.03513561078906059
1783693556848176000,9.513176025390624,-0.11561141551733016,0.06690064003332517,0.006692337245494127
1783693556858138000,9.52313818359375,-0.08631167127490043,0.02118326051190961,0.0008036445330828428
1783693556868100900,9.533100830078125,-0.013667875346541404,-0.0003060931073734537,-0.0026717764925211665
1783693556878063900,9.54306396484375,0.06829729115664959,-0.02593201224184595,0.004670768290013075
1783693556888026000,9.553026123046875,0.06652092913389206,-0.021386395568307487,0.016574775769189
1783693556897989000,9.562989013671874,-0.010351298144459724,-0.01664635458450066,0.015099296389147638
1783693556907952000,9.5729521484375,-0.16157061813771723,-0.006141331749630626,-0.03281235547326505
1783693556917913900,9.582913818359375,-0.27897008611559865,-0.012204305600002407,-0.06668262250162661
1783693556927876900,9.592876953125,-0.2792728684544563,-0.04458251657285727,-0.07227014031037687
1783693556937839900,9.60283984375,-0.19313363113701343,-0.0490563466518186,-0.05322554036155343
1783693556947802000,9.612802001953124,-0.08666004632115364,-0.058887502512848,-0.007608502242341637
1783693556957765000,9.62276513671875,-0.060115153744816775,-0.04797943813530728,0.03681011987254024
1783693556967726800,9.632726806640624,-0.039218496188521385,-0.028185394358937625,0.056168169684708114
1783693556977689900,9.64268994140625,-0.06260755508244037,-0.003576417731645051,0.039096184983104465
1783693556987653000,9.652653076171875,-0.05886310785710811,0.045486612105998206,0.06916881329417228
1783693556997615000,9.662614990234376,-0.06777180597782134,0.09787486595977098,0.0808534058690071
1783693557007577900,9.672577880859375,-0.07108195343911647,0.11765603655483572,0.07461670343652367
1783693557017540900,9.682540771484375,-0.022110124999284744,0.09374339217822998,0.06187770643793046
1783693557027503000,9.692503173828126,0.04077507798075676,0.05069281614669598,0.03797083421498537
1783693557037466000,9.702466064453125,0.11171265451312064,0.0020051429770654066,0.03216638571992516
1783693557047429000,9.71242919921875,0.15375731403827667,-0.04899052857372444,0.004098813620954752
1783693557057390800,9.722390869140625,0.1969599114269018,-0.0792851701715961,-0.02729505335651338
1783693557067353900,9.732353759765624,0.23348726883530616,-0.10261862642075865,-0.036733693635463714
1783693557077316000,9.742316162109375,0.22520459365844725,-0.0983589322828222,-0.03267060891501605
1783693557087279000,9.752279052734375,0.19004384842813013,-0.06428202306672465,-0.03911781229302287
1783693557097241900,9.762241943359374,0.12614976066648959,-0.06520290990446229,-0.04358765118345618
1783693557107203800,9.772203857421875,-0.03220423351228237,-0.021500466385053003,-0.09861687996610999
1783693557117167000,9.7821669921875,-0.17228490437567234,0.02671513685999671,-0.07471066533029079
1783693557127130000,9.792130126953126,-0.22666063768565653,0.03238626641514711,-0.024331600441038607
1783693557137091800,9.802091796875,-0.2692091550797224,0.03738401990351267,-0.006938567091524601
1783693557147054800,9.812054931640626,-0.24979718312323093,0.029267823867360127,0.05465345427282154
1783693557157017900,9.822017822265625,-0.2264712525933981,0.0019130191306467167,0.0807331404902041
1783693557166980000,9.83197998046875,-0.18943711470663546,-0.013522284871881129,0.05165799878388643
1783693557176943000,9.841943115234375,-0.17019290053248404,-0.010440468557033454,0.06474485937207937
1783693557186904800,9.85190478515625,-0.15991174501478672,0.009186596609241678,0.02468253277055919
1783693557196867800,9.861867919921876,-0.1641080276608467,-0.01605834839636227,0.05910341941900551
1783693557206831000,9.8718310546875,-0.24498890605866908,-0.05693540946384892,0.12725801416933535
1783693557216793000,9.88179296875,-0.4572445862948894,0.021442025612527504,0.14371880817003546
1783693557226756000,9.891756103515625,-0.5628203454881906,0.04032792786830105,-0.016574994964897633
1783693557236718800,9.90171875,-0.4998778593629598,0.0022743198738433418,-0.06919416693113743
1783693557246681000,9.91168115234375,-0.31054186694324015,-0.059911411333642896,-0.10398271784819663
1783693557256644000,9.92164404296875,-0.19257424368858336,-0.1475298543581739,-0.11654701586700975
1783693557266607000,9.931607177734374,-0.1458306126922369,-0.1398063383008819,-0.06141089264377951
1783693557276568800,9.94156884765625,-0.1463701263964176,-0.08862912703757174,0.0031445085708051916
1783693557286531800,9.95153173828125,-0.20861352434158323,0.014617047563847154,-0.1257103463359177
1783693557296494000,9.961494140625,-0.20561025087237356,0.03742246135091409,-0.1655755429301411
1783693557306457000,9.97145703125,-0.19915011494755744,0.06891113047236576,-0.1302672059226781
1783693557316420000,9.981420166015624,-0.25122867723107334,0.12898418037481604,-0.025709172404557466
1783693557326381800,9.9913818359375,-0.17907178803682325,0.15227313989512622,0.06104300917945802
1783693557336344800,10.0013447265625,-0.09324293184280395,0.08862358321277425,0.08421440673470497
1783693557346308000,10.01130810546875,0.08852350210547447,-0.013174867665208876,0.007656871428713202
1783693557356270000,10.02127001953125,0.320857509252429,-0.0930529622286558,-0.06204882522113621
1783693557366232800,10.03123291015625,0.5620820943415165,-0.12226184984985738,-0.008774842607975005
1783693557376195800,10.04119580078125,0.6727215666651726,-0.13534425345864146,0.07311638187617063
1783693557386158300,10.051158447265625,0.6211106218934058,-0.07445369489453732,0.18006057987846433
1783693557396121300,10.061121337890626,0.4637620053648948,0.02016045223623514,0.2396768441904336
1783693557406083300,10.071083251953125,0.3017465660691261,0.09877550459392369,0.22893238200992344
1783693557416046000,10.081046142578124,0.2510235100477934,0.10264485684055834,0.20965543460994956
1783693557426009000,10.091009033203125,0.34564591355025764,0.03271835704687982,0.12764767107404767
1783693557435971300,10.100971435546874,0.47480362386107444,-0.08104487332049756,0.12600889089107511
1783693557445934300,10.110934326171876,0.463991137945652,-0.1260979574140161,0.18799699890092014
1783693557455897300,10.1208974609375,0.39897593719959257,-0.08905764551479368,0.15765527132488785
1783693557465859000,10.130859130859376,0.22161446021199224,-0.060019620948471124,0.056969695325940845
1783693557475822300,10.140822265625,-0.013953122028708458,-0.03659132602270693,-0.013159998889639974
1783693557485785300,10.150785400390625,-0.23391046268343924,0.01313446258958429,0.00998443759344518
1783693557495747300,10.160747314453126,-0.3768868549883365,0.0746054879227653,-0.04926511229798197
1783693557505710000,10.1707099609375,-0.47720776239335533,0.07021118022026494,-0.07611249495223164
1783693557515672300,10.18067236328125,-0.49342532222270963,0.036462238016631454,-0.11433328534029423
1783693557525635300,10.19063525390625,-0.4161018440455198,-0.06061625340105965,-0.17614925165362655
1783693557535598300,10.200598388671875,-0.4024140949547291,-0.08453571111094206,-0.19824980510696769
1783693557545560000,10.21056005859375,-0.4283744656413793,-0.046635311783663924,-0.1548551922775805
1783693557555523000,10.220523193359375,-0.42113633108139037,0.038435949242394414,-0.0071373045340180396
1783693557565486000,10.230486083984376,-0.3697439974963665,0.10136667186459526,0.07566891590319573
1783693557575448300,10.2404482421875,-0.2566962949872017,0.12151269371667876,0.08850063268654047
1783693557585411300,10.250411376953124,-0.08459902213811873,0.09008563685566186,0.10287029962688683
1783693557595374300,10.260374267578126,0.11221943499147892,-0.009298172362335025,0.13152436637692153
1783693557605336000,10.270336181640625,0.28540976377427574,-0.030083149705082177,0.14277473225295542
1783693557615299300,10.28029931640625,0.3413835799306631,-0.003051003334764391,0.14680997911840676
1783693557625262300,10.290262451171875,0.29615853680372234,0.009457746838219464,0.16087744824178515
1783693557635224300,10.300224365234374,0.22608196101486683,0.05420315322205424,0.15600713879168032
1783693557645187000,10.31018701171875,0.12277940745055675,0.05012563811745494,0.09085084907449781
1783693557655149300,10.3201494140625,0.04890051676928997,0.016604184526763856,0.02942826599292457
1783693557665112300,10.3301123046875,0.027123569247126576,-0.03408641226338222,-0.028160145753249523
1783693557675075300,10.340075439453125,0.11318974132835864,-0.1014482674671337,-0.08196268228515982
1783693557685037000,10.350037109375,0.21620295655727384,-0.12608369142664597,-0.10935257431827484
1783693557695000000,10.36,0.27582652739286423,-0.16358312700390815,-0.10444807033762335
1783693557704963300,10.36996337890625,0.24388357516527173,-0.15360009591626003,-0.10281966541819273
1783693557714925300,10.37992529296875,0.16548749932050705,-0.08650158609012142,-0.07154876723326742
1783693557724888300,10.389888427734375,0.0649719461262226,-0.04258115928834304,-0.066612406809628
1783693557734851000,10.39985107421875,-0.10363105486631392,0.043964576470758764,-0.004073679179698229
1783693557744813300,10.409813232421875,-0.2200777521640062,0.10194505627444013,0.04805288696400821
1783693557754776300,10.4197763671875,-0.27722178114354606,0.12643584759887308,0.06346556015126406
1783693557764738300,10.42973828125,-0.4433884948998689,0.1282441665293183,0.030965704693272707
1783693557774701300,10.439701416015625,-0.6395131245464086,0.078376074236352,-0.08213665061257779
1783693557784664000,10.4496640625,-0.7228700376689433,0.055149110568966715,-0.18824892783537506
1783693557794626300,10.459626220703125,-0.5742939256608486,0.05575571642629802,-0.11911145952753723
1783693557804589300,10.46958935546875,-0.34768589494526386,0.057956624004058536,0.05896591064445674
1783693557814552300,10.47955224609375,-0.15953998909294603,0.062193768383469426,0.17271014405041932
1783693557824514000,10.48951416015625,-0.03450841880142688,0.08823968019541352,0.26117709366306663
1783693557834477300,10.499477294921874,0.10339198541343211,0.08691190219037234,0.25629852784126994
1783693557844440300,10.5094404296875,0.28859540807306766,0.04700436429176479,0.22797844228595493
1783693557854402300,10.51940234375,0.3917027313262224,0.0031864845490083096,0.2424912440240383
1783693557864365300,10.529365234375,0.363646265143156,0.06630398018127306,0.21598164195679126
1783693557874327300,10.539327392578125,0.30149989783167835,0.07568968469658865,0.16612031733132898
1783693557884290300,10.549290283203124,0.18847791428565977,0.07568303576009347,0.13125935876518488
1783693557894253300,10.55925341796875,0.07130991697609425,0.08573093051118776,0.03868775031268597
1783693557904215300,10.56921533203125,0.08076689662933349,0.04176178746316582,-0.054371495526283974
1783693557914178000,10.579177978515625,0.14923194556832312,-0.028643636687565595,-0.07465761996880173
1783693557924141000,10.58914111328125,0.07349544432163238,-0.09242211697921156,-0.2365367925990373
1783693557934103300,10.599103271484376,-0.05875380226373672,-0.08428944473229348,-0.32533984229825436
1783693557944066300,10.60906640625,-0.0948661491304636,0.014502326009841636,-0.1966742994185537
1783693557954028000,10.619028076171874,-0.2424351299226284,0.09733433847543783,-0.1410522923745215
1783693557963991000,10.628990966796875,-0.11744038451015948,0.020774976538540796,0.045676951612904665
1783693557973954300,10.638954345703125,-0.23757950658500193,0.02121116686556488,-0.02132620807997882
1783693557983916300,10.648916259765626,-0.2559703188002109,-0.04460764188095927,-0.04713379935771227
1783693557993879300,10.65887939453125,-0.18708850575387476,-0.07636362016908824,-0.01322546534128487
1783693558003842300,10.66884228515625,-0.15424246720671653,-0.10294481703466735,0.051176279681548476
1783693558013804300,10.67880419921875,-0.32965865534543987,-0.04358258228269406,0.059170566371083255
1783693558023767300,10.688767333984375,-0.6136451083183289,0.052102710344083605,-0.03423245140425861
1783693558033730300,10.698730224609376,-0.8213385952055454,0.1442816753503401,-0.08244936982356012
