time,seconds_elapsed,z,y,x
1783693599605801200,0.05980126953125,0.23245851030945777,-0.014247392267547548,-0.02723484760187566
1783693599615764000,0.069763916015625,0.26487726335525513,-0.05613598444815725,-0.030907179439067838
1783693599625726000,0.079725830078125,0.29730770683884616,-0.07988565681539475,-0.053265799306705594
1783693599635689000,0.08968896484375,0.26286592353284355,-0.050678011303208766,-0.03155950586795807
1783693599645651200,0.099651123046875,0.2010129862099886,-0.02162095324285328,0.016949381235241888
1783693599655614000,0.109614013671875,0.13971417563855648,-0.000981741046346724,0.015279256065934896
1783693599665577000,0.119576904296875,0.09647533789277077,0.013568981549330054,-0.02199007881619036
1783693599675539000,0.1295390625,0.09857084886729717,0.003872019127756357,-0.018656988870725033
1783693599685502000,0.139501953125,0.08486614864170551,-0.0018211144799366592,0.0018741963740438222
1783693599695464000,0.1494638671875,0.05393500380516052,-0.0002762961907312274,0.0025330256089568137
1783693599705427000,0.159427001953125,0.034621231526136394,0.03519344192352146,0.03013495295755565
1783693599715389000,0.169388916015625,-0.10813421150445937,0.0229955660643056,0.005671031373739242
1783693599725352000,0.17935205078125,-0.2709405089169741,0.031230310446210205,-0.0016827654551714658
1783693599735314000,0.18931396484375,-0.40592590246796606,0.0480379451232031,0.010316080700606108
1783693599745277000,0.19927685546875,-0.43303018249273295,0.01062434293217957,-0.01909954500645399
1783693599755240000,0.209239990234375,-0.33152503373920916,-0.03221636234149337,-0.017589067378267646
1783693599765202000,0.219201904296875,-0.31278175482451914,-0.06907583778109401,-0.0020558365512639283
1783693599775165200,0.229165283203125,-0.2755231605321169,-0.062076626543514424,0.004550795172154903
1783693599785127000,0.239126953125,-0.205408006298542,-0.03151347476914525,0.07435688345655798
1783693599795090000,0.24908984375,-0.09240940362811088,0.0006651128452271223,0.1561332493893802
1783693599805052200,0.25905224609375,-0.04103109856843948,0.07601385688334703,0.19126644902564585
1783693599815015200,0.26901513671875,-0.017955927929282186,0.11421400634218007,0.17888934414200483
1783693599824978000,0.27897802734375,0.03779986156225204,0.07689849423076957,0.1465462136156857
1783693599834940000,0.28893994140625,0.10125906503796576,0.053626412780024106,0.10858714290373027
1783693599844903000,0.29890283203125,0.11344167026281356,0.013784049072116613,0.02792633699737489
1783693599854865200,0.308865234375,0.10716799682080745,-0.03564206247385591,-0.048244171752408145
1783693599864828000,0.318827880859375,0.12064005733430384,-0.039515141047537325,-0.08427548927217722
1783693599874790000,0.328789794921875,0.1448679051399231,-0.04138184823486954,-0.07924151369296013
1783693599884753000,0.3387529296875,0.13579320280253887,-0.018005210431106387,-0.05230396853722632
1783693599894715100,0.348715087890625,0.10115151301026344,0.010203304508514702,-0.026451515204459427
1783693599904678100,0.35867822265625,0.07117489241957664,0.018403489033691583,-0.011815452412888406
1783693599914640000,0.368639892578125,0.05245499438047409,0.028050438301078975,-0.009010039603337645
1783693599924603000,0.378602783203125,-0.026167875957489012,0.018257870017923415,-0.023492592333629728
1783693599934566100,0.388566162109375,-0.11403963615596294,0.020273082297854125,-0.06033274201825261
1783693599944528100,0.398528076171875,-0.14837386743426323,0.005671433232538402,-0.061440264868736265
1783693599954491000,0.408490966796875,-0.14702654447853564,-0.02924647968523204,-0.06316387379094958
1783693599964452900,0.418452880859375,-0.1712105531424284,-0.05364358311053365,-0.09970482133328915
1783693599974416100,0.428416015625,-0.1936351509183645,-0.045743915901891884,-0.10884374801330268
1783693599984378000,0.438378173828125,-0.22128303630053997,-0.01900956516806036,-0.09228139333426952
1783693599994340900,0.4483408203125,-0.2369756954729557,-0.009081387806497514,-0.0735212363500148
1783693600004304000,0.458303955078125,-0.20974223611056803,0.01604505280666053,-0.033163068607077004
1783693600014266000,0.46826611328125,-0.10171323854625225,0.03740322692748159,0.025430209332704543
1783693600024229000,0.47822900390625,-0.023984102177619933,0.05188786201700568,0.08347089489102363
1783693600034190800,0.48819091796875,0.04948211604952812,0.07311678373496978,0.09307327436432242
1783693600044153900,0.49815380859375,0.11714870808720589,0.07524115547779947,0.10841682783812284
1783693600054116000,0.5081162109375,0.1548492009282112,0.07227240533269941,0.08974807546436786
1783693600064079000,0.5180791015625,0.19750293226242063,0.03680032913088798,0.06840944629423319
1783693600074040800,0.528040771484375,0.19030396066904068,0.007710537844710052,0.027733956230431792
1783693600084003800,0.53800390625,0.0909533596009016,-0.006653430007211864,-0.0450385806441307
1783693600093966800,0.547966796875,0.018208441385626793,-0.008929302517324685,-0.10775039981864393
1783693600103929000,0.55792919921875,0.003356324690580368,-0.04504519304800778,-0.11478351332582533
1783693600113892000,0.56789208984375,-0.015902502530813215,-0.04127656122948974,-0.08754289357028901
1783693600123853800,0.577853759765625,-0.07536299175918101,-0.03381053619775921,-0.06876973097398877
1783693600133816800,0.58781689453125,-0.152788761267066,0.00447327295653522,-0.025859540660679338
1783693600143779000,0.597779052734375,-0.19883038147389887,0.05109583485648036,0.016665888118743897
1783693600153742000,0.6077421875,-0.19159809213280676,0.05200378001425415,0.05915661091096699
1783693600163703800,0.617703857421875,-0.18459376632869243,0.030194172331504524,0.07991758632361888
1783693600173667000,0.6276669921875,-0.11783026061058044,0.0031972251387313005,0.09998751073218881
1783693600183630000,0.637630126953125,-0.04096621663868427,-0.001114537113159895,0.12862915639206765
1783693600193592000,0.647592041015625,0.03258943343758583,-0.0021025252372026443,0.13391769125424324
1783693600203555000,0.65755517578125,0.061037529286742206,0.002202989936992526,0.10408880857117474
1783693600213517000,0.66751708984375,0.07136486203372477,0.042197877325490116,0.09997348220683634
1783693600223480000,0.67747998046875,0.08397825989127158,0.05229447005651891,0.14046345963589846
1783693600233442000,0.687442138671875,0.022058687072992324,0.04660984854884445,0.10670016011334955
1783693600243405000,0.697405029296875,-0.02566168000102043,0.024171587573736903,0.02287314526103437
1783693600253367000,0.707366943359375,-0.03609656477570534,-0.021273272316344082,-0.028005905039608477
1783693600263330000,0.717330078125,-0.04801262801885604,-0.08100943668093531,-0.06310279125347733
1783693600273293000,0.72729296875,-0.054305006161332124,-0.07923563194144517,-0.10504632849171758
1783693600283255000,0.737255126953125,-0.038806992778182024,-0.05342186665125191,-0.08159647932127118
1783693600293217800,0.7472177734375,-0.03833645265698433,-0.028753289340808987,-0.021701909524574875
1783693600303180000,0.757179931640625,-0.08439794660806656,0.02238978219088167,0.022754852643609047
1783693600313143000,0.76714306640625,-0.1098240642875433,0.05938157877326011,0.06650982321798801
1783693600323105000,0.77710498046875,-0.11026596283614634,0.05766662808153778,0.09265241860374808
1783693600333067800,0.78706787109375,-0.09630816463232039,0.08390176058895886,0.11618220114260912
1783693600343030000,0.797030029296875,-0.05881517706215381,0.10577204895038157,0.13807817193455993
1783693600352993000,0.806992919921875,-0.06703180126547813,0.13527783715892583,0.1204237111698836
1783693600362956000,0.8169560546875,-0.0921820246130228,0.13207220951803028,0.06791421012319623
1783693600372918000,0.82691796875,-0.1001554877102375,0.10812226533833891,-0.005737155412510037
1783693600382881000,0.836881103515625,-0.11669278101325034,0.0469821159273386,-0.06299202435538172
1783693600392843000,0.846843017578125,-0.1184247193723917,-0.02670578222647309,-0.09559285596981644
1783693600402806000,0.856805908203125,-0.11384615941047668,-0.05377601385116577,-0.11607048439644277
1783693600412768000,0.86676806640625,-0.08900222553312778,-0.07109327855072915,-0.1114632828619331
1783693600422731000,0.87673095703125,-0.023698270973563192,-0.07148954785931855,-0.05159932739920914
1783693600432693000,0.88669287109375,0.027543255963921546,-0.018737799021974203,0.03226597363688052
1783693600442656000,0.896656005859375,0.03374678677916527,0.01943323394022882,0.10436039205417036
1783693600452618800,0.90661865234375,0.03633972588181496,0.03540386980380863,0.13995463333092628
1783693600462581000,0.9165810546875,0.002514028647542,0.06672204119656235,0.16241269498504698
1783693600472544000,0.9265439453125,-0.021010639324784277,0.09759097098447382,0.16126301349326969
1783693600482506000,0.936506103515625,-0.02805412809550762,0.056537258725427086,0.14837693617418407
1783693600492468700,0.94646875,-0.01594166549742222,0.022345066266320643,0.0869730577930808
1783693600502431000,0.956430908203125,-0.0340460619866848,-0.0164046433666721,0.015364596261829138
1783693600512394000,0.96639404296875,-0.008095043650269508,-0.03837335060127079,-0.024600991966947913
1783693600522356000,0.97635595703125,0.004723521390557289,-0.03998264896143228,-0.03555617428869009
1783693600532318700,0.986318603515625,0.013816928428411483,-0.017806253792904316,-0.045311479301378126
1783693600542282000,0.996281982421875,-0.005042085820436477,0.007587861313112079,-0.015859759367629886
1783693600552244000,1.006243896484375,-0.013656184908747673,0.027962321626208722,0.0009829466227442025
1783693600562207000,1.01620703125,-0.004130816194415092,0.04165850975178182,0.03657484981194138
1783693600572169000,1.0261689453125,0.0009071779727935791,0.07075761685557663,0.06450359796211123
1783693600582132000,1.036132080078125,-0.01876198361515999,0.08265552338752895,0.0637560675304383
1783693600592094000,1.046093994140625,-0.03917173443734646,0.07232640054225921,0.045013665398582814
1783693600602057000,1.056056884765625,-0.05463876816034317,0.05611643949747085,0.027387042488902804
1783693600612019000,1.06601904296875,-0.059632338663935656,0.02867251572217792,0.0008692571152001619
1783693600621982000,1.07598193359375,-0.0459013349533081,0.0024985388174653053,-0.053530879983678455
1783693600631945000,1.085945068359375,-0.02539630706310272,-0.029986959321610628,-0.07586012762635946
1783693600641907000,1.095906982421875,0.018018471771478653,-0.07082520219907164,-0.09918620428666472
1783693600651870000,1.105869873046875,0.035088849037885665,-0.06250544641483574,-0.09492525890655815
1783693600661832000,1.11583203125,0.027069208711385725,-0.011631620278581976,-0.04422952928356826
1783693600671795000,1.125794921875,-0.018519407030940054,0.026657486105337736,0.020651012232154608
1783693600681757000,1.1357568359375,-0.06420213079750538,0.06226937263663858,0.06446976875774561
1783693600691720000,1.145719970703125,-0.12328911053836344,0.059357832571491596,0.066289750726521
1783693600701682000,1.155681884765625,-0.16325228761434554,0.04502703633680939,0.032858751898258924
1783693600711645000,1.16564501953125,-0.17076690102815628,0.01293550595138222,-0.001197831482440233
1783693600721607000,1.17560693359375,-0.13040098837018013,-0.027609343470074234,-0.011335633006691931
1783693600731570000,1.18556982421875,-0.10194996991157532,-0.042089521580189464,-0.009591346622630953
1783693600741533000,1.195532958984375,-0.08785831619501114,-0.036803580533899365,0.010376067259535193
1783693600751495000,1.205494873046875,-0.07372048524916172,-0.022110161531902848,0.06252696412689983
1783693600761458000,1.2154580078125,-0.08318564820885657,-0.002947159367799759,0.08497267775610089
1783693600771420000,1.225419921875,-0.06516308478415012,0.016086663458682596,0.10034100034497678
1783693600781383000,1.2353828125,-0.02273848603069782,-0.006235935247503221,0.10455854497477411
1783693600791345000,1.245344970703125,0.009648118311166763,-0.00834383077956736,0.07060425292477011
1783693600801308000,1.255307861328125,0.03219078950881958,0.002967508036084473,0.030758418618142602
1783693600811270000,1.265269775390625,0.05165127678215503,-0.006513363949395716,0.022677622688934206
1783693600821233200,1.275233154296875,0.08223170848488807,0.008870631132647395,-0.005095350377634167
1783693600831196000,1.28519580078125,0.06360241133868694,0.0003752265205606818,-0.0363393605556339
1783693600841158000,1.295157958984375,0.038273324292898175,-0.020958032354712487,-0.08229754026271402
1783693600851121000,1.305120849609375,-0.00452653751373291,0.0025371172621846197,-0.10019545439444481
1783693600861083100,1.315083251953125,-0.006850012025237083,0.009049385233037173,-0.07561367858462036
1783693600871046100,1.325046142578125,-0.042163317468762396,0.008350406650826335,-0.05200578930824995
1783693600881007900,1.3350078125,-0.05307458758354187,0.026363544660061595,-0.042041663850471374
1783693600890971000,1.344970947265625,-0.06072130294442177,0.025284553784318268,-0.02250321597009897
1783693600900933000,1.35493310546875,-0.07768354366123675,0.013601714775152504,0.0013248188629746435
1783693600910896000,1.364896240234375,-0.06250760183930397,0.011187858566455542,0.025079861525073646
1783693600920859000,1.37485888671875,-0.049590837121009826,0.009043211220577359,0.06004734920561313
1783693600930820900,1.38482080078125,-0.034332477712631225,-0.010271255178190768,0.09731836458817124
1783693600940783900,1.394783935546875,-0.04340893361568451,-0.019296346220187843,0.09926241132803261
1783693600950746000,1.40474609375,-0.07211889527142047,-0.015515001050569115,0.0707837011449039
1783693600960708900,1.414708984375,-0.08306406765580177,-0.01118986786045134,0.07392521404102444
1783693600970670800,1.4246708984375,-0.13046353221237658,-0.011412680298276245,0.07748816721960902
1783693600980633900,1.4346337890625,-0.17714345032274723,0.017726283891871572,0.026588220261409876
1783693600990596000,1.44459619140625,-0.1842816316395998,0.04032755340896547,0.009758666013553737
1783693601000558800,1.454558837890625,-0.11178279713988304,-0.007790544278360903,0.03563026243820786
1783693601010521900,1.46452197265625,-0.03887771992683411,-0.052399062942154705,0.03199490161053836
1783693601020484000,1.474484130859375,-0.0069815294504165645,-0.04687273726873099,-0.020446283440291882
1783693601030447000,1.484447021484375,0.018811667975783347,-0.018250198168121276,-0.016864625561237336
1783693601040408800,1.494408935546875,0.07785773118436336,-0.014997881841287017,0.022568097899854183
1783693601050371800,1.504371826171875,0.09532558333575725,-0.004295468704216182,0.053458764595538374
1783693601060334000,1.514333984375,0.07362579270303249,0.02849664769861847,0.06086641050353646
1783693601070297000,1.524297119140625,0.06218553027808666,0.056200610649585724,0.07116627072170377
1783693601080258800,1.5342587890625,0.028171032473444938,0.05187456414401531,0.06696757692284881
1783693601090221800,1.544221923828125,-0.004042553389072418,0.02601232006959617,0.022594328319653866
1783693601100184000,1.55418408203125,-0.06643734250366687,-0.0010871741821989417,-0.028577275186777114
1783693601110147000,1.56414697265625,-0.08314473167657851,-0.038791466415487225,-0.07453421278484165
1783693601120110000,1.574110107421875,-0.044320203241705894,-0.07977693574391305,-0.05747545289099216
1783693601130071800,1.58407177734375,-0.009886018720269202,-0.08918295239489525,-0.02793495869524777
1783693601140034800,1.594034912109375,-0.02682663212716579,-0.060940169859491286,0.008013429781422018
1783693601149997000,1.6039970703125,-0.04365443280935287,-0.011216171345487237,0.06676350571811199
1783693601159960000,1.6139599609375,-0.0651724371343851,0.02596669082958251,0.11435995415151119
1783693601169921800,1.623921875,-0.0962736778408289,0.029775581593252717,0.11355229103043675
1783693601179884800,1.633884765625,-0.14904197595417498,0.023553199947066603,0.11042824072577058
1783693601189847000,1.643846923828125,-0.1138192714035511,0.006715498925372957,0.07423062672838568
1783693601199810000,1.65381005859375,-0.07368482941389083,-0.015112302001193165,0.06577895166017114
1783693601209773000,1.66377294921875,-0.07058686339855194,-0.0067641969053074714,0.04995024501793086
1783693601219734800,1.67373486328125,-0.08967793283760547,-0.00003287935629487037,0.025070070783421397
1783693601229698000,1.683697998046875,-0.09706921213269233,-0.009702113520726561,0.029048692090809344
1783693601239660000,1.693659912109375,-0.04368248986005783,0.010720642913505435,0.04043145217485725
1783693601249623000,1.703623046875,-0.008997545447945595,0.04137454171124846,0.07425137725546956
1783693601259585000,1.7135849609375,-0.015462942069768905,0.05506908586900681,0.07598711500689387
1783693601269548000,1.723548095703125,0.008318331012129783,0.02696271612960845,0.07359510530382395
1783693601279510000,1.733510009765625,0.05366670825779438,0.004188099339604377,0.05217508146055042
1783693601289473000,1.74347314453125,0.03542962529957294,0.020153584104031324,0.05037066238708794
1783693601299435000,1.75343505859375,-0.014658055427670479,0.015513503213226794,0.04116714603826403
1783693601309398000,1.76339794921875,-0.017277298015356064,0.011524141316115856,0.027392083990201353
1783693601319361000,1.773361083984375,-0.013586042281985282,-0.0131433034831658,0.005986746259406209
1783693601329323000,1.783322998046875,-0.002056348007917404,-0.026908867050521073,-0.015543825286254287
1783693601339285800,1.79328564453125,0.0020417349606752394,-0.022834347620606422,-0.015105287738516927
1783693601349248000,1.803248046875,0.007055763730406761,-0.004390051652491092,0.028847178169339894
1783693601359211000,1.8132109375,0.015635376027226446,0.001478073195926845,0.044791181754320855
1783693601369173000,1.823173095703125,-0.05799626189470291,0.01639594860356301,0.028147578532621263
1783693601379135700,1.8331357421875,-0.10048165092468261,0.04948321202807128,0.012860869812592863
1783693601389098000,1.843097900390625,-0.06722703157663346,0.045701903391070664,0.01754676260650158
1783693601399061000,1.85306103515625,-0.11782616895735264,0.05644439281020313,0.033964886509254576
1783693601409024000,1.86302392578125,-0.13765899667441844,0.06000650573857128,0.004488032134249806
1783693601418985700,1.87298583984375,-0.10259060590267181,0.02424465280994773,0.010337050423398613
1783693601428949000,1.882948974609375,-0.05635960060358047,-0.005397986586019397,-0.005123918884992599
1783693601438911200,1.8929111328125,-0.05476093323528766,-0.03197846193239093,-0.03455145422555506
1783693601448874000,1.9028740234375,-0.07260521748363971,-0.0011093129487708211,-0.022748495968058703
1783693601458836000,1.9128359375,-0.037005496314167975,-0.0007963014768436551,0.013329802498593925
1783693601468799200,1.92279931640625,0.007241641691327095,-0.028192002196237444,0.02933437716439366
1783693601478761200,1.93276123046875,0.0007698153287172317,0.006070405954867601,0.025276699271425604
1783693601488724200,1.94272412109375,0.018292028015851974,0.005002009538374841,0.029301643938571213
1783693601498686000,1.95268603515625,0.059174658024311065,-0.0074142217792570585,0.05033376444280147
1783693601508649200,1.962649169921875,0.07269757194221019,0.003995280181244016,0.028444077261164782
1783693601518612200,1.9726123046875,0.07221300329566001,0.011539046624302864,-0.01198167582526803
1783693601528574200,1.98257421875,0.045270051312446595,-0.0029315234072506426,-0.009074994598329066
1783693601538537000,1.992536865234375,0.01049742861688137,0.0037711525691673155,0.01289155721180141
1783693601548499200,2.002499267578125,-0.07698796261250972,0.021452391742914915,0.01222498306185007
1783693601558462200,2.012462158203125,-0.18872341347932814,0.028525289271213113,-0.009421323817968367
1783693601568424200,2.022424072265625,-0.24600948127806185,0.040459655356034636,0.005685279094800353
1783693601578387000,2.032386962890625,-0.24052725047469137,0.026542006499506533,-0.005213423799350857
1783693601588349200,2.04234912109375,-0.2291454402387142,-0.004757533258013427,-0.020410554539784787
1783693601598312200,2.052312255859375,-0.14195581708550453,-0.021721162214316428,-0.009143383659422397
1783693601608274200,2.062274169921875,-0.05467442399561405,-0.024769115075469014,0.015943784389272332
1783693601618237000,2.07223681640625,-0.044971360626816746,-0.0096274408493191,0.031595088637992735
1783693601628200000,2.082199951171875,-0.042318800291419024,-0.0019476634690538048,0.015887231896445156
1783693601638162200,2.092162109375,-0.04416355137526989,-0.00043882980868220324,0.033041122727841134
1783693601648125200,2.102125244140625,-0.0302379018753767,0.0012674261199310422,0.030267566361278295
1783693601658087000,2.1120869140625,0.010104629907011985,0.024022534491866827,0.0221402278766036
1783693601668050200,2.12205029296875,0.06308160233497619,0.009408756597340107,0.040028351266682145
1783693601678012200,2.13201220703125,0.09364800551235675,-0.008137238824181258,0.033291590357571836
1783693601687975200,2.14197509765625,0.11110475174784659,-0.02900477988384664,0.04786372106745839
1783693601697937000,2.15193701171875,0.05751520037949085,-0.005987659574858844,0.05207052510753274
1783693601707900200,2.161900146484375,-0.012529226705431938,-0.006714658675156533,0.022229148269072175
1783693601717863200,2.17186328125,-0.02759410936832428,0.004429031956009567,-0.01461655437350273
1783693601727825200,2.1818251953125,-0.021421558213233948,0.0013400164321064948,-0.022778598845377564
1783693601737788200,2.1917880859375,-0.033519407764077185,0.0044352425010874864,-0.04714388236030936
1783693601747750100,2.201750244140625,-0.055287587457895276,0.021015826956555246,-0.039229967430606486
1783693601757713200,2.211713134765625,-0.028527590826153755,0.01908131523001939,-0.010329451638832688
1783693601767675100,2.221675048828125,-0.0016658873856067657,0.03539038926772773,0.006705854314193129
1783693601777638100,2.23163818359375,-0.02763151876926422,0.04160363775938749,0.03443601115234196
1783693601787600100,2.24160009765625,-0.06687924105226993,0.03439732310976833,0.0536108133520931
1783693601797563100,2.251563232421875,-0.05002922853827476,-0.0031649303043261167,0.0932797567218542
1783693601807525000,2.261525146484375,-0.03694645960330963,-0.01820767420064658,0.11182217930220067
1783693601817488100,2.271488037109375,-0.047827919101715084,-0.008085362506471573,0.08961327010355889
1783693601827451100,2.281451171875,-0.036114100432395935,-0.01929072019699961,0.052490504085272546
1783693601837413000,2.2914130859375,-0.016799159109592437,-0.016000300349481404,0.07063552484586834
1783693601847376100,2.301376220703125,-0.019243629652261732,0.0040201588941738,0.08093516586832701
1783693601857338000,2.311338134765625,-0.06414309408664703,0.03015939327906817,0.04605002270899713
1783693601867301000,2.321301025390625,-0.03207154704332352,0.0541657438211143,0.05204531760104
1783693601877263000,2.33126318359375,0.00819908854663372,0.054972785887680946,0.046928778304904696
1783693601887226000,2.34122607421875,-0.020714871248602867,0.0444606711583212,0.004819163784757256
1783693601897188000,2.35118798828125,-0.07656827589571476,0.03653930357452482,-0.045721302211284634
1783693601907151000,2.361151123046875,-0.11809212641716002,0.01670278606303036,-0.10618658456802367
1783693601917113000,2.371113037109375,-0.16383037976324558,-0.003399652375653386,-0.12965725733079014
1783693601927076000,2.381076171875,-0.1741688184261322,-0.029280601150542495,-0.15211802239865063
1783693601937039000,2.3910390625,-0.10900105746686457,-0.040118148441985246,-0.13062924416810273
1783693601947001300,2.40100146484375,-0.014651041164994239,-0.07460526872705668,-0.037343788357824086
1783693601956964000,2.410964111328125,0.027293665117025374,-0.06778952429760247,0.015336685341596603
1783693601966926000,2.420926025390625,0.07372866855561733,-0.025704605827294287,0.08744929700270294
1783693601976889000,2.43088916015625,0.08873860616087913,0.0003653627136722207,0.13365122233778237
1783693601986851300,2.440851318359375,0.09011340164542198,0.007693257916346192,0.15417700075507162
1783693601996814000,2.45081396484375,0.08433014206886291,0.013256079675257205,0.1518336524993181
1783693602006776000,2.460776123046875,0.06660802289545535,0.014664229440130292,0.12101685475744306
1783693602016739000,2.470739013671875,0.027761867150664327,0.008431143736839295,0.08021488876976073
1783693602026701300,2.480701416015625,-0.02454407414793968,-0.011011661749333143,0.0188518538556993
1783693602036664000,2.4906640625,-0.10795242519676684,-0.03196176652591675,-0.04283858638182282
1783693602046627000,2.500626953125,-0.18552783230841158,-0.047980917706340546,-0.09285364026427269
1783693602056589000,2.510589111328125,-0.20636136150062084,-0.05909877977650612,-0.11251067302301525
1783693602066552000,2.520552001953125,-0.19606442389190196,-0.054194677654653786,-0.1245045507427305
1783693602076514000,2.53051416015625,-0.1309077688485384,-0.030751331290230152,-0.07524981370829045
1783693602086477000,2.54047705078125,-0.04455167391002178,0.0054653892664238805,0.010168854249641299
1783693602096439000,2.55043896484375,0.04211889380514622,0.04266819825097918,0.06738375650830566
1783693602106402000,2.560402099609375,0.09765665663182735,0.06977419530879705,0.11469722328186034
1783693602116364000,2.570364013671875,0.10708148758113384,0.07640581534299999,0.1269004329033196
1783693602126327000,2.5803271484375,0.09748539171814918,0.08513155811224132,0.1270072542786598
1783693602136290000,2.5902900390625,0.05154138666689396,0.07514664559476077,0.10822568918019533
1783693602146252000,2.600251953125,-0.02951367925405502,0.04192008329741657,0.035990912444144485
1783693602156215300,2.61021533203125,-0.06262216812968253,0.02184771120343357,-0.014120003028213977
1783693602166177000,2.620177001953125,-0.07329495331346988,-0.01463916806410998,-0.06079597561582922
1783693602176140000,2.63014013671875,-0.11186404568254947,-0.04072751251198351,-0.09142821057103574
1783693602186102300,2.640102294921875,-0.14956687661111354,-0.05075754281282425,-0.11307210629805922
1783693602196065300,2.650065185546875,-0.1400567054659128,-0.03207176623903215,-0.09620938043296337
1783693602206027000,2.660027099609375,-0.17043664616048335,-0.012927980232052504,-0.079402622538805
1783693602215990000,2.669989990234375,-0.169819975566864,-0.01996284730490297,-0.040642610707506535
1783693602225952300,2.6799521484375,-0.14010580530464647,-0.004085917606763542,-0.004821867198497057
1783693602235915300,2.689915283203125,-0.06666238343119621,-0.0031254750767722725,0.046098830286785956
1783693602245878300,2.699878173828125,-0.0030669863551855085,0.018219328105822205,0.11729929553903638
1783693602255840000,2.709840087890625,0.06145487791597843,0.028424605375714597,0.17332754529640076
1783693602265803000,2.719802978515625,0.07731821748018264,0.031971338071860374,0.18055596217997372
1783693602275765200,2.72976513671875,0.08802782754302024,0.038017742096632716,0.17282690229788422
1783693602285728300,2.739728271484375,0.09107084850072861,0.03391611546408385,0.13832038319259882
1783693602295690000,2.74968994140625,0.04141279136240482,0.007416779062524437,0.08975874298885464
1783693602305653000,2.759653076171875,0.0003314239114522934,0.009879735109955072,0.04198474603146314
1783693602315615200,2.769615234375,-0.060729486250877374,-0.00897679492086172,-0.03376329952254891
1783693602325578200,2.779578125,-0.10123685320615768,-0.027381781791895626,-0.09159443398341537
1783693602335541000,2.789541015625,-0.1067038864403963,-0.04891582393627614,-0.11457542353309691
1783693602345503000,2.7995029296875,-0.09511281736791133,-0.0499174387268722,-0.07765965132899581
1783693602355466200,2.80946630859375,-0.07549567822813988,-0.023279570637457073,-0.02780914035849273
1783693602365428200,2.81942822265625,-0.041698038044571874,-0.023497305041365324,0.01624189055301249
1783693602375391000,2.829390869140625,-0.02616495334804058,0.018914215034805237,0.06373349037244916
1783693602385353200,2.839353271484375,-0.010645312654972075,0.029957514031417665,0.09789470317140221
1783693602395316200,2.849316162109375,-0.015478724160790443,0.043687202567793425,0.10801920682266354
1783693602405278200,2.8592783203125,-0.04227437662780285,0.06818626853022725,0.11207337758429348
1783693602415241000,2.869240966796875,-0.05813304001688957,0.08826550875641405,0.09556742926761508
1783693602425203200,2.879203125,-0.07727730094790458,0.04063461006414145,0.04496799962595105
1783693602435166200,2.889166259765625,-0.054226095706224435,0.0022044877743348477,0.021828093187510965
1783693602445129200,2.899129150390625,-0.036389410242438316,-0.023116050638817248,0.010846461250260472
1783693602455091000,2.909091064453125,-0.038918636459112164,-0.04878521982654929,0.006000336393341422
1783693602465054000,2.919053955078125,-0.03698386900424957,-0.031033947623893617,0.022078195491060614
1783693602475016200,2.92901611328125,-0.06604512831568718,-0.03269070185497403,0.02359137653298676
1783693602484979200,2.938979248046875,-0.09717851772606373,-0.037319494166783984,0.024173487269878387
1783693602494941000,2.94894091796875,-0.11394377456605434,-0.000685863372310996,0.031234365566819904
1783693602504904000,2.958904052734375,-0.106019995829463,0.006805588361620903,0.10049699462428688
1783693602514866200,2.9688662109375,-0.07656593780815601,0.045440950899943704,0.09062208181992172
1783693602524829200,2.9788291015625,-0.06542787320017815,0.051094446616992355,0.06949826444424688
1783693602534791000,2.988791015625,-0.09295125541985035,0.029389833678677677,0.05111322438269853
1783693602544754000,2.99875390625,-0.0840039788544178,0.02666296599805355,0.024734262957796453
1783693602554717200,3.00871728515625,-0.09002806144952774,0.023434249742515383,-0.0035731092464178797
1783693602564679200,3.01867919921875,-0.08241232574880122,0.023042839272134005,-0.037951544992625715
1783693602574642200,3.02864208984375,-0.05856675525903701,0.008656988381966949,-0.04364434980675578
1783693602584604000,3.03860400390625,0.010183540362119674,-0.010565196623466909,-0.03650638768561184
1783693602594567200,3.048567138671875,0.04104688065946102,-0.0002817760834470391,-0.026329788520932196
1783693602604529200,3.058529052734375,0.04782090483903884,0.025310747671499847,0.009285860870033502
1783693602614492200,3.0684921875,0.05775894600749015,0.025572869206406175,0.011320508502796292
1783693602624454100,3.0784541015625,0.021019407153129575,0.032967947893775995,-0.0010415449421852826
1783693602634417200,3.088417236328125,-0.02716565482318401,0.039358379583247005,-0.016205211804434655
1783693602644379100,3.098379150390625,-0.03716214818060398,0.024681802118197083,-0.02267711123228073
1783693602654342100,3.108342041015625,-0.05918576394021511,0.026418343587219714,0.0011607874076813459
1783693602664305000,3.118304931640625,-0.07628828991055488,0.034984402282722295,0.019954919726774094
1783693602674267100,3.12826708984375,-0.02768997095823288,0.005253828874975442,0.009259118993580341
1783693602684230100,3.138230224609375,-0.026255554240942,-0.027399463579058647,-0.022426278276368974
1783693602694192000,3.148192138671875,-0.03983107512891292,-0.034391697086580096,-0.0207569568246603
1783693602704155000,3.15815478515625,-0.06866963160037994,0.005164470091089606,-0.005475654932111502
1783693602714117000,3.1681171875,-0.06859539732038974,0.0357715706050396,0.007048384141549468
1783693602724080000,3.178080078125,-0.06525719280838967,0.05050437176935375,0.028971608266606927
1783693602734042000,3.1880419921875,-0.08051146056354046,0.053985272687673565,0.005177914094552398
1783693602744004900,3.1980048828125,-0.041109424501657485,0.03578731616344303,-0.026036796923726794
1783693602753967000,3.207967041015625,0.01375730719566345,0.009308109234459698,-0.04138882596492767
1783693602763930000,3.21793017578125,0.014461071550846099,-0.009289842925406992,-0.05454655983224511
1783693602773893000,3.22789306640625,0.0015624270111322402,-0.02061228765696287,-0.05577325208298862
1783693602783854800,3.237854736328125,0.0003542202651500702,0.02642985136192292,-0.05771203812584281
1783693602793818000,3.247818115234375,-0.00010930559337139129,0.04876768416985869,-0.022520386300608514
1783693602803780000,3.257780029296875,-0.008953121784329414,0.029299305851012467,0.014940087239444256
1783693602813743000,3.2677431640625,-0.0014934534281492232,0.01866403966601938,0.034723961248248815
1783693602823704800,3.277704833984375,-0.016477672070264817,-0.0064845397137105465,0.043693814971670505
1783693602833668000,3.287668212890625,-0.03321837899088859,-0.0116722810825333,0.010918649703636764
1783693602843630000,3.297630126953125,-0.03539630755186081,-0.017159334191493687,0.051431934943050144
1783693602853593000,3.307593017578125,-0.05853051490187645,-0.02309533664435148,0.07458367794975639
1783693602863555000,3.31755517578125,-0.07828034051060676,-0.015804741244763134,0.06087810094133019
1783693602873518000,3.32751806640625,-0.10946809045672416,0.0045329672545194625,0.06970452760607004
1783693602883481000,3.337481201171875,-0.11120353594720363,-0.0037644671000540255,0.09924436421468853
1783693602893443000,3.347443115234375,-0.05964987432062625,-0.002677219852618873,0.10927987440824508
1783693602903406000,3.357406005859375,-0.027798107507824896,-0.0016011515863239764,0.1015927539717406
1783693602913368000,3.3673681640625,0.03487959020137787,0.013989581581577658,0.1075402641993016
1783693602923331000,3.3773310546875,0.04111994589567184,0.02770180752649903,0.08063479468226432
1783693602933293000,3.38729296875,0.032124738535285,0.02500778266955167,0.02544482237994671
1783693602943256000,3.397256103515625,-0.0455441920787096,0.009041092328727246,-0.035171631950512525
1783693602953218000,3.407218017578125,-0.0818605370849371,0.007721680293232202,-0.09606595337428152
1783693602963181000,3.41718115234375,-0.05451777212917804,-0.01085921113397926,-0.08609386380575597
1783693602973143000,3.42714306640625,-0.022529227194190024,-0.03755260880291462,-0.06060132982656359
1783693602983106000,3.43710595703125,-0.045180619463324544,-0.05115125483814627,-0.061954644131660457
1783693602993069000,3.447069091796875,-0.044375148299336434,-0.04648150946144014,-0.0501760165978223
1783693603003031000,3.457031005859375,-0.05996142448782921,-0.04095551258157938,0.007451265854015946
1783693603012994000,3.466994140625,-0.11376374182403087,0.006017616321705281,0.04473784413188696
1783693603022956000,3.4769560546875,-0.15583879648745058,0.020979696197248994,0.061088090430200095
1783693603032919300,3.486919189453125,-0.1607698231488466,0.0159975969357416,0.06547222379855812
1783693603042881000,3.496881103515625,-0.08820727576315403,-0.006482640017569065,0.10003361489623784
1783693603052844000,3.506843994140625,-0.004402034351229668,-0.017683832989633084,0.14798399133384227
1783693603062806000,3.516805908203125,0.06427461151182651,-0.014102028980106115,0.13611191336289047
1783693603072769300,3.526769287109375,0.12153846747875213,-0.009409669912792741,0.1476825241692364
1783693603082731000,3.53673095703125,0.11863164012134074,0.003960099270008504,0.1172081831894815
1783693603092694000,3.546694091796875,0.03326923239529132,0.016681085687875748,0.06320537484511733
1783693603102657000,3.556656982421875,-0.07255611764490603,0.02927698442135006,0.00019289222359657285
1783693603112619300,3.566619384765625,-0.1274427230864763,0.00883658273257315,-0.06668642189390957
1783693603122582000,3.57658203125,-0.09760229609608649,-0.03171257753781974,-0.06607208938784898
1783693603132544000,3.5865439453125,-0.07720072858035563,-0.03916245515234768,-0.08660948517769575
1783693603142507000,3.596507080078125,-0.022364976543188093,-0.051950880783237514,-0.09205700999386608
1783693603152469200,3.60646923828125,0.011385317367315292,-0.05928202738892287,-0.07485365399755536
1783693603162432000,3.616431884765625,0.03483341297209263,-0.04721577855274081,-0.052247050718218085
1783693603172394000,3.62639404296875,0.04647416640520095,-0.0051766719855368135,-0.012986176692694425
1783693603182357000,3.63635693359375,0.020678046369552613,0.039209947555884715,0.06558087180480361
1783693603192320000,3.646320068359375,-0.041941199150681494,0.06146090579796582,0.08700016499571502
1783693603202282200,3.6562822265625,-0.06612754590213299,0.056648500547558066,0.08850004816465079
1783693603212245000,3.666244873046875,-0.10248597648441791,0.03688322164136916,0.0719908849775791
1783693603222207000,3.67620703125,-0.09931611427664756,0.0033254911608994004,0.021037381201237437
1783693603232170000,3.686169921875,-0.06859364375472068,-0.03188161396179348,-0.00755282653234899
1783693603242132200,3.69613232421875,-0.06454816775619983,-0.05100315160434693,-0.01164959432668984
1783693603252095000,3.706094970703125,-0.05130582434535026,-0.05226137150451541,-0.008704553850740194
1783693603262057000,3.716056884765625,-0.09079904582202435,-0.03782305977474898,0.014717165203765033
1783693603272020200,3.726020263671875,-0.11503390789031982,-0.015293028862960635,-0.002505553080141544
1783693603281982200,3.735982177734375,-0.08836217406392097,0.012938538158684967,0.0107096100628376
1783693603291945000,3.745945068359375,-0.09008534459471702,0.035505941938795145,0.049348991189152
1783693603301908000,3.755907958984375,-0.009829320096969603,0.04244881987925619,0.086256068630144
1783693603311870200,3.7658701171875,0.06339022989273072,0.054749681188911194,0.07177380816079676
1783693603321833200,3.775833251953125,0.12736848880648613,0.06114767513033002,0.07761179359927774
1783693603331795000,3.785794921875,0.13858663291335105,0.02094652458000928,0.0391916081815958
1783693603341758000,3.795758056640625,0.10255845719873904,0.0027538652854040262,-0.008312266597524284
1783693603351720200,3.80572021484375,0.04058393932282924,0.003992211441323161,-0.03740070617683232
1783693603361683200,3.81568310546875,0.01652794095277786,-0.008403780805878341,-0.08243139577545225
1783693603371645000,3.82564501953125,-0.0018202011644840239,-0.02962214459720999,-0.07229702831730246
1783693603381608000,3.83560791015625,-0.022710428979992866,-0.030927856900915502,-0.050754693268612025
1783693603391570200,3.845570068359375,-0.05314180760085582,0.01311528296507895,-0.05189779888913035
1783693603401533200,3.855533203125,-0.0657692339837551,0.023015147547610103,-0.01071319025941193
1783693603411496200,3.86549609375,-0.06315934374630451,0.03168010004032403,-0.0037730157326906918
1783693603421458000,3.8754580078125,-0.05324468345344066,0.023424787794426083,-0.018066694827377796
1783693603431421000,3.8854208984375,-0.06835866595506668,-0.0016049875112250447,-0.008738236924633384
1783693603441383000,3.8953828125,-0.07752806083858013,0.0206131644397974,0.002030409849062562
1783693603451346000,3.905345947265625,-0.08671499137878418,0.03872494051791727,0.010539660323411226
1783693603461307600,3.9153076171875,-0.09009411242306233,0.02360029049180448,0.0447570602890104
1783693603471271000,3.92527099609375,-0.0996194811373949,0.019611768844909967,0.05706869872100651
1783693603481233000,3.93523291015625,-0.10407353793680667,0.013062310668826103,0.03350947089195251
1783693603491196000,3.94519580078125,-0.11736322762072085,0.013776706015877424,0.009332184229791164
1783693603501158000,3.955157958984375,-0.10180617752671241,-0.004336239106021821,-0.010178133534640072
1783693603511121000,3.965120849609375,-0.10591478188931941,-0.008400273674540222,-0.00768419782705605
1783693603521084000,3.975083984375,-0.13401976338922977,0.012337503525614737,-0.00391490842141211
1783693603531046000,3.9850458984375,-0.13401274912655353,0.022116335544362663,-0.02871171522140503
1783693603541008600,3.995008544921875,-0.10976152044534683,0.013662030127644538,-0.04303483960628509
1783693603550971000,4.004970947265625,-0.017246318355202673,-0.038581623057089745,-0.04911423258520663
1783693603560934000,4.014933837890625,0.10254209058582782,-0.049207281163521105,-0.03899915434941649
1783693603570896000,4.024895751953125,0.15549275952875613,-0.04983662857562303,-0.02588182555772364
1783693603580858600,4.034858642578125,0.14531857151687144,-0.034483795816823835,0.013687602960318327
1783693603590820900,4.04482080078125,0.08478314653337002,0.03351264922972769,0.04747647531554103
1783693603600784000,4.054783935546875,0.015939327409863473,0.04708751253057271,0.06495470273047685
1783693603610745900,4.064745849609375,-0.016669395250082014,0.07238547378573566,0.07637647965066134
1783693603620708900,4.074708984375,0.0074491469621658325,0.03441434730980545,0.0799352681107819
1783693603630671600,4.084671630859375,0.004935702836513519,-0.003870448225177824,0.03323299203813076
1783693603640633900,4.0946337890625,-0.00006429740786552428,-0.016084727229923008,-0.0141761901948601
1783693603650596900,4.104596923828125,0.01696808593571186,-0.05162351199239492,-0.027161636235192417
1783693603660558800,4.114558837890625,0.008946107521653176,-0.043833807964250446,0.02431318800151348
1783693603670521900,4.12452197265625,-0.06781506059765816,-0.03145082132909447,0.012627353317663072
1783693603680483800,4.13448388671875,-0.14459084176421164,-0.02599409029316157,-0.0023584727596491573
1783693603690446800,4.14444677734375,-0.18368366574645043,-0.020174663424678146,0.040091260435059665
1783693603700408800,4.154408935546875,-0.19198738371133803,-0.008846117745898663,0.06036262569986284
1783693603710371800,4.164371826171875,-0.15600246261656284,0.0029554157394915815,0.046855274677276605
1783693603720333800,4.174333740234375,-0.08068155643343924,-0.012659757749922573,0.07006093982830643
1783693603730296800,4.184296875,-0.02640577636659145,-0.0029453327368944883,0.09877236278876661
1783693603740259800,4.194259765625,-0.03682312548458576,0.0029235958291217684,0.08918371957987546
1783693603750221800,4.204221923828125,-0.07820727527439594,0.014892777498997747,0.06961940660588443
1783693603760184800,4.214184814453125,-0.07321312024891376,0.00015398498531430958,0.024095380532369017
1783693603770146800,4.224146728515625,-0.04595043479204178,-0.018665756699070335,0.015125015352293849
1783693603780109800,4.23410986328125,-0.03051496525108814,-0.03995013493131846,0.01978138979077339
1783693603790071800,4.24407177734375,-0.0027630349725484846,-0.05411653438452631,-0.009687208212539553
1783693603800034800,4.254034912109375,0.037080899637937544,-0.03302183350548148,-0.029020342779159543
1783693603809996800,4.263996826171875,0.009800678524374962,0.015554127484560011,0.018339228158444167
1783693603819959800,4.273959716796875,-0.02930734302699566,0.027659575819969175,0.06477664274983108
1783693603829921800,4.283921875,0.013978840991854667,0.029341026100888845,0.07361892457082868
1783693603839884800,4.293884765625,0.06932429611682892,0.027994141536578535,0.06291603650972247
1783693603849847800,4.303847900390625,0.03455634959638119,0.01684690724145621,0.0513688796442002
1783693603859809800,4.313809814453125,0.01702127742767334,-0.020070362799987196,0.04102591093666851
1783693603869772800,4.323772705078125,0.003542202651500702,-0.0444086852427572,0.02354351880326867
1783693603879734800,4.33373486328125,-0.03982932156324386,-0.055847084504179655,-0.01113302310667932
1783693603889697800,4.34369775390625,-0.13086100709736345,-0.034490006361901755,-0.02707951090969145
1783693603899659800,4.35365966796875,-0.1650023461520672,-0.00016633301023393868,-0.007545520008727907
1783693603909622800,4.363622802734375,-0.1411415780931711,0.0027169673411175607,0.03980849797092378
1783693603919584800,4.373584716796875,-0.1238186873704195,0.010216602381505072,0.04338927906714379
1783693603929547800,4.3835478515625,-0.12690788555741309,0.041750645014643664,0.049758667968586086
1783693603939509800,4.393509765625,-0.06284019479453563,0.02949172315057367,0.04906462128981948
1783693603949473000,4.40347314453125,-0.03095160310268402,0.0347772258054465,0.07577683325707912
1783693603959434800,4.413434814453125,-0.008766659301519394,0.05145206441562623,0.06478168425112962
1783693603969397800,4.423397705078125,0.05828384666442871,0.04330613082833588,0.07969371443986892
1783693603979360800,4.43336083984375,0.07711305029690266,0.029260435145348308,0.06676869334988296
1783693603989323000,4.443322998046875,0.03823942202329635,0.01367068835813552,0.0006336947936564683
1783693603999286000,4.4532861328125,0.014455226331949234,-0.012878515067137776,-0.06944682651795446
1783693604009247700,4.463247802734375,0.00032908582389354704,-0.043098589024879036,-0.08815883351154626
1783693604019210800,4.473210693359375,-0.03649111705124378,-0.036672939891554415,-0.09638809800073504
1783693604029173000,4.483173095703125,-0.05486673169732093,-0.045129291134886444,-0.10565846904069184
1783693604039136000,4.493135986328125,-0.07176233691871166,-0.024773316326551137,-0.06056114394664764
1783693604049097700,4.50309765625,-0.0820996065378189,-0.0009200009217485785,-0.000276259658113122
1783693604059060700,4.513060791015625,-0.068867199999094,0.021635237496532497,0.043595176902785894
1783693604069023000,4.52302294921875,-0.050801966476440426,0.026974370034784076,0.09362667046338319
1783693604078986000,4.532986083984375,-0.08127835328280925,0.04664236257895827,0.10531367419101298
1783693604088948700,4.54294873046875,-0.12039689622819423,0.04872041096203029,0.06917692353539169
1783693604098910700,4.55291064453125,-0.11891864036917686,0.019076346793957054,0.06552534222528338
1783693604108873700,4.562873779296875,-0.07991466371417046,-0.0009846636557951569,0.051563671563938256
1783693604118836000,4.5728359375,-0.06491174037158488,-0.026499519064649937,0.03957783102020621
1783693604128798700,4.582798828125,-0.07406827577352523,-0.020171558152139186,0.04333806033656001
1783693604138760700,4.5927607421875,-0.09148118286728858,-0.02453892304878682,0.0278595553714782
1783693604148724000,4.602723876953125,-0.07495967165529728,-0.037833215842582285,0.013416823194921016
1783693604158686000,4.61268603515625,-0.06755787096619606,0.015685389181412754,0.011587415810674429
1783693604168648700,4.622648681640625,-0.05456628744602203,0.05140055342409759,0.041973347854614255
1783693604178610700,4.632610595703125,-0.024943887120485304,0.08120528804659843,0.05567454094886779
1783693604188574000,4.642573974609375,-0.009980711266398429,0.04783942687641829,0.05467055153809487
1783693604198537000,4.652536865234375,0.03893091141879558,0.01855455140955746,0.04413271784558892
1783693604208498700,4.662498779296875,0.07066928098499775,0.006431640482693911,0.0019071487955749033
1783693604218461700,4.672461669921875,0.08109832054078578,-0.015690467215329407,-0.01878361092507839
1783693604228424000,4.682423828125,0.06705752022862434,-0.03547163781039417,-0.04947327515594661
1783693604238387000,4.692386962890625,0.08808511068820953,-0.03995397085621953,-0.051523485684022305
1783693604248348700,4.7023486328125,0.06260054081976413,-0.02487750735338777,-0.02390840659290552
1783693604258311700,4.712311767578125,-0.009112696260213852,0.01324219728037715,-0.003953486866131424
1783693604268274000,4.72227392578125,-0.05797697267234325,0.040090383652225135,0.025871377228945492
1783693604278237000,4.73223681640625,-0.11623159324228763,0.07632657609432936,0.04197890081256628
1783693604288198700,4.74219873046875,-0.1946025346457958,0.10173676555231213,0.03369140333011746
1783693604298161700,4.75216162109375,-0.20443010117709637,0.09166874132864176,0.018534604600071905
1783693604308124700,4.762124755859375,-0.12237900995612144,0.02951988979913294,-0.021481763967871666
1783693604318087000,4.7720869140625,-0.04511515301167965,-0.003500701597332954,-0.052215121209993956
1783693604328050000,4.7820498046875,0.02246843691766262,0.004645633848756552,-0.04054024631157517
1783693604338011600,4.79201171875,0.0661269613802433,-0.0036242183791473505,-0.019015519984811543
1783693604347974700,4.801974609375,0.06174304720759392,0.01753832357171923,-0.02751702554412186
1783693604357937000,4.81193701171875,-0.009084639209508895,0.004442293296381831,-0.016616934410482644
1783693604367900000,4.82189990234375,-0.05778875662386417,-0.002879245230741799,-0.0025449352424591776
1783693604377861600,4.831861572265625,-0.10545885481536388,-0.005749211176484823,-0.005262158311903476
1783693604387825000,4.841824951171875,-0.10686404543817042,-0.01357961254119873,0.0028538550611585376
1783693604397787000,4.851786865234375,-0.08774550347030162,-0.03434018609505147,0.043231312026456
1783693604407750000,4.86175,-0.08334405364096165,-0.045539114044792946,0.03569273321516812
1783693604417711600,4.871711669921875,-0.060868602460622784,-0.04536847018562257,0.05096870134547352
1783693604427675000,4.8816748046875,-0.05667231981456279,-0.004914879244193434,0.07450695945173502
1783693604437638400,4.891638427734375,-0.0650549482345581,0.01606178474575281,0.0771902802515775
1783693604447600000,4.90160009765625,-0.08994739742875099,0.028140527737326917,0.11033880887664854
1783693604457563100,4.911563232421875,-0.10862111823856829,0.04635525273326784,0.13007014898061753
1783693604467525000,4.921525146484375,-0.12344926953613758,0.059867645257152616,0.11180025973133742
1783693604477488400,4.93148828125,-0.1429237853348255,0.05562766959983855,0.08409362989924847
1783693604487450000,4.9414501953125,-0.11408639790713787,0.03927106662597507,0.047326180124655365
1783693604497413000,4.9514130859375,-0.10709668515026569,0.033264994611591096,0.01579012819752097
1783693604507375400,4.961375244140625,-0.1042640920728445,0.04622428329735994,-0.031234073305875062
1783693604517338400,4.97133837890625,-0.08223112396299838,0.029537461988441645,-0.03218180248476565
1783693604527300400,4.98130029296875,-0.01903670890331268,0.03400755660720169,-0.010438099645078181
1783693604537263000,4.99126318359375,0.06793781019449234,0.016390249515138566,0.012228051801770924
1783693604547226000,5.00122607421875,0.11021803204119204,0.012182714822702109,0.029437618343159555
1783693604557188400,5.011188232421875,0.12686989163458345,0.020688860024511813,0.023223639199137686
1783693604567151400,5.0211513671875,0.19092063126266,0.013659582442231475,0.06195595930591225
1783693604577113000,5.031113037109375,0.22971359551548956,0.001737125990912318,0.06887669847980141
1783693604587076000,5.041076171875,0.15676409463882446,0.0202182468380779,0.07426730547696352
1783693604597038300,5.051038330078125,0.07625497216284274,0.04877188542094081,0.0527757507674396
1783693604607001300,5.06100146484375,-0.03562193300127983,0.046597646654397244,0.06784333684407175
1783693604616963000,5.070963134765625,-0.14046119461357592,0.06039506666474044,0.054011868433654305
1783693604626926000,5.080926025390625,-0.197395964756608,0.06559888238552958,0.0038206542667001482
1783693604636888300,5.090888427734375,-0.1844517275094986,0.03735032769646495,0.00986716788932681
1783693604646851300,5.100851318359375,-0.1587134751409292,0.0042528716715052725,-0.012238427065312862
1783693604656814300,5.110814453125,-0.14056114785671234,-0.027844723128527402,-0.03030110330469906
1783693604666776000,5.120776123046875,-0.13269231417775154,0.010211999271623789,-0.018942893140017986
1783693604676739300,5.1307392578125,-0.11083996333181857,0.029130853948928413,0.031224355629459022
1783693604686701300,5.140701416015625,-0.07902619044184685,0.03651541124228388,0.049106414604932064
1783693604696664300,5.150664306640625,-0.09807926595807075,0.041809206801466645,0.03203121503293514
1783693604706626300,5.160626220703125,-0.10420213275253772,0.05879362281747162,0.03276047915555536
1783693604716589300,5.17058935546875,-0.048043023157119745,0.05587905054502189,0.06127163030356168
1783693604726551300,5.18055126953125,0.006619125878810883,0.04492934811599553,0.06175393392778933
1783693604736514300,5.190514404296875,0.006048632514476775,0.03201459269169718,0.04087846528999507
1783693604746476300,5.200476318359375,-0.018159926068782806,0.028280045805871484,0.02801942210830748
1783693604756439300,5.210439208984375,-0.03639116380810738,0.005235964424721897,0.022579496076703072
1783693604766402300,5.22040234375,-0.03918459391891956,-0.01802197890281677,-0.010931363054737448
1783693604776364300,5.2303642578125,0.004758008182048797,-0.01719228661302477,-0.0069360098082572215
1783693604786327000,5.2403271484375,0.03620879297852516,-0.00023084961380809545,0.0038631051689386364
1783693604796289300,5.250289306640625,0.060544777333736415,-0.025767697658762335,0.02226531556099653
1783693604806252300,5.260252197265625,0.11891279515028,-0.008013722042366863,0.02260974508449435
1783693604816214300,5.27021435546875,0.11266250258386135,0.04493687383532524,0.04771167231090367
1783693604826177300,5.28017724609375,0.039833997738361354,0.08688910583667457,0.043844767749682066
1783693604836139300,5.29013916015625,-0.006084872871637344,0.06320837051980197,0.025192747315019366
1783693604846102300,5.300102294921875,-0.02624327928125858,0.0322746318673715,0.009872282455861569
1783693604856064300,5.310064208984375,-0.07895020259618758,0.005587956200167536,-0.017617708950862287
1783693604866027300,5.32002734375,-0.11009235983490943,0.012739581520482896,-0.02143960532657802
1783693604875990300,5.329990234375,-0.10134323619008063,0.01952317724600434,0.0229104815967381
1783693604885952300,5.3399521484375,-0.09134206665754317,0.011965966799482702,0.049352717516198755
1783693604895915300,5.349915283203125,-0.11915946338772773,0.03224116798918694,0.07480623465925455
1783693604905877200,5.359877197265625,-0.12565467062592506,0.036613610919751224,0.0795902540653944
1783693604915840300,5.36984033203125,-0.08940905276834964,0.01557882353439927,0.08742394336573779
1783693604925802200,5.37980224609375,-0.029845103165507314,-0.007644815664738416,0.049568406093493105
1783693604935765200,5.38976513671875,-0.03914718451797962,0.0009511267123743891,0.020693243938684464
1783693604945727200,5.399727294921875,-0.046587563651800154,0.00205422911606729,-0.0018418284744024275
1783693604955690200,5.409690185546875,-0.04362988288998604,0.01680694055724889,0.0014130816683173178
1783693604965652200,5.41965234375,-0.04349894998669624,-0.0011862141098827122,-0.020492752930521965
1783693604975615200,5.429615234375,-0.06561141307353972,0.033965763292089106,-0.014129793769866228
1783693604985578200,5.439578125,-0.03452829254567623,0.04709295589067042,-0.01030848191604018
1783693604995540200,5.449540283203125,0.009863222366571426,0.026803981903940437,0.0033175270501524206
1783693605005503200,5.459503173828125,0.06694120037257671,0.012806107418052852,-0.0151679046459496
1783693605015465200,5.46946533203125,0.06255027193725109,0.021941892292909323,-0.030529505233094095
1783693605025428200,5.47942822265625,0.03578559913039207,0.030879049323126673,-0.029770576624572276
1783693605035390200,5.48939013671875,0.03557049507498741,0.0007028510397300124,-0.05448730392567813
1783693605045353200,5.499353271484375,0.005879121166467666,-0.01841196460109204,-0.05552621851935982
1783693605055315200,5.509315185546875,-0.0302379018753767,-0.028177243018522858,-0.058560398583486675
1783693605065278200,5.5192783203125,-0.06579086129367351,-0.03921754634045064,-0.03438099302947521
1783693605075240200,5.529240234375,-0.08287292899787425,-0.049070028117299075,-0.014694149654358625
1783693605085203200,5.539203125,-0.13611995053887366,-0.0354650984717533,-0.013979571644216775
1783693605095166200,5.549166259765625,-0.182800453171134,-0.02682444017007947,0.012266118789836763
1783693605105128200,5.559128173828125,-0.19436112710535525,-0.021453633851930498,0.062466685307025906
1783693605115091200,5.56909130859375,-0.15919219856858252,-0.010286452747322618,0.09602087212353944
1783693605125053200,5.57905322265625,-0.16076456245183943,0.00480042255166918,0.144150477585569
1783693605135016200,5.58901611328125,-0.15066227063238619,0.004470350347086787,0.12964432478398083
1783693605144978200,5.598978271484375,-0.09539455691874027,-0.005191942619904875,0.12161810858622192
1783693605154941400,5.60894140625,-0.027616905722022054,0.005106565891392529,0.0752238024841994
1783693605164903200,5.618903076171875,-0.01922375590801239,0.032591223535872994,0.018687237878516314
1783693605174866200,5.6288662109375,-0.017338088291883467,0.03586348667219281,-0.008979863660782576
1783693605184828200,5.638828125,0.055339609906077385,0.015297887701168656,-0.041644846552610394
1783693605194791400,5.64879150390625,0.07740063506662845,-0.036169922272861005,-0.0741551503393799
1783693605204754400,5.65875439453125,0.059387423992156976,-0.05875263321995735,-0.15738259186334908
1783693605214716200,5.668716064453125,0.06209902103841304,-0.054057022749632595,-0.16320844847261906
1783693605224679200,5.67867919921875,0.026389994275569914,-0.05853983071949333,-0.15910598158985376
1783693605234641400,5.688641357421875,-0.017044658303260803,-0.03888027721010148,-0.15288696094453333
1783693605244604400,5.6986044921875,-0.02300385896861553,-0.012741188955679534,-0.11207863828130066
1783693605254566100,5.708566162109375,0.006225158125162124,0.004845065410993993,-0.036919571596384045
1783693605264529200,5.718529052734375,0.009720014503598213,0.033435236611962314,0.038958457012847066
1783693605274491400,5.728491455078125,0.001841243952512741,0.029141996397450565,0.0687726535834372
1783693605284454400,5.738454345703125,-0.02167056453824043,0.03717931851111352,0.08111505247987806
1783693605294417200,5.748417236328125,-0.06004501111805439,0.02665175048429519,0.06288469152338802
1783693605304379100,5.758379150390625,-0.09516308625042438,0.0018720044169574974,0.06324490313790739
1783693605314342100,5.768342041015625,-0.12986498179733752,-0.012821524182893335,0.040179961631819604
1783693605324304400,5.778304443359375,-0.14584931739270687,0.0031129809213802217,0.015441387825086712
1783693605334267100,5.78826708984375,-0.15719547179341314,0.0037235505677759646,0.006320873584598302
1783693605344229000,5.79822900390625,-0.14255553654432296,-0.011185228217951954,-0.0001451806243509054
1783693605354192400,5.8081923828125,-0.13557225352823735,-0.004216631314344704,0.004179769902676343
1783693605364154400,5.818154296875,-0.097000823071599,-0.0021380349420011043,-0.013428294437006116
1783693605374117000,5.8281171875,-0.060112231135368344,-0.013524667483568191,-0.01209711889848113
1783693605384079000,5.8380791015625,-0.056064417049288745,0.015859211378358305,0.016727774373814463
1783693605394042400,5.84804248046875,-0.047073885864019394,0.006752579532749951,0.040242213213071226
1783693605404005400,5.85800537109375,0.009905892464518546,0.019710662642121315,0.01314640875570476
1783693605413967000,5.867967041015625,0.04103519022166729,-0.010783186755701899,0.03721044430173933
1783693605423930000,5.87793017578125,0.10281213969886302,0.0067905003903433675,0.08865487340018152
1783693605433892400,5.887892333984375,0.14577683667838573,-0.005980901040509343,0.018193901403620837
1783693605443855400,5.89785546875,0.13378653915524483,-0.026261728253401815,-0.00021400807686150074
1783693605453817300,5.9078173828125,0.09227028741836547,-0.012692673638835548,-0.005007379833236336
1783693605463780400,5.9177802734375,0.023062895679473876,-0.02051522049065679,-0.0028249942928552626
1783693605473742300,5.927742431640625,-0.07829495355784892,-0.041896848552301524,-0.04544686918407678
1783693605483705300,5.937705322265625,-0.16348843445777891,-0.05971468318514526,-0.09087788321189581
1783693605493668400,5.94766845703125,-0.20918051057457923,-0.08290146097261458,-0.10316635996401309
1783693605503630300,5.95763037109375,-0.21479601236879825,-0.10021642411723733,-0.08412709377743303
1783693605513593300,5.96759326171875,-0.18979367305934428,-0.09057316464427859,-0.04056033925153315
1783693605523555300,5.977555419921875,-0.14482289695441722,-0.026089696154743432,0.030502909487113355
1783693605533518300,5.987518310546875,-0.07570961323976516,0.03939443727731704,0.12402546198889612
1783693605543480300,5.997480224609375,-0.036188919234275814,0.09122669664956629,0.17889898875318466
1783693605553443300,6.007443359375,-0.03836743231713772,0.11987999621462077,0.17666173122040926
1783693605563405300,6.0174052734375,-0.049535892063379286,0.11551365423128009,0.1403726395472884
1783693605573368300,6.027368408203125,-0.03400806806385517,0.07189337941985577,0.06426160589978099
1783693605583331300,6.037331298828125,-0.00878945565521717,0.009425196275487541,-0.035387247462570666
1783693605593293300,6.047293212890625,0.004176408901810646,-0.06098262076172977,-0.08687142404951155
1783693605603256300,6.05725634765625,0.045508536243438716,-0.08576704300418496,-0.10754457504823803
1783693605613218300,6.06721826171875,0.09448562538027763,-0.08316650511696934,-0.09462956389561294
1783693605623181300,6.077181396484375,0.1344195763617754,-0.0624045433236286,-0.033393516362085936
1783693605633143600,6.0871435546875,0.10074936195015907,-0.010004128674603999,0.03813588858358562
1783693605643106300,6.097106201171875,0.027977555727958677,0.013223675242997706,0.06608144173808396
1783693605653068300,6.107068359375,-0.03663374039232731,0.036312509081326425,0.08426803661808371
1783693605663031300,6.11703125,-0.08809270947277545,0.05361103254780173,0.0822311970282346
1783693605672994300,6.126994384765625,-0.1066606318205595,0.06693743751291185,0.09757840376384555
1783693605682956300,6.136956298828125,-0.1389806006669998,0.04729505433402955,0.08189896939918398
1783693605692919300,6.146919189453125,-0.12201952899396419,0.03430036554131657,0.041584567732736465
1783693605702881300,6.15688134765625,-0.11387889263629912,-0.002361614564806223,0.04292370738200843
1783693605712844300,6.16684423828125,-0.09692951140105724,-0.01663154745772481,0.03332951121516525
1783693605722806300,6.17680615234375,-0.0405161347836256,-0.03303644655272364,0.01371631759814918
1783693605732769300,6.186769287109375,-0.03966740899980068,-0.04768186169452965,0.010983312437683343
1783693605742731300,6.196731201171875,-0.05114508082568645,-0.02547879771478474,0.026111250399425624
1783693605752694300,6.2066943359375,-0.06968728421032429,0.0021399346381425857,0.050174116901680825
1783693605762657300,6.2166572265625,-0.08407587504684924,0.03267119343690574,0.053847252456471324
1783693605772619300,6.226619384765625,-0.08233458433747291,0.05067534442208707,0.0700478611510247
1783693605782582300,6.236582275390625,-0.07669102549254894,0.07040361578613519,0.0393684991184622
1783693605792544300,6.246544189453125,-0.0002034136176109314,0.04758187191877514,0.033361586853861806
1783693605802507500,6.256507568359375,0.06676175215244293,0.005588613787293434,0.019968290665000676
1783693605812469200,6.26646923828125,0.11352934854626655,-0.012179536484926938,-0.004876373864710331
1783693605822432300,6.276432373046875,0.11825228541493416,-0.011087905323319136,0.009243556098267436
1783693605832394200,6.286394287109375,0.04834054479897022,-0.009001417905464769,-0.003424348425492644
1783693605842357500,6.296357421875,-0.027351532784104345,0.019223390581831337,-0.01488989142216742
1783693605852320500,6.306320556640625,-0.0691723204255104,0.0328092867333442,0.004483209828659892
1783693605862282200,6.3162822265625,-0.0771633191794157,0.040846462716534734,0.0029766046579927205
1783693605872245200,6.326245361328125,-0.048940264257788656,0.01788417786732316,-0.000031929508224129677
1783693605882207500,6.33620751953125,-0.047509354671835896,-0.010222630263492464,-0.0238232125274837
1783693605892170500,6.34617041015625,-0.007026537635922431,0.008729761357232928,-0.04712722348645329
1783693605902132200,6.35613232421875,0.020133271968364716,-0.0031185338793322443,-0.024715485192090273
1783693605912095200,6.36609521484375,0.04102116169631481,0.012603534050658345,0.01884118633121252
1783693605922057500,6.376057373046875,0.023428806382417677,0.01839501346629113,0.04288388682827353
1783693605932020500,6.3860205078125,0.004705401211977005,0.018899565454944967,0.043295828630030155
1783693605941983200,6.395983154296875,-0.0730722504734993,0.04092804005276412,0.04625416697897017
1783693605951945200,6.4059453125,-0.18755378517806529,0.03694550975523889,0.010713847846537828
1783693605961908200,6.415908203125,-0.247549696457386,0.03052300242707133,-0.061348714127764103
1783693605971870500,6.425870361328125,-0.2457335869461298,0.00918850144278258,-0.08816029481627047
1783693605981833200,6.435833251953125,-0.23408406568467616,0.0300387625740841,-0.03787197695039213
1783693605991795200,6.445795166015625,-0.1795838292121887,0.017037059518694875,-0.01227116029113531
1783693606001758500,6.455758544921875,-0.08057225084006786,-0.02271214601304382,-0.017926628769561647
1783693606011720400,6.465720458984375,0.022716274198889733,-0.01510557999946177,-0.03263992151580751
1783693606021683200,6.47568310546875,0.08708090208172797,-0.022789887424372136,-0.011186579924821853
1783693606031646200,6.485646240234375,0.11806933006346225,-0.041723976203426716,0.026426819154620168
1783693606041608400,6.4956083984375,0.10512976899147033,-0.007508548999205231,0.019933730808272956
1783693606051571500,6.505571533203125,0.06997545350193977,-0.003108560474589467,0.020816870318353175
1783693606061533200,6.515533203125,0.028041268613934515,-0.0008445245327427983,-0.008288008939102292
1783693606071496200,6.52549609375,-0.03791442785263061,-0.00935172918047756,0.0012886515710502863
1783693606081458400,6.53545849609375,-0.05706687209010124,-0.0013124343054369092,0.01352459441833198
1783693606091421400,6.54542138671875,-0.093048870575428,0.010486870690248905,0.013340908414497971
1783693606101384400,6.555384521484375,-0.08474281452298164,0.015805289234034715,-0.0054701019741594786
1783693606111346200,6.56534619140625,-0.05653145003914833,0.016064195898547767,-0.014656740253418683
1783693606121309200,6.57530908203125,-0.07712181812524795,0.017440964144468305,-0.0077864891577512025
1783693606131271400,6.585271484375,-0.09276420841515064,0.02393419862128794,-0.021873978155851362
1783693606141234400,6.595234375,-0.07188041034042834,0.020035181888751686,-0.01852349868416786
1783693606151196200,6.605196044921875,-0.059468672534823415,0.0015503712471574545,-0.031095687748491762
1783693606161159200,6.6151591796875,-0.08265256424546241,0.009079122784174979,-0.06644888681098818
1783693606171121400,6.625121337890625,-0.05511106184720993,-0.0025183029638603327,-0.005924421612918377
1783693606181084400,6.63508447265625,0.01922024877667427,-0.040230851568840445,0.03353818552978337
1783693606191047400,6.64504736328125,0.0251139829903841,-0.033229667569883166,0.046865869136527176
1783693606201009200,6.655009033203125,0.00870586902499199,-0.03765325616579503,0.06900156696848571
1783693606210972400,6.664972412109375,0.0009814122527837753,-0.02935136483181268,0.06713518857471644
1783693606220934400,6.674934326171875,0.009265840995311737,-0.03092014851849526,0.07933189539015292
1783693606230897400,6.6848974609375,-0.030041502520442007,-0.012973536406829952,0.10021583959534763
1783693606240859400,6.694859375,-0.06828034002184867,0.03087572485487908,0.12429923742897808
1783693606250822400,6.704822509765625,-0.07072948673963546,0.024483685730211435,0.1259310033492744
1783693606260784400,6.714784423828125,-0.046370121508836744,0.005631028156913817,0.10428396581709384
1783693606270747400,6.724747314453125,-0.05523731857538223,-0.007365816060267388,0.08141725029684603
1783693606280710100,6.734710205078125,-0.040138533642888066,-0.02837689377646893,0.05318053217604756
1783693606290672400,6.74467236328125,-0.041617374023795124,-0.03465615670904517,0.05538271839544177
1783693606300635400,6.754635498046875,-0.027358547046780583,-0.03221530289556831,0.05465776512175798
1783693606310597400,6.764597412109375,-0.03342062356472015,-0.004940196348540485,0.0605750263415277
1783693606320560000,6.77456005859375,-0.055472296375036236,0.026536453541554508,0.10812010991387068
1783693606330522400,6.7845224609375,-0.038486674782633776,0.05265343956202268,0.11449746292605996
1783693606340485400,6.7944853515625,-0.035547698721289635,0.028635946571454404,0.07673033458963036
1783693606350447400,6.804447265625,-0.020501520758867263,0.022611644780635834,0.04016301049701869
1783693606360410000,6.81441015625,-0.006698620855808257,0.0025476751888170836,0.0038069180022925137
1783693606370373400,6.824373291015625,-0.06517535974383354,-0.008647161107696592,-0.05850435754731297
1783693606380335400,6.83433544921875,-0.08844166904091834,-0.0031670126635581254,-0.07287190559580922
1783693606390298400,6.84429833984375,-0.09704524673521518,-0.03736117788404226,-0.10686331478580832
1783693606400260000,6.854260009765625,-0.0971054524898529,-0.010755714226886629,-0.0693836250886321
1783693606410223400,6.864223388671875,-0.0772720402508974,0.0023096286492422223,-0.03424633379913866
1783693606420185300,6.874185302734375,-0.04667407289147377,0.007592026031576097,-0.010535422539710997
1783693606430148400,6.8841484375,0.0044049569606781,0.009924122240953147,0.009043795742467045
1783693606440110300,6.8941103515625,0.04379764067232608,-0.004970006964914501,0.04532134310826659
1783693606450073600,6.904073486328125,0.04222586131095886,-0.012069098380394279,0.060457025985047215
1783693606460036400,6.914036376953125,0.047888124856352805,-0.007642221848852932,0.08895867865234613
1783693606469998300,6.923998291015625,0.03321253377199173,0.013475713775306939,0.0756827982980758
1783693606479961300,6.93396142578125,-0.0008966565787792205,0.012516001897677778,0.06240633342191577
1783693606489923600,6.943923583984375,-0.03892857333123684,0.0063084159618243575,0.046563013732433316
1783693606499886300,6.95388623046875,-0.11242577121853828,0.029657690834626552,-0.0022092004820704458
1783693606509848300,6.963848388671875,-0.16824176646471023,0.04359514037016779,0.0034816315706819295
1783693606519811300,6.973811279296875,-0.15160393539667127,0.026822394343465564,0.01130523786842823
1783693606529774300,6.9837744140625,-0.13441256209909916,0.01526895386762917,0.0035303660832345482
1783693606539736300,6.993736328125,-0.07987374718189238,0.007779401829838752,0.016566300201788543
1783693606549699300,7.00369921875,-0.03275660669803619,-0.02062631618231535,0.018672770961746573
1783693606559661300,7.013661376953125,-0.013575520887970923,-0.030640491326898334,0.02711209800504148
1783693606569624300,7.023624267578125,0.007401800689101219,-0.010487930136173962,0.028825039402768014
1783693606579586300,7.03358642578125,-0.006623217532038688,0.019432722483575342,0.04460669203288853
1783693606589549300,7.04354931640625,-0.026473580905795095,0.038634704951196905,0.039090047503262754
1783693606599512300,7.05351220703125,-0.03626256899237632,0.05279631863143295,0.0199198484133929
1783693606609474300,7.063474365234375,-0.06669453213512896,0.0378137439571321,-0.006120528706908226
1783693606619437600,7.0734375,-0.07738251488804816,0.027433402381278574,-0.04776647123806178
1783693606629399300,7.0833994140625,-0.066196519485116,0.002490793902426958,-0.10957271987497806
1783693606639362300,7.0933623046875,-0.051560675889253615,-0.01379321875926107,-0.12841982449032366
1783693606649324500,7.103324462890625,-0.0282335763156414,-0.017402604895457623,-0.11150047306716442
1783693606659287600,7.11328759765625,0.03057517100572586,0.01095817799642682,-0.09113441525623202
1783693606669249300,7.123249267578125,0.07723638441562652,0.03943637672290206,-0.045875762120634316
1783693606679212300,7.13321240234375,0.07355214294493198,0.05444233227279037,0.003063113897666335
1783693606689175300,7.14317529296875,-0.026184827092289923,0.06616185003053397,0.024098449272289872
1783693606699137500,7.153137451171875,-0.05940905130207538,0.04736928861401975,0.0009629998132586479
1783693606709100300,7.163100341796875,-0.052011926788091654,0.0014623641701415181,-0.02006013366691768
1783693606719062300,7.173062255859375,-0.07169687046706676,-0.02207439609877765,-0.025042598254606127
1783693606729025300,7.183025390625,-0.0904962634831667,-0.020020678439363837,-0.020999021952226755
1783693606738987500,7.192987548828125,-0.09319675461351871,-0.026255846501886844,0.01197195814885199
1783693606748950500,7.202950439453125,-0.08295710014998912,-0.019357063431479037,0.04585062767937779
1783693606758913300,7.212913330078125,-0.0893628755390644,-0.013694142298959195,0.06584522182941437
1783693606768875300,7.222875244140625,-0.08415653906762599,-0.016229907854273914,0.07684095535725355
1783693606778838300,7.23283837890625,-0.11461129856407641,0.003921630423143506,0.09861585705280303
1783693606788800500,7.242800537109375,-0.11620938141047954,0.014895042521320283,0.09586765432320535
1783693606798763300,7.25276318359375,-0.08259586562216281,0.030160781518556175,0.06852123610563576
1783693606808725200,7.262725341796875,-0.04057458697259426,-0.003045176382176578,0.05185001422464847
1783693606818688500,7.2726884765625,0.04495674757957458,-0.007819185850955545,0.05340075079798698
1783693606828650500,7.282650390625,0.0734293933480978,0.03933287981580943,0.005551277451589703
1783693606838613200,7.29261328125,0.01826338644325733,0.04459109260495752,0.022773484278842807
1783693606848576300,7.302576171875,0.030011107382178305,0.030023382341861724,0.01915551297739148
1783693606858538500,7.31253857421875,-0.000872106659412384,0.04072824316434562,-0.04192059475407004
1783693606868501500,7.32250146484375,-0.04017360495626926,0.014475611532852053,-0.02738923444598913
1783693606878463200,7.332463134765625,-0.013531097224354744,0.028144290596991774,-0.01646663921959698
1783693606888426200,7.34242626953125,0.017637948021292687,0.00808412039745599,-0.018782295750826596
1783693606898388500,7.352388427734375,0.028235914403200148,0.023218561165221033,-0.01100340537764132
1783693606908351500,7.3623515625,0.018659692284464836,-0.00042871027346700426,0.024828663242980838
1783693606918314500,7.372314453125,0.03721475515067577,-0.00045713265035301446,0.03365640508197248
1783693606928276200,7.382276123046875,0.05009411046802997,-0.0022177856473252176,0.05020107797384262
1783693606938239200,7.3922392578125,0.05279284803271293,-0.03716697048619389,0.05799859998226165
1783693606948201500,7.402201416015625,0.06672668083906173,-0.055749140555039045,0.05918963639773428
1783693606958164500,7.41216455078125,0.075176529276371,-0.03535864242259413,0.038384967973828316
1783693606968126200,7.422126220703125,0.04940671272575855,-0.0026209596207365394,0.043812034523859615
1783693606978089200,7.432089111328125,0.02923661587834358,0.009449453933909535,0.041571269859746095
1783693606988052500,7.442052490234375,0.011370704320073127,0.006236373638920486,0.013657427017763256
1783693606998014500,7.452014404296875,-0.07594108390808105,0.02267009696960449,-0.005441314271092414
1783693607007977200,7.461977294921875,-0.19739947188794613,0.06000007599778473,-0.009575345335900784
1783693607017939500,7.471939453125,-0.29240239914059635,0.059547473392076784,-0.009649360420182346
1783693607027902500,7.48190234375,-0.33496377601623534,0.018591449353843926,-0.012440525508671998
1783693607037864400,7.491864501953125,-0.29562369927465915,-0.004767652793228626,-0.010719839195907115
1783693607047827500,7.501827392578125,-0.1840805561095476,-0.03487297779750079,0.008140051835775375
1783693607057790200,7.511790283203125,-0.0669113897562027,-0.04310118284076452,0.07096797167062759
1783693607067752400,7.52175244140625,0.032201895424723626,-0.023207089923135936,0.1316835755266249
1783693607077715500,7.531715576171875,0.0421802686035633,0.012003741526603698,0.1425896580096334
1783693607087677400,7.541677490234375,0.003967150065302848,0.047000126508064566,0.12551138969771564
1783693607097640200,7.55164013671875,-0.012808628168702124,0.02083751124758273,0.09034348407424986
1783693607107602400,7.5616025390625,-0.004683773902058601,-0.029264380668103693,0.006688026396557688
1783693607117565400,7.5715654296875,0.02404138532280922,-0.055688386811129746,-0.045297596906498074
1783693607127527400,7.58152734375,0.00914016878902912,-0.06196516552567482,-0.04554974503666162
1783693607137490200,7.591490234375,-0.004086392530798912,-0.041972945995815095,-0.040991497210413216
1783693607147453200,7.601453125,-0.0038385552495718,-0.03724138742927462,-0.023173516447097062
1783693607157415400,7.61141552734375,-0.01201017126739025,-0.009255356133915484,0.0053429684631526465
1783693607167378400,7.62137841796875,-0.056525604820251464,0.026210947914235293,0.03826514098644256
1783693607177340200,7.631340087890625,-0.06467500900626182,0.05671484378203749,0.04866795012243092
1783693607187303400,7.641303466796875,-0.02558101598024368,0.04652765015810728,0.057537558341771364
1783693607197265400,7.651265380859375,0.0052495910912752144,0.014195333286747335,0.03329319779276848
1783693607207228400,7.661228515625,-0.007604045262932777,0.006310096462257206,-0.014210603921115398
1783693607217191400,7.67119140625,-0.028365093740820885,-0.013867562637105584,-0.029430531015247105
1783693607227153400,7.6811533203125,-0.0713899964749813,-0.014577026080712676,-0.04133380784206092
1783693607237116400,7.691116455078125,-0.10587328083515167,-0.00993427830878645,-0.04934314597025513
1783693607247078400,7.701078369140625,-0.10667115321457385,-0.010290434802696109,-0.047022447937726974
1783693607257041400,7.71104150390625,-0.10510814168155193,-0.015559680442512035,-0.03129201403819024
1783693607267003400,7.72100341796875,-0.10510405002832413,-0.024809629748947917,-0.03328399157300591
1783693607276966400,7.73096630859375,-0.09974339977800846,-0.04100004584304988,-0.026343817046284673
1783693607286929400,7.740929443359375,-0.07646072386801242,-0.023778825396485626,0.01991363786831498
1783693607296891400,7.750891357421875,-0.036738369810581206,-0.015308409095183015,0.04827098669409752
1783693607306854100,7.760854248046875,-0.005583937612175941,0.01377802119012922,0.07658968400992452
1783693607316816400,7.77081640625,-0.009209726893901824,0.03968293536249548,0.08719130365364253
1783693607326779400,7.780779296875,0.0005927051961421966,0.04411700881980359,0.06516111202277243
1783693607336741400,7.790741455078125,0.006087210959196091,0.02140559345912188,0.029019027604907748
1783693607346704400,7.800704345703125,-0.015276479586958885,0.0007516220849007368,0.011536489341035485
1783693607356666400,7.810666259765625,-0.056199441605806345,-0.007111695168726145,-0.008278948849812149
1783693607366629400,7.82062939453125,-0.05430559068322181,-0.008499861591495572,-0.01547762818224728
1783693607376592400,7.83059228515625,-0.012929039677977561,-0.005702632088400423,-0.03058057783320546
1783693607386554400,7.840554443359375,-0.011532616883516311,0.006096344113722443,-0.05565210992135107
1783693607396517400,7.850517333984375,-0.06101473293304443,0.0331069910382852,-0.03781432847902179
1783693607406479400,7.860479248046875,-0.07725859624743461,0.02411262392811477,-0.021636150811985135
1783693607416442400,7.8704423828125,-0.05160217694342136,-0.009066701694019139,-0.02398030278533697
1783693607426404400,7.880404296875,-0.023089783686399457,-0.02925882771015167,-0.011540580994263291
1783693607436367400,7.890367431640625,0.0042418753534555435,-0.0019074410565197467,0.015438246019929646
1783693607446330400,7.900330322265625,-0.004615969362854957,0.006012940146587788,0.04048515512347221
1783693607456292000,7.9102919921875,0.015413842231035231,-0.009300145123712718,0.06607274697497487
1783693607466255000,7.920255126953125,0.04679565344452858,-0.008953998567163944,0.06684205084703862
1783693607476217300,7.93021728515625,-0.007404723298549651,0.021956907198950645,0.0801351015318185
1783693607486180400,7.940180419921875,-0.0723176327139139,0.025983495833911,0.05750161024555563
1783693607496142000,7.95014208984375,-0.07753916675448418,-0.0016711846152320502,0.060576926037669176
1783693607506105000,7.96010498046875,-0.04989186589419842,-0.02378682603985071,0.03924998730532825
1783693607516067300,7.9700673828125,-0.059063014343380925,-0.03483348603732884,0.013111045181378721
1783693607526030300,7.9800302734375,-0.07435352245569228,-0.021849574366956948,0.02908456712178886
1783693607535993300,7.989993408203125,-0.04400280785560608,0.0028503844624385237,0.04277626173533499
1783693607545955000,7.999955078125,-0.05723346082866192,0.014610015034861862,0.03564356031119823
1783693607555918300,8.00991845703125,-0.07390227155685425,0.03293455708082765,0.01945544577203691
1783693607565880300,8.01988037109375,-0.06090659638345241,0.025386333658359943,0.00903188610896468
1783693607575843300,8.02984326171875,-0.024700726014375684,0.015997268142178653,-0.012815057909488677
1783693607585805000,8.03980517578125,0.002425181320309639,0.00755282653234899,-0.0007620704136788844
1783693607595768300,8.049768310546876,0.049635260784626004,0.0038802389668300746,-0.015418737601861356
1783693607605731300,8.0597314453125,0.07242050856649875,-0.0053940045306459065,0.007632540705054998
1783693607615693300,8.069693359375,0.04518646468222141,0.01537771147172898,0.033774989960342644
1783693607625656000,8.079656005859375,-0.01002162779867649,0.04514689985681325,0.02660619430951774
1783693607635618300,8.089618408203124,-0.06673486414551734,0.01363766287136823,0.041115050524845716
1783693607645581300,8.099581298828125,-0.14502572605013847,0.004347527685016394,-0.014826616927608846
1783693607655543300,8.109543212890625,-0.18259294790029526,0.013753763531707226,-0.021825901230424643
1783693607665506000,8.119506103515626,-0.11674363441765308,-0.03049585869181901,-0.0009821429051458835
1783693607675468300,8.12946826171875,-0.052125324034690855,-0.04598141445219516,0.03652830725647509
1783693607685431300,8.139431396484374,-0.004389174869656563,-0.04988693399075418,0.05333185028024018
1783693607695394300,8.149394287109375,0.029167057773470877,-0.006044650459103286,0.07571312037110328
1783693607705356000,8.15935595703125,0.04084171347618103,0.003931092371232807,0.11933445462845266
1783693607715319000,8.169319091796876,0.019571546432375908,0.03793492265138775,0.0953211994215846
1783693607725281300,8.17928125,-0.03253741098940372,0.07235018327664583,0.06941014776937664
1783693607735244300,8.189244384765624,-0.07195990531742573,0.07920921885855496,0.07760295270569623
1783693607745206300,8.199206298828125,-0.1170610298037529,0.061038880993612106,0.012733882432058453
1783693607755169300,8.209169189453124,-0.14476970546245574,0.033137349643930794,-0.07048961356915533
1783693607765131300,8.21913134765625,-0.1298053605645895,-0.020269575166516004,-0.10883476098924874
1783693607775094300,8.22909423828125,-0.10123685320615768,-0.04504519304800778,-0.12612784109562636
1783693607785057300,8.239057373046874,-0.060842298975586885,-0.04397654090318828,-0.09950776439122855
1783693607795019300,8.249019287109375,-0.01778232492804527,-0.05155194459352642,-0.03990582086555659
1783693607804982300,8.258982177734374,0.03392974213063717,-0.041561077259294685,0.017410642071440816
1783693607814944300,8.2689443359375,0.028473814812302586,-0.005447451750934124,0.06214834007285535
1783693607824907300,8.2789072265625,0.03307224851846695,0.022390037919208405,0.10628712233304977
1783693607834869200,8.288869140625,0.03621288463175296,0.023336305793374774,0.10606500401496886
1783693607844832300,8.298832275390625,0.031605098575353624,0.03606551205031574,0.10833857497014104
1783693607854795300,8.308795166015624,-0.005834697502851486,0.008323737839609383,0.09388429848626255
1783693607864757200,8.31875732421875,-0.05680208367407322,0.0072494596716016525,0.05709741335883736
1783693607874720300,8.32872021484375,-0.11122633230090141,-0.0013630685141310095,-0.0022703560847789047
1783693607884682200,8.33868212890625,-0.10714227785766124,-0.009433343049325048,-0.019470351080223918
1783693607894645200,8.348645263671875,-0.09465513672828674,-0.009862053322792053,-0.020336977846920488
1783693607904607200,8.358607177734376,-0.09500643438398837,0.0035443215433508157,-0.037040932953730225
1783693607914570200,8.3685703125,-0.058843818634748454,0.013642192916013299,-0.03422236840166151
1783693607924532200,8.3785322265625,0.02143617126047611,0.007269917937740683,-0.017944895078614354
1783693607934495200,8.3884951171875,0.04050210625827312,0.04971643626205623,0.015160378926619887
1783693607944458200,8.398458251953125,0.03823416132628917,0.05934522881824523,0.005322656327486038
1783693607954420200,8.408420166015626,0.06493395220339297,0.03986435634400695,0.0016465981632471083
1783693607964383200,8.41838330078125,0.0876420430958271,0.011065730024129151,-0.004149959286302328
1783693607974345200,8.42834521484375,0.07927402772307396,-0.010785707506351173,-0.017886442889645696
1783693607984308200,8.43830810546875,0.03607318390011787,-0.026818741081655023,-0.02622099438421428
1783693607994270200,8.448270263671875,0.004702478602528572,-0.025890410722978412,-0.026144422016665336
1783693608004233200,8.458233154296876,-0.04791851999461651,-0.011318791469745338,-0.012836173762753604
1783693608014195200,8.4681953125,-0.09977262587249279,0.03275657016541809,-0.0005234393522143364
1783693608024158200,8.478158203125,-0.12860767521262167,0.05539565094225108,0.02056099586114287
1783693608034121200,8.488121337890625,-0.16338789669275283,0.0457953172955662,0.03245192466303706
1783693608044083500,8.49808349609375,-0.18822189369797707,0.03824972422160208,0.012670754067972302
1783693608054046200,8.508046142578126,-0.20037936448156832,0.02210018812716007,-0.0024066958155483007
1783693608064008200,8.51800830078125,-0.17579145119190215,-0.014744126275926828,-0.003036664282158017
1783693608073971200,8.52797119140625,-0.13272738549113272,-0.0074275927174836396,0.0013463731076568365
1783693608083933400,8.537933349609375,-0.08851941045224666,-0.0014354030979797244,0.00355447761118412
1783693608093896200,8.547896240234374,-0.05137362888455391,-0.004473638282716274,0.013655673452094197
1783693608103859200,8.557859130859375,0.013019056048989295,-0.008403415479697286,0.007922171301394701
1783693608113821200,8.5678212890625,0.05667290433645248,0.027582820789329707,0.01536408480517566
1783693608123784200,8.5777841796875,0.05325345128178596,0.04828585546966642,0.0258606366392225
1783693608133746200,8.58774609375,0.06257540637850761,0.04241933805644512,0.028494565339386463
1783693608143709200,8.597709228515624,0.04544248526990413,0.0022591771036386487,0.009020634062588214
1783693608153671200,8.607671142578125,0.04389876295924187,-0.0004105900948867202,-0.013198212008178233
1783693608163634200,8.61763427734375,0.0452174443423748,-0.01711870992016047,-0.008145970119908452
1783693608173596200,8.62759619140625,0.040729485273361205,-0.041457215026021,-0.018533727817237375
1783693608183559200,8.63755908203125,0.024295067822933194,-0.04864953768290579,-0.017817469306662677
1783693608193521200,8.647521240234376,-0.043103228667378424,-0.03645027358420193,-0.018289324602112172
1783693608203484400,8.657484375,-0.08905249441564082,-0.024859971696697174,-0.013113310203701257
1783693608213447400,8.667447509765625,-0.0841822580307722,-0.016853629243187604,0.043571503766253586
1783693608223409200,8.6774091796875,-0.12549509615004062,0.028092633474990723,0.08894545384459197
1783693608233372200,8.6873720703125,-0.1996189015030861,0.07992894796784966,0.08463957334421575
1783693608243334400,8.69733447265625,-0.21440672079026699,0.0802795149711892,0.08770436774231492
1783693608253297400,8.70729736328125,-0.17262918776869773,0.05242174969799816,0.07329414959587156
1783693608263259100,8.717259033203124,-0.15771803436279297,0.032755949110910294,0.013361512811109423
1783693608273222100,8.72722216796875,-0.1124251866966486,-0.002519106681458652,-0.037008126662671566
1783693608283185200,8.73718505859375,-0.030286417192220687,-0.062470338568836443,-0.06419570105671882
1783693608293147400,8.7471474609375,-0.010807809740304946,-0.06022347295749932,-0.08354235269203782
1783693608303110100,8.757110107421875,0.014465747725963592,-0.02199431659989059,-0.07818455198593437
1783693608313072000,8.767072021484376,0.07079261510372162,-0.019112258357554673,-0.02387355447523296
1783693608323035100,8.77703515625,0.11125555839538574,-0.00836819803584367,0.02463452891036868
1783693608332997400,8.786997314453124,0.07943126411139964,0.012989245432615279,0.022140739333257078
1783693608342960400,8.79696044921875,0.04198679185807705,0.0067453826069831845,0.019270444593951105
1783693608352922000,8.806922119140625,0.03571662554740906,0.0071659095739945765,0.0265627204939723
1783693608362885000,8.816885009765626,0.013613514810800552,0.02488930738903582,0.04021970912031829
1783693608372848400,8.826848388671875,-0.006075520521402359,0.007300824532657861,0.040315789905935526
1783693608382810400,8.836810302734374,-0.05537292765378952,-0.0031954350404441354,-0.004224778088182211
1783693608392773000,8.846773193359375,-0.08805062389671801,-0.02304981700219214,0.0052888271231204265
1783693608402735400,8.8567353515625,-0.08495558049082756,-0.015626315937936307,0.01912599462196231
1783693608412698400,8.866698486328126,-0.10686287639439106,-0.033134609697572884,0.01853504299148917
1783693608422660400,8.876660400390625,-0.1006523313164711,-0.009265110342949629,0.005456804101169109
1783693608432623000,8.886623046875,-0.09701718968451023,0.02560969408545643,0.04632504025809467
1783693608442584800,8.896584716796875,-0.11588321819603442,0.055049833179265255,0.06180003809183836
1783693608452547800,8.9065478515625,-0.19803484718203543,0.080699493948929,0.03387472400777042
1783693608462510800,8.9165107421875,-0.21105039609968662,0.05618417097143828,0.004011354533210397
1783693608472472800,8.926472900390625,-0.04701601819694042,0.031918621503934264,0.06421878967136144
1783693608482435800,8.936435791015626,0.016658873856067655,0.019552074546925723,0.07442841432280838
1783693608492397800,8.946397705078125,-0.0007248071432113647,-0.002110416282713413,0.06398702674210072
1783693608502360800,8.95636083984375,0.040296939074993134,-0.0011069748612120747,0.037774288729578255
1783693608512322800,8.96632275390625,0.07310556822121143,-0.029144042224064467,0.031099194879829883
1783693608522285800,8.976285888671875,0.09907646030187606,-0.00465838373247534,0.005636471517011523
1783693608532247800,8.986247802734376,0.11242401765286922,0.01981627844106406,0.023454160019382834
1783693608542210800,8.9962109375,0.08721125046312808,0.01278119217250496,0.026489143801108003
1783693608552173800,9.006173828125,0.06863397576510906,0.0134207687176764,0.027500439735502005
1783693608562135800,9.0161357421875,0.035920623686909674,-0.0002861234650015831,-0.01436433317810297
1783693608572099000,9.02609912109375,0.018258125746250152,-0.05405325988996774,-0.02638626794852316
1783693608582060800,9.036060791015625,0.0009130231916904449,-0.0641759003777057,-0.05089264043457806
1783693608592023800,9.04602392578125,-0.01903553985953331,-0.029145649659261107,-0.029398674572259188
1783693608601986000,9.055986083984376,-0.06581716477870941,-0.00871080092843622,-0.03515146594531834
1783693608611949000,9.065948974609375,-0.0859685569256544,-0.0002987272182479501,-0.042934813297912475
1783693608621910800,9.075910888671874,-0.10380115073621272,0.004326740625314414,-0.06089497901089489
1783693608631873800,9.085873779296875,-0.09823591782450676,0.018842538038082418,-0.02328274897523224
1783693608641836800,9.0958369140625,-0.07505787133276462,0.04196658932026475,0.04518814518265426
1783693608651799000,9.105799072265626,-0.057658992764353746,0.03269278421420604,0.08904723371863364
1783693608661761800,9.11576171875,-0.022194880673289296,0.02801902024950832,0.08216193118430673
1783693608671723800,9.125723876953124,-0.036305823612213135,0.006026932139322161,0.07526888373494148
1783693608681686800,9.135686767578125,-0.07769991027414798,-0.005205788482166827,0.07111300616450607
1783693608691649000,9.14564892578125,-0.10189093320071696,0.00029964053370058535,0.06469963199086487
1783693608701611800,9.15561181640625,-0.08072890270650386,-0.011104271936230361,0.027513372282311318
1783693608711573800,9.16557373046875,-0.05388415040075779,-0.017451814332045613,0.016490969943255183
1783693608721536800,9.175536865234376,-0.014895955836772917,-0.03711677466891706,0.02270465682633221
1783693608731500000,9.1855,0.0016693945169448852,-0.014692651817016303,-0.01237323242612183
1783693608741461800,9.195461669921874,0.008538695764541625,-0.004897489717975259,-0.003315335093066096
1783693608751424800,9.2054248046875,0.028898762226104734,0.0011682765943929552,0.008069397752359509
1783693608761386800,9.21538671875,0.03970832553207874,0.009124788556806743,0.0048075464121997355
1783693608771350000,9.22535009765625,0.05024024094045162,0.008863653402589261,-0.008987608575820922
1783693608781311700,9.235311767578125,0.04924830729365349,0.0025244769763201474,-0.005307604888826608
1783693608791274800,9.245274658203124,0.021039865419268607,0.017675503552705047,-0.02556501469351351
1783693608801237000,9.255237060546875,0.02174655238389969,0.01417355984635651,-0.056124622803926466
1783693608811200000,9.265199951171875,-0.014194529569149017,0.007845854662172497,-0.05472820000946521
1783693608821163000,9.2751630859375,-0.05567220286130905,-0.013765636632591486,-0.052201531076058745
1783693608831124700,9.285124755859375,-0.10554127240180969,-0.01849898529741913,-0.03759060272574424
1783693608841087700,9.295087646484374,-0.14529168350994587,-0.022805706048011777,-0.013774331395700574
1783693608851050000,9.305050048828125,-0.22194880673289297,-0.023170703435502944,0.02210449897609651
1783693608861013000,9.315012939453124,-0.2581236974418163,-0.007273169340752065,-0.0028280630327761173
1783693608870974700,9.324974609375,-0.22950609024465082,-0.03266640766393393,0.05101933555416763
1783693608880937700,9.334937744140625,-0.15184709650278091,-0.013109730007126926,0.10026121310703456
1783693608890900000,9.34489990234375,-0.07706102784872054,-0.010323898680880666,0.06304828458726405
1783693608900863000,9.354863037109375,-0.013334697869420051,-0.013137348666414618,0.05595445386879146
1783693608910824700,9.36482470703125,0.014328969603776932,-0.01467285113800317,0.04095248037427664
1783693608920787700,9.37478759765625,0.0195762226074934,-0.0045392143322154875,0.01356624160297215
1783693608930750700,9.384750732421875,-0.008359832066297531,0.01226305004991591,0.017392887219041586
1783693608940713000,9.394712890625,-0.007416413736343383,0.0060647799316793675,0.023516411600634453
1783693608950676000,9.404676025390625,-0.001084288105368614,-0.016590813588537274,0.008673793386295437
1783693608960637700,9.4146376953125,0.017069208222627637,-0.021505510169640182,-0.014526464937254785
1783693608970601000,9.42460107421875,0.027743746972084045,-0.02117854323759675,0.00038929157853126526
1783693608980563000,9.43456298828125,0.023795886129140853,0.009348587375320494,0.004625613974034786
1783693608990526000,9.44452587890625,0.03128185797035694,0.04532861309926957,0.03373224679715931
1783693609000487700,9.45448779296875,0.032037060251832006,0.03221665460243821,0.06707169488444924
1783693609010451000,9.464450927734376,0.029680267992615698,0.020849128620140253,0.06453757329694926
1783693609020414000,9.4744140625,0.0024865561187267303,0.014358816752769052,0.04096797020435333
1783693609030376000,9.4843759765625,-0.04134557134509086,0.010696604450792074,0.0486260106768459
1783693609040338700,9.494338623046875,-0.09178338068425655,-0.009018697833828627,0.04107727579772472
1783693609050301000,9.504301025390625,-0.1397954241812229,-0.01758026301730424,0.0012938392028212546
1783693609060264000,9.514263916015626,-0.15176175630688665,-0.036651568309962745,-0.03343121802397072
1783693609070226000,9.524225830078125,-0.1273790102005005,-0.02471606971397996,0.004914733113721013
1783693609080188700,9.534188720703124,-0.07858429189324379,-0.04039802482929081,0.035724443527683614
1783693609090151000,9.54415087890625,-0.015596797582507132,-0.031993367240577934,0.028642887768894433
1783693609100114000,9.554114013671875,-0.020907178950309753,-0.005520443921908736,0.05974098667018115
1783693609110077000,9.564076904296876,-0.05240121836662292,0.01649338109605014,0.0894580795418471
1783693609120038700,9.57403857421875,-0.05829845971167087,0.03828910638391971,0.07401902980431914
1783693609130001700,9.584001708984376,-0.03337327729165554,0.046046405979804694,0.06793605662882328
1783693609139964000,9.5939638671875,-0.03164016988873482,0.04648198438547552,0.05547426913641393
1783693609149927000,9.603927001953124,-0.024954993036389348,0.03441193615701049,0.0409083489716053
1783693609159889000,9.613888916015625,-0.01783551642000675,-0.0210749367326498,-0.014675371888652443
1783693609169852000,9.623851806640625,-0.035413843208551406,-0.027714374747127294,-0.0496521388541907
1783693609179814000,9.63381396484375,-0.03920622122883796,-0.025422281754575667,-0.023722601697221398
1783693609189777000,9.64377685546875,-0.06525602376461029,-0.0017590820943936705,-0.010596139751002192
1783693609199740000,9.653739990234374,-0.052525137007236475,0.005367920241318643,0.018157514915987848
1783693609209702000,9.663701904296875,-0.05220306544601917,-0.010868307755887508,0.01615589276999235
1783693609219665000,9.673664794921875,-0.025879706665873525,0.0012442644400522112,0.04143551465086639
1783693609229627000,9.683626953125,0.006272504398226738,-0.002940875757485628,0.0693849402628839
1783693609239590000,9.69358984375,0.034405542948842044,-0.004654474742338061,0.05745046458020806
1783693609249552000,9.7035517578125,0.05821078142821789,0.01446074275728315,0.0668492843054235
1783693609259515000,9.713514892578125,0.02486906831860542,0.00557495058812201,0.06062763331159949
1783693609269476900,9.723476806640624,-0.03404664650857448,0.024285898135788738,0.012952566684037447
1783693609279440000,9.73343994140625,-0.08649404210448265,0.03503562101330608,-0.04441986422389745
1783693609289403000,9.74340283203125,-0.13359773858487606,0.030998474451713262,-0.06872428439706564
1783693609299364900,9.75336474609375,-0.15470307045578954,0.02177479209769517,-0.08253105675764381
1783693609309328000,9.763327880859375,-0.14348025017380714,0.00522343373671174,-0.10071480209343135
1783693609319289900,9.773289794921874,-0.12267010185718535,-0.004632299443148076,-0.12403591031767427
1783693609329252900,9.7832529296875,-0.0827706376671791,-0.031560930640064176,-0.0550676610969007
1783693609339214800,9.79321484375,-0.02849778020977974,0.011414214668236672,0.04284275110028684
1783693609349177900,9.803177734375,0.02175999638736248,0.03887644128520042,0.07659808651208877
1783693609359139800,9.813139892578125,0.06275777720808982,0.03226242997292429,0.0856316531214863
1783693609369102800,9.823102783203124,0.026655951735377312,0.012149141346663237,0.07747063156291842
1783693609379065900,9.83306591796875,-0.0006663549542427063,0.004106850796937942,0.05740764835178852
1783693609389027800,9.84302783203125,-0.005834697502851486,0.006090973818860947,0.03906732421480119
1783693609398990800,9.852990966796876,-0.026364275312423704,0.014407806993648409,0.01793999970778823
1783693609408952800,9.862952880859375,-0.03607493746578693,0.02450418052896857,-0.02144749637208879
1783693609418915800,9.872915771484376,-0.056793315845727915,-0.005244586122594774,-0.06308160233497619
1783693609428877800,9.8828779296875,-0.08275660914182663,-0.005638955735042691,-0.10151632773466408
1783693609438841300,9.89284130859375,-0.11440613138079643,0.000014905308187007903,-0.0947743791937828
1783693609448804400,9.902804443359376,-0.09268062178492545,0.020459727443754672,-0.01161583818756044
1783693609458766300,9.912766357421875,-0.06117547645270824,0.07629756919555365,0.0967172568898648
1783693609468729300,9.922729248046876,-0.12367314141988754,0.06966616835705935,0.1149676377210766
1783693609478691300,9.93269140625,-0.165163089671731,0.08236128968130797,0.04987462249845266
1783693609488654300,9.942654296875,-0.09472469483315944,0.04112517006006092,-0.013456716813892126
1783693609498616300,9.9526162109375,-0.04178454728424549,-0.014587109083309768,0.02658485926054418
1783693609508579300,9.962579345703125,-0.022743162205815314,-0.0012259615983814,0.022216800244152544
1783693609518541300,9.972541259765626,-0.005106967750191688,0.027573760700039564,-0.007934154000133276
1783693609528504300,9.98250439453125,0.031766426616907116,0.008157806688174604,-0.04627279861420393
1783693609538467300,9.99246728515625,0.0263514158308506,-0.014569573426619171,-0.0770235453825444
1783693609548429300,10.00242919921875,0.0007435118436813354,0.019843860567733643,-0.05666399037763476
1783693609558392300,10.012392333984375,0.03566927927434444,0.04812043577488512,0.0887876329343766
1783693609568354300,10.022354248046875,0.0530558828830719,0.04844400517344474,0.15235205035023391
1783693609578317300,10.0323173828125,0.045559974169731135,0.016295739632099866,0.06656725249364971
1783693609588279300,10.042279296875,0.04295125297605991,-0.019920104141719637,-0.02123268457762897
1783693609598242300,10.0522421875,0.014920505756139754,-0.06481920324992388,-0.07370652978904545
1783693609608205300,10.062205322265624,-0.007898644295334815,-0.05737064080964774,-0.053149406385421746
1783693609618167300,10.072167236328125,-0.0479535913079977,-0.02088189837858081,-0.03670731708519161
1783693609628130600,10.082130615234375,-0.11715630687177181,0.039331783837266265,-0.04392623548805714
1783693609638092300,10.09209228515625,-0.17617898920476435,0.0516888323135674,0.03603453239016235
1783693609648055300,10.10205517578125,-0.15950842491090297,0.04688804443571716,0.11211962787881492
1783693609658017300,10.112017333984374,-0.10702712704539298,0.064848356279172,0.10639372451268136
1783693609667980500,10.12198046875,-0.07420739198327064,0.037464163334481417,0.1408302471216768
1783693609677942300,10.1319423828125,-0.04795066869854927,0.03456478863116354,0.11181794151850044
1783693609687905300,10.1419052734375,-0.04040858275592327,0.013685849394649266,0.03247742443047464
1783693609697868300,10.151868408203125,-0.012363807010650634,-0.021737894153408707,-0.01559920873530209
1783693609707830500,10.16183056640625,-0.010792612171173095,0.007697934091463685,0.035321707945689555
1783693609717793300,10.171793212890625,-0.0154021517932415,-0.006362265040911734,0.008571721251308917
1783693609727755300,10.18175537109375,-0.002480126377940178,0.015186024824529885,0.026734569929540156
1783693609737718300,10.19171826171875,-0.015976152288913727,0.008989106413163243,0.006872223857045173
1783693609747680500,10.201680419921875,-0.04047463372945785,-0.010098090568371116,0.01709573090337217
1783693609757643300,10.211643310546876,-0.046124622315168375,-0.034271322109922765,-0.003464388174936175
1783693609767606300,10.221606201171875,-0.04777238952219486,-0.023895802839659152,-0.03163008688613772
1783693609777568300,10.231568359375,-0.02864800233542919,-0.012362747564725577,-0.007698883939534425
1783693609787531300,10.24153125,-0.019662731847167013,0.017967874095402656,-0.008139175052940845
1783693609797493200,10.2514931640625,0.01856616878211498,0.0663848085988313,-0.0070960957407951355
1783693609807456300,10.261456298828126,0.042915597140789026,0.05001147368587553,0.015047639267146586
1783693609817418200,10.271418212890625,-0.0010866261929273605,0.04385762723125517,0.029204832500591874
1783693609827381200,10.28138134765625,0.0068634560286998745,0.0033017084265127778,0.04019808181039989
1783693609837343200,10.29134326171875,0.027544425007700917,-0.02197879023719579,0.03029737697765231
1783693609847306200,10.30130615234375,0.008396656945347785,-0.05155965297594666,0.024489421351253985
1783693609857269200,10.311269287109376,-0.02634966226518154,-0.029665399217046796,0.08266790794506669
1783693609867231500,10.3212314453125,-0.05842471643984318,-0.018746493785083293,0.06586480331271886
1783693609877194500,10.331194580078124,-0.13959084151983261,-0.025877149382606147,0.018137495041266084
1783693609887156200,10.34115625,-0.2058534119784832,-0.004698606145009398,0.0015576777707785366
1783693609897119200,10.351119140625,-0.20799451566040514,-0.01811787702534348,0.009540712413936853
1783693609907081500,10.36108154296875,-0.1940156746685505,0.005376943797990679,0.011818886478990315
1783693609917044500,10.37104443359375,-0.16046002654731273,0.01641085391175002,0.017470263304188847
1783693609927007500,10.381007568359376,-0.12515841154158114,0.018583850569278002,0.06445895510278642
1783693609936969200,10.39096923828125,-0.07071195108294487,0.00962177829351276,0.0636669279422611
1783693609946932200,10.40093212890625,-0.023177461969852445,-0.018068192664720116,0.033046383424848315
1783693609956894500,10.41089453125,-0.008994622838497161,-0.018549509908258915,0.00894391556456685
1783693609966857500,10.420857421875,0.04161620498001575,-0.024075652918592094,-0.022191227411478758
1783693609976819200,10.430819091796875,0.09347089537978172,-0.01955671418942511,-0.035767186690866946
1783693609986782200,10.4407822265625,0.12680267161726952,0.006782207486033439,-0.03334280908815562
1783693609996744400,10.450744384765626,0.15195347948670387,0.006747136172652244,-0.01443359902203083
1783693610006707500,10.46070751953125,0.08885726410448551,0.017460801356099544,-0.004468158390000462
1783693610016670200,10.470670166015625,-0.0283861365288496,0.06449987163506447,0.03460457265228033
1783693610026632200,10.480632080078125,-0.17243980267643927,0.07802238369416445,0.04244184214919805
1783693610036595500,10.490595458984375,-0.3170277218312025,0.01276774816904217,0.007809431641921401
1783693610046557400,10.500557373046876,-0.39855858857035636,-0.011193667252734303,-0.02218516299687326
1783693610056520200,10.510520263671875,-0.35630876186192034,-0.018305837345495818,-0.031278570034727456
1783693610066482400,10.520482421875,-0.22574469188451765,-0.049474736460670826,0.018591230158135293
1783693610076445400,10.530445556640625,-0.04704173716008663,-0.04915734107457101,0.03515285418480635
1783693610086408400,10.540408447265625,0.12093757897615431,-0.041288215134665365,0.027505919628217815
1783693610096370200,10.5503701171875,0.1760422110825777,-0.005714651319757104,0.012719196319580078
1783693610106333200,10.560333251953125,0.14024316794872282,0.043389132936671376,0.06898446970321237
1783693610116295400,10.57029541015625,0.06556640488803386,0.13674845770075916,0.19460662629902362
1783693610126258400,10.580258544921875,-0.054580315971374506,0.1401647689502686,0.15867109730392692
1783693610136220200,10.59022021484375,0.042667759859561914,0.0881030847363174,0.04907923433706164
1783693610146183200,10.60018310546875,0.29354163230359553,0.0063405281331390135,0.06534202154763043
1783693610156145400,10.6101455078125,0.3988829982191324,-0.04176913051940501,0.04922967565841972
1783693610166108400,10.6201083984375,0.2829372361809015,0.06925831820853054,0.01904620738402009
1783693610176071400,10.630071533203125,0.23646599238514898,-0.047580227950960396,0.14313888939023017
1783693610186033200,10.640033203125,-0.13517010246813296,-0.04392119398675859,-0.145558590817824
1783693610195996200,10.64999609375,-0.4317226070255041,-0.1003378585398197,-0.31545652699172494
1783693610205958400,10.65995849609375,-0.4207780191630125,-0.13827946666032076,-0.21426767764575777
1783693610215921400,10.66992138671875,-0.44978959411382674,-0.11538126002326607,-0.18576872839219868
1783693610225883100,10.679883056640625,-0.5399328063756227,-0.009205927501618862,-0.15915727338567376
1783693610235846400,10.689846435546874,-0.5403957477122545,0.10937566293291746,-0.10654000111557543
1783693610245808400,10.699808349609375,-0.5143219797790051,0.1579039853889495,0.09039068421684204
