time,seconds_elapsed,z,y,x
1783693586731494000,0.059493896484375,0.029797172370553016,-0.033176658741012215,0.020190262852609157
1783693586741456100,0.0694560546875,0.09218494722247123,-0.07678411060348153,-0.018529051642119883
1783693586751419000,0.0794189453125,0.11438041241765022,-0.11064213920477776,-0.06756269327178598
1783693586761380900,0.089380859375,0.11671148571372031,-0.07968439862225205,-0.12732640323042868
1783693586771344000,0.09934375,0.10322247406542301,-0.04494556859843433,-0.09067425039857625
1783693586781306000,0.10930615234375,0.05632862094342708,0.0033536212768405676,0.020564941383898257
1783693586791268900,0.119268798828125,-0.014174655824899672,0.05989478899240493,0.06845102041363715
1783693586801232000,0.12923193359375,-0.05838029277622699,0.1083679106624797,0.053505672477185726
1783693586811193900,0.13919384765625,-0.044354105511307716,0.10550368033777922,0.03972922218963504
1783693586821156900,0.149156982421875,-0.003135375416278839,0.04873586425948888,0.031592092963308095
1783693586831118800,0.159118896484375,0.09032967474460601,-0.024333500137180088,-0.005763385832309722
1783693586841081900,0.169081787109375,0.18870237069129941,-0.04785378419533372,0.050149347786605354
1783693586851044900,0.179044921875,0.16846563834846018,-0.04597567883115262,0.08206818848624825
1783693586861006800,0.1890068359375,0.09688158060610294,0.008643836639449,0.08831278196424246
1783693586870970000,0.19897021484375,-0.06812135006785393,0.014260653607919812,0.042512277036905285
1783693586880931800,0.208931884765625,-0.18344634985923766,-0.020183979242295026,-0.007972294053435325
1783693586890894800,0.218894775390625,-0.183788879686594,0.0020190116722136734,0.0029893910743296146
1783693586900857900,0.22885791015625,-0.16492928091585635,-0.04256941405162215,0.031551907083392144
1783693586910820000,0.238820068359375,-0.13789397447407245,-0.020996464668959377,0.10018909771889448
1783693586920782800,0.248782958984375,-0.19061083466112613,0.0111943248398602,0.06791282188370823
1783693586930744800,0.258744873046875,-0.17257774984240531,0.0108237014291808,0.040595629760622975
1783693586940707800,0.268707763671875,-0.15695698686242102,-0.01742883531525731,0.02821107222288847
1783693586950670000,0.278670166015625,-0.16125672988295553,-0.02405577917434275,-0.011235533633083104
1783693586960632800,0.2886328125,-0.11687281375527381,-0.004069404863379896,-0.0182820911437273
1783693586970595800,0.298595947265625,-0.061975102397799485,0.02281578905060887,-0.0056328913204371925
1783693586980557800,0.308557861328125,-0.018744447958469388,0.026242183302715417,-0.003963496803492308
1783693586990520800,0.318520751953125,0.01653670878112316,0.026300598959065974,-0.011872954753786325
1783693587000483000,0.328483154296875,0.02668167069852352,0.020251308857463297,-0.03568886075764894
1783693587010445800,0.33844580078125,0.03674421502947807,0.019167166882567106,-0.017225275567173955
1783693587020408800,0.348408935546875,0.059163552108407014,0.036967831184901295,0.009060966072976588
1783693587030371000,0.35837109375,0.09348375486135482,0.035626024654507635,0.03485796289145946
1783693587040334000,0.368333984375,0.10332418087422847,0.015059037443995475,0.04151800530254841
1783693587050295800,0.3782958984375,0.15110358465909957,-0.013095811079628764,0.0612906272649765
1783693587060258800,0.3882587890625,0.14758417836129664,-0.027432416000589727,0.04891878307834267
1783693587070221800,0.398221923828125,0.08392214578986168,-0.011219057422317564,0.04522591990977525
1783693587080184000,0.40818408203125,0.048269817650318146,-0.013546769717521964,0.050692953144013876
1783693587090147000,0.41814697265625,-0.0166962832570076,-0.012211027601733803,0.03555325167924166
1783693587100108800,0.42810888671875,-0.05503215139210224,-0.01808503420166671,0.02169876771941781
1783693587110071800,0.43807177734375,-0.0851665928930044,-0.013386829915456472,0.03350099532455206
1783693587120034000,0.448033935546875,-0.12590776860415934,0.0013662833845242857,0.03892725815698504
1783693587129997000,0.4579970703125,-0.14871931987106798,0.000050451545603573316,0.02976473140567541
1783693587139959800,0.467959716796875,-0.15398527757525443,0.014140826620534062,0.02618701904937625
1783693587149921800,0.477921875,-0.1374427235752344,-0.0013980302296578884,0.015577362229675054
1783693587159885000,0.487885009765625,-0.09609130701124667,-0.0208183681556955,0.012841215264052151
1783693587169847000,0.497846923828125,-0.09475392092764377,-0.02501238577943295,-0.007587824780493974
1783693587179809800,0.507809814453125,-0.11158581326305865,0.0030951530037447808,-0.022149141835421323
1783693587189772800,0.517772705078125,-0.14635200621783734,0.025127463526464996,-0.05747559902146458
1783693587199735000,0.527735107421875,-0.13573825774490833,0.006896116189286113,-0.03936871831417083
1783693587209698000,0.537697998046875,-0.0845616127371788,0.014678732889518141,-0.04393529557734727
1783693587219659800,0.54765966796875,-0.07241933952271938,0.020104776526242492,-0.0491693968385458
1783693587229622800,0.557622802734375,-0.02826104884445667,0.020741284331493078,-0.03669803780019283
1783693587239585800,0.567585693359375,0.02330488774180412,0.01588208079729229,-0.007585048301517963
1783693587249548000,0.577548095703125,0.024102175599336622,0.023982494742423293,-0.007228051557391882
1783693587259511000,0.587510986328125,-0.014338321954011916,0.025482706704922017,-0.014604425544291734
1783693587269472800,0.59747265625,-0.007783493483066559,0.03330357305631041,0.030820524068921804
1783693587279435800,0.607435791015625,0.02465162617564201,-0.000964607248455286,0.03345496422573924
1783693587289398000,0.61739794921875,0.03097147684693336,-0.029784093693271278,-0.02661182033270597
1783693587299361000,0.627361083984375,0.025362989315390584,-0.04730882713105529,-0.07515504809692501
1783693587309324000,0.637323974609375,0.048853170496225354,-0.05988624035976827,-0.07324190795198082
1783693587319285800,0.64728564453125,0.05426876580417156,-0.05424892859254032,-0.07455225989818573
1783693587329249000,0.6572490234375,0.017173837640881536,-0.007956183168850838,-0.04498422010838985
1783693587339211000,0.6672109375,-0.05648293472230434,0.03829860486462712,0.01972527568936348
1783693587349174000,0.677174072265625,-0.1319838736474514,0.07106248155366629,0.03567585514560342
1783693587359136800,0.68713671875,-0.17075404154658316,0.06617459991425276,0.032562983822077514
1783693587369099000,0.69709912109375,-0.1947562639027834,0.054383076366223394,0.03884279474392533
1783693587379062000,0.70706201171875,-0.17656944982707498,0.041830066926404834,0.03628273499757051
1783693587389024000,0.71702392578125,-0.1152437512487173,0.05166764339506626,0.05103782105892896
1783693587398986800,0.72698681640625,-0.0391828403532505,0.04274955639149993,0.06688420948833226
1783693587408949800,0.73694970703125,0.04604045116305351,0.012740421770699322,0.07996332516148685
1783693587418911200,0.7469111328125,0.08604162216186523,-0.0049613122018054125,0.07185892916098237
1783693587428874000,0.7568740234375,0.0708545744240284,-0.007673639900423586,0.06212766261100769
1783693587438836200,0.766836181640625,0.040188802525401114,-0.006392185255140066,0.01767579581364989
1783693587448799200,0.77679931640625,0.00507248095870018,-0.020069559082388878,-0.002174129168689251
1783693587458762200,0.78676220703125,0.01532324133813381,-0.027026136754639444,0.01738002773746848
1783693587468724000,0.796723876953125,0.019936288091540334,0.004809811434522271,0.012914134369790553
1783693587478687000,0.80668701171875,0.06633505117297173,0.03198200559634715,0.02707768427878618
1783693587488649200,0.816649169921875,0.08031915286183357,0.0333007965773344,0.03814224525913596
1783693587498612200,0.8266123046875,0.10667699843347073,0.02164111924804747,0.007899667208641768
1783693587508574200,0.83657421875,0.14552724583148954,-0.0033837972193956375,0.006773001266270876
1783693587518537000,0.846536865234375,0.1357733290582895,-0.010452968420647085,0.02538023271113634
1783693587528500000,0.8565,0.10512567733824252,-0.027711780931241808,0.02077200826331973
1783693587538462200,0.866462158203125,0.0750023417532444,-0.036684484198875725,0.01212473755776882
1783693587548425200,0.87642529296875,0.026564181798696518,-0.023171580218337474,0.017690116599947212
1783693587558387000,0.886386962890625,-0.012844868525862693,-0.01842701603975147,0.024340076008439064
1783693587568350000,0.896349853515625,-0.10419979466497897,0.00020798019487410781,0.04616656176075339
1783693587578313200,0.906313232421875,-0.2229062535881996,0.07841467094738036,0.06875964797139167
1783693587588275200,0.916275146484375,-0.3273550545781851,0.1373569084553048,0.10195362317338585
1783693587598238200,0.92623828125,-0.3866296658456325,0.13214823389630764,0.12420637151375412
1783693587608200200,0.9362001953125,-0.35628596550822256,0.06038951370678842,0.10716872747316956
1783693587618163200,0.9461630859375,-0.3203261788547039,0.017204817301034927,0.0876521260984242
1783693587628126200,0.956126220703125,-0.3027712329417467,-0.001919642950966954,0.05319587587565183
1783693587638088200,0.966088134765625,-0.24191315187513826,-0.01312649847883731,0.0458547193326056
1783693587648051000,0.976051025390625,-0.22023206594288347,0.011836860527098179,0.05257949754297733
1783693587658013200,0.98601318359375,-0.17725567852556703,0.052554070840775964,0.03791983468011021
1783693587667976200,0.99597607421875,-0.1401519825339317,0.04728073354773223,0.051756052330881354
1783693587677938200,1.005938232421875,-0.14015665870904923,0.03860127760563045,0.024139000478386876
1783693587687901000,1.01590087890625,-0.08278758880198002,0.0018404767675325273,0.0033212533771991726
1783693587697864000,1.025864013671875,0.023786533778905865,-0.02115384718775749,-0.021349662020802497
1783693587707826200,1.035826171875,0.15677286246716976,-0.03724102210309356,-0.002929331450164318
1783693587717789200,1.0457890625,0.22648294303119182,-0.030833895007148383,0.036677871794998644
1783693587727751000,1.0557509765625,0.27067513597905635,0.0010647796873003244,0.036400954549759626
1783693587737714200,1.065714111328125,0.2988362315803766,0.006785605019517242,0.02869154921621084
1783693587747677200,1.07567724609375,0.29108488680124284,0.03251107097174972,0.06747457659691572
1783693587757639200,1.08563916015625,0.2168459306359291,0.06929974619746208,0.07978197724521159
1783693587767602200,1.095602294921875,0.08172609705030917,0.08594060947280377,0.06306245924308895
1783693587777564200,1.105564208984375,0.000029226094484329223,0.06811353208757936,0.04033332556262612
1783693587787527200,1.115527099609375,-0.060680386412143704,0.010300700468383729,-0.039903117451816794
1783693587797490200,1.125490234375,-0.1469505566328764,-0.0003555719720199704,-0.08612360135689377
1783693587807452200,1.1354521484375,-0.21779168705344198,-0.022749372750893233,-0.09614493689462542
1783693587817415200,1.145415283203125,-0.23474282185435294,-0.04719864475484937,-0.0421761769503355
1783693587827377200,1.155377197265625,-0.23480653474032878,-0.028172384180314838,-0.006953180138766765
1783693587837340200,1.165340087890625,-0.24603520024120806,-0.020839630139432845,-0.0005254851788282394
1783693587847302100,1.17530224609375,-0.2196481285750866,-0.009899060864932835,0.012960165468603372
1783693587857265200,1.18526513671875,-0.13828735770583153,0.01667008936982602,0.06548340277969837
1783693587867228000,1.195227783203125,-0.058171618461608884,0.035476825442165134,0.09791910696029663
1783693587877190100,1.205190185546875,-0.0064876084536314,0.05580317229721695,0.10578531029075383
1783693587887153200,1.215153076171875,0.08292436692416667,0.06695563075672835,0.09322261970713734
1783693587897115100,1.225115234375,0.13554887265264987,0.0435479402275756,0.09148819712996482
1783693587907078100,1.235078125,0.15257365721166133,0.052939124635607,0.06447378734573722
1783693587917040000,1.2450400390625,0.09386895478665828,0.03168181707337499,0.019373685772717
1783693587927003100,1.255003173828125,-0.02448445291519165,0.018218780116550624,-0.0813373899936676
1783693587936966100,1.264966064453125,-0.11248656149506568,-0.00758961487878114,-0.15764160812571643
1783693587946928000,1.27492822265625,-0.15072832160592078,-0.028545016884990036,-0.16888590958714483
1783693587956891100,1.28489111328125,-0.1340402216553688,-0.03823459971770644,-0.15295739583224058
1783693587966853000,1.29485302734375,-0.0780699126303196,-0.017538177441246805,-0.07955883601382374
1783693587976816000,1.304816162109375,-0.04719838902652263,-0.0017136355174705385,-0.012640285864472389
1783693587986779100,1.314779052734375,-0.01061900916993618,0.012238317467458546,0.05607040839865803
1783693587996741000,1.3247412109375,-0.054496729341149325,0.05801529538873583,0.08008285988792777
1783693588006704000,1.3347041015625,-0.07984569013118743,0.06946965940427034,0.08159414123371243
1783693588016666000,1.344666015625,-0.07496200974285602,0.05060757641550153,0.1068969247944653
1783693588026629000,1.354629150390625,-0.07785422405302524,0.04454951848555356,0.06950637468546629
1783693588036592000,1.364592041015625,-0.05629822580516338,-0.008399287293851376,0.019436521875858304
1783693588046554000,1.37455419921875,0.009060089290142058,-0.04925444477349519,0.012330781523883342
1783693588056517000,1.38451708984375,0.050774493947625156,-0.07260503482054918,-0.012768880680203437
1783693588066479000,1.39447900390625,0.0248527017056942,-0.05143851081430912,-0.006853957547992467
1783693588076442400,1.4044423828125,0.0295277077794075,-0.013060520570538938,0.011620879688858984
1783693588086404000,1.414404052734375,0.04989303493797779,0.003058949179202318,0.047180853369832035
1783693588096367000,1.4243671875,-0.014839841735363006,0.05789144981335848,0.064526394315809
1783693588106330000,1.434330078125,-0.1125076042830944,0.1123921612098813,0.06704860626980662
1783693588116292400,1.444292236328125,-0.10359949068427085,0.06919281522426754,0.06236702432483434
1783693588126255000,1.454255126953125,-0.06712766285538672,0.009841339328326284,0.02811097284927964
1783693588136217000,1.464217041015625,-0.013609423157572745,-0.025725977408885953,0.004215571868419647
1783693588146180000,1.47418017578125,0.04179331511259079,-0.07740195024088024,0.00862432822138071
1783693588156143000,1.48414306640625,0.12476444378793239,-0.06659757456667721,0.049589083555340766
1783693588166105000,1.49410498046875,0.1480038650780916,-0.057136649390682574,0.058734513041377064
1783693588176068000,1.504068115234375,0.047238721036911006,-0.0227646799178794,0.04523337256386876
1783693588186030000,1.514030029296875,-0.12777765412926673,0.028209099461510775,0.06340995750650763
1783693588195993000,1.5239931640625,-0.11806231580078601,0.02016443429160863,-0.06408975646421312
1783693588205955000,1.533955078125,-0.061114101654291146,0.004083104595169425,0.03105214086771011
1783693588215918000,1.54391796875,-0.06897066037356853,-0.0034785262981429695,0.025975568255782126
1783693588225881000,1.553881103515625,-0.06343582260012626,0.005448182403296232,0.012801321645081043
1783693588235843000,1.563843017578125,-0.11183014341294764,-0.00833849701732397,0.01753463377729058
1783693588245806300,1.573806396484375,-0.17855273259878157,-0.003932919002138078,-0.01842500674575567
1783693588255768000,1.58376806640625,-0.2193903544217348,-0.0023936171382665634,-0.03765329269841313
1783693588265731000,1.59373095703125,-0.22086861028075216,0.0007506357042118907,0.017342910597473383
1783693588275693000,1.603693115234375,-0.24915479356646536,0.019309790223650633,0.0292934606321156
1783693588285656300,1.61365625,-0.23625848711431024,0.044914077481627464,0.06572568710297345
1783693588295619000,1.623619140625,-0.10769932721853255,0.040212987118586896,0.12775909555926918
1783693588305581000,1.6335810546875,-0.003991115462779998,0.013359393919259308,0.14912658549770713
1783693588315544000,1.6435439453125,0.02179039152562618,0.017185455013439058,0.12436302338019013
1783693588325506300,1.65350634765625,0.03796177412569523,0.0013842574326321483,0.10027239208817482
1783693588335469300,1.66346923828125,0.011796236255764961,-0.00817519621439278,0.09148293643295764
1783693588345432000,1.67343212890625,0.021722586986422536,-0.0030583646573126315,0.05819514546766877
1783693588355394000,1.68339404296875,-0.024564532414078712,0.026274295474030075,0.059508273892849683
1783693588365357000,1.693357177734375,-0.05654606308639049,-0.00892616071216762,0.03270034646615386
1783693588375319300,1.7033193359375,-0.016355506995320318,-0.04920530840214342,0.005739712695777416
1783693588385282000,1.713281982421875,0.003029576954245567,-0.05167147931996733,-0.01165770456790924
1783693588395244000,1.723244140625,0.06072130294442177,-0.04612875050101429,-0.03230024123266339
1783693588405207000,1.73320703125,0.08862170178294182,-0.03265438843257725,-0.02380173134803772
1783693588415170300,1.74317041015625,0.05449380673170089,0.01261423810776323,-0.014118687853962182
1783693588425132500,1.753132568359375,-0.0017798691540956495,0.03947860842943191,-0.01961553170457482
1783693588435095600,1.763095458984375,-0.05303776270449161,0.04612509723920375,-0.0028559739530086515
1783693588445057300,1.773057373046875,-0.11007014800310135,0.017695559960044918,-0.02683788417354226
1783693588455020500,1.7830205078125,-0.13395371241569518,0.004285604897327721,-0.040733284665644166
1783693588464982500,1.792982421875,-0.09309563232660294,-0.026902510374970733,-0.008799100266396999
1783693588474945500,1.802945556640625,-0.02853986578583717,-0.06490742952264845,0.007015139459073543
1783693588484908500,1.812908447265625,-0.008740940338373185,-0.05625464239176362,0.01715980911552906
1783693588494870500,1.82287060546875,0.041028760480880735,-0.055445700629055496,0.04308467009738087
1783693588504833500,1.83283349609375,0.10591887354254723,-0.038639198463223876,0.08148951181545853
1783693588514795500,1.84279541015625,0.11520867993533611,-0.039221199602261184,0.13528481488898395
1783693588524758500,1.852758544921875,0.03651099079549312,-0.008594042680971324,0.1698779893644154
1783693588534721500,1.862721435546875,-0.07380348735749721,0.029831403433717787,0.15251257467418908
1783693588544683500,1.87268359375,-0.14190321011543272,0.03587799012158066,0.09191080645620822
1783693588554646500,1.882646484375,-0.22900807759463787,0.019497129489295183,0.030661680245399472
1783693588564608500,1.8926083984375,-0.28473639455735683,0.008021393892168998,0.0034324586667120456
1783693588574571500,1.902571533203125,-0.26016835501193997,-0.023090514338761567,-0.04310834323391318
1783693588584533500,1.912533447265625,-0.2023234842866659,-0.03723433663398027,-0.07168371872454882
1783693588594496500,1.92249658203125,-0.17389526218175888,-0.03189790750946849,-0.05591799431592226
1783693588604459500,1.93245947265625,-0.17950316519141196,0.017626732507534323,-0.020171412021666765
1783693588614421500,1.94242138671875,-0.16421148803532123,0.04885777360610664,0.017272767970710992
1783693588624384500,1.952384521484375,-0.12711071465313434,0.05797156584486365,0.02559767485409975
1783693588634346500,1.962346435546875,-0.06751753895580768,0.05561473705302924,-0.006097878483682871
1783693588644309500,1.9723095703125,0.03120294751524925,0.018360197881236672,-0.018638503365963698
1783693588654271500,1.982271484375,0.10316343735456467,0.005842698146216571,-0.012385288190096617
1783693588664234500,1.992234375,0.1465320389598608,-0.008636457050591706,-0.02008563343435526
1783693588674197500,2.002197509765625,0.1276443831384182,0.00823993201367557,-0.012217676538228988
1783693588684159500,2.012159423828125,0.11489596072435378,0.013386683784984052,0.016778408582508564
1783693588694122500,2.02212255859375,0.08261164771318436,0.012797193459235131,-0.010140870264172553
1783693588704084500,2.03208447265625,0.09856383460462093,-0.007180924480035901,-0.009213964677602052
1783693588714047500,2.042047607421875,0.07153437338173389,-0.02549885412212461,-0.03963964421004057
1783693588724010500,2.052010498046875,0.06580021364390849,-0.03467000257130712,-0.06953560077995062
1783693588733972500,2.061972412109375,0.0806879861742258,-0.03431833958942443,-0.07450929753929376
1783693588743935500,2.071935546875,0.055740591922402376,-0.01868760320469737,-0.04462897692993283
1783693588753897500,2.0818974609375,-0.0076028762191534035,0.026164186163060366,0.0016803543023765086
1783693588763860500,2.091860595703125,-0.10304945558607578,0.06154675745051354,0.051610944771766656
1783693588773822500,2.101822509765625,-0.21276889045536518,0.06359561627171934,0.06795739167779684
1783693588783785500,2.111785400390625,-0.24665537796616552,0.05262169271688908,0.05308920063078403
1783693588793748700,2.121748779296875,-0.24138240599930286,0.007089666000008582,0.027697862003743648
1783693588803710500,2.13171044921875,-0.191526780462265,-0.0240608572082594,0.032592794438451526
1783693588813673500,2.141673583984375,-0.07740998741686343,-0.02886175468396395,0.019607202267646787
1783693588823635500,2.151635498046875,-0.01938800655901432,-0.019428009775839746,0.03867211435213685
1783693588833598700,2.1615986328125,0.04259703271090984,-0.017245185844041406,0.11366451923325657
1783693588843560400,2.171560546875,0.0558136571586132,0.013433409003540873,0.16445216492339967
1783693588853523500,2.1815234375,-0.0072153382062911985,0.0570956232605502,0.17117562795951963
1783693588863486500,2.191486572265625,-0.03701134153306484,0.037882790605351324,0.1499677124969661
1783693588873448700,2.20144873046875,-0.031191841599345207,-0.0007508548999205231,0.08733400005996227
1783693588883411500,2.211411376953125,-0.02997252893745899,-0.001538352015800774,0.02660349089577794
1783693588893373400,2.22137353515625,-0.025830022305250167,0.006376001305319369,-0.03245806214287877
1783693588903336400,2.23133642578125,-0.02723053675293922,0.005608304868452251,-0.03734977970719337
1783693588913298700,2.241298583984375,-0.05245499438047409,0.00866962866783142,-0.011066168415546416
1783693588923261400,2.251261474609375,-0.10490940423905849,0.03460325747802853,0.0032180852636694906
1783693588933224400,2.261224365234375,-0.1268032561391592,0.027677951726876197,0.012213292624056338
1783693588943186400,2.2711865234375,-0.08603519242107868,0.03265932033602148,0.005431085138022899
1783693588953149400,2.2811494140625,-0.024050737673044203,0.012865509455092251,0.008584580732882022
1783693588963111400,2.291111328125,0.01660217523276806,0.022333448893763125,-0.005406973610073328
1783693588973074400,2.301074462890625,0.09024667263627052,0.01199322013258934,0.0038395781628787515
1783693588983037400,2.311037353515625,0.12182429868280886,0.0051123745776712895,0.014104805459082126
1783693588992999700,2.320999755859375,0.031443186011910436,0.05054145237673074,0.003047404871881008
1783693589002962700,2.330962646484375,-0.04172784866094589,0.06980459044706076,-0.012758651547133923
1783693589012924400,2.34092431640625,0.01914309188723564,0.03025255145523697,-0.013584142585843801
1783693589022887400,2.350887451171875,0.034248891082406044,-0.0110518841618672,-0.0076589903205633155
1783693589032849700,2.360849609375,0.014098667979240417,-0.02886741723977029,-0.023019348798692225
1783693589042812700,2.370812744140625,0.03323533012568951,-0.04096512066014111,-0.017509353205561635
1783693589052775700,2.380775634765625,0.10561258407235145,-0.052218116884678596,0.05719648981913924
1783693589062737400,2.3907373046875,0.07865151191055775,-0.01028802364990115,0.13104162436127662
1783693589072700400,2.400700439453125,-0.07290332364737986,0.07930380180682986,0.14193594334125517
1783693589082662700,2.41066259765625,-0.21025018563270567,0.12679876262713222,0.11477233434468508
1783693589092625700,2.420625732421875,-0.24765841752886772,0.09447853805236518,0.09826222130954265
1783693589102587400,2.43058740234375,-0.20399872402250765,0.06458367746099829,0.05666048324629664
1783693589112550400,2.44055029296875,-0.18023615564107895,0.03859455560389906,0.00712400666102767
1783693589122513400,2.450513427734375,-0.1365624336093664,0.013445099441334605,0.0054528585784137246
1783693589132475600,2.4604755859375,-0.06971943291425704,-0.00903181304372847,0.000976151555776596
1783693589142438400,2.4704384765625,-0.019342998373508453,-0.020917408083379267,-0.012769757463037967
1783693589152400400,2.480400390625,0.04467500802874565,-0.0031622268905863163,-0.022549685460329056
1783693589162363600,2.49036376953125,0.08792728977799415,0.01945814918577671,-0.009700579150766133
1783693589172325600,2.50032568359375,0.07461305017471313,0.03964304174352437,0.0048025779761374
1783693589182288400,2.510288330078125,0.025660510957241058,0.0324825755296275,-0.007935323043912649
1783693589192251400,2.52025146484375,-0.05604571234881878,0.024995873036049304,-0.04428425514549017
1783693589202213600,2.530213623046875,-0.1432236450642347,0.018188384978286922,-0.054288639548420906
1783693589212176600,2.5401767578125,-0.18594342737197875,0.009444777758792043,-0.0489317886903882
1783693589222138400,2.550138427734375,-0.15729484051465986,-0.03226074947249144,-0.01946910897120833
1783693589232101400,2.560101318359375,-0.0815337893486023,-0.050849349282123146,-0.011565203978866338
1783693589242063600,2.570063720703125,0.01132043543756008,-0.03881250920351594,0.03968319109082222
1783693589252026600,2.580026611328125,0.08740297364294529,-0.02910228544156998,0.09401566978096962
1783693589261989600,2.58998974609375,0.1035755252867937,-0.010835939856246113,0.12470832968652247
1783693589271951400,2.599951416015625,0.03199848180711269,0.07622033924087881,0.15062018505632876
1783693589281914400,2.609914306640625,-0.07939268566668033,0.09571944149155169,0.1165277997098863
1783693589291876600,2.619876708984375,-0.1456172622025013,0.048849882560595866,0.05762991280034184
1783693589301839600,2.629839599609375,-0.18207973768115043,0.03763389387819916,-0.019044015426933764
1783693589311802400,2.63980224609375,-0.1746469573318958,0.008913118567503988,-0.05444339171871543
1783693589321764400,2.649764404296875,-0.13033786000609396,-0.02055401813108474,-0.08253595212846994
1783693589331727600,2.6597275390625,-0.05459317545294761,-0.03752447868697345,-0.10602554878741502
1783693589341689600,2.669689697265625,-0.005654664760828018,-0.010126147619076072,-0.07121975447461008
1783693589351652600,2.679652587890625,-0.005331424155831337,0.030729009860567747,-0.016681231818348168
1783693589361614600,2.689614501953125,-0.008173954105377197,0.06611461335532366,0.030185879427194594
1783693589371577600,2.69957763671875,0.06191431212127208,0.07107680233996361,0.06378317473307252
1783693589381540600,2.70954052734375,0.057016603207588196,0.06994516796153039,0.1009736722253263
1783693589391502600,2.719502685546875,0.05783201124370098,0.050529871536791324,0.10967442668378352
1783693589401465300,2.72946533203125,0.0621229864358902,0.04991820591185241,0.08738003115877509
1783693589411427600,2.739427490234375,0.06530395455956459,0.026989238810352978,0.07737038605883717
1783693589421390600,2.749390625,0.08021452344357967,-0.005157127034850419,0.06713745359703897
1783693589431352600,2.7593525390625,0.021392916640639303,-0.04077442039363086,0.0191731947645545
1783693589441315600,2.769315673828125,-0.05249123473763465,-0.02583652511127293,-0.02234773314744234
1783693589451278600,2.779278564453125,-0.0886310541331768,-0.021586795244924722,-0.012568097411096095
1783693589461240600,2.789240478515625,-0.08920914628207684,-0.0258896435379982,-0.012819003432244062
1783693589471203600,2.79920361328125,-0.1062076273560524,0.004242021483927965,0.00695449531301856
1783693589481165600,2.80916552734375,-0.12268705299198626,0.04000402054302394,-0.023889263501018283
1783693589491128600,2.819128662109375,-0.16670330485105514,0.05211535062994808,-0.04305456722006201
1783693589501090600,2.829090576171875,-0.1736374880284071,0.03631024405900389,-0.033023879332095385
1783693589511053600,2.839053466796875,-0.17385609921514986,0.0337693274045363,-0.05973273029848933
1783693589521016600,2.8490166015625,-0.1511415785819292,0.03436250752471387,-0.09098726187050342
1783693589530978600,2.858978515625,-0.08144377297759056,0.0022257862906903026,-0.058813715757429594
1783693589540941800,2.86894189453125,0.013167524608969687,-0.0190348092071712,-0.03137479695081711
1783693589550903600,2.878903564453125,0.0413221904695034,-0.032025698607601225,-0.015664309860765932
1783693589560866600,2.888866455078125,0.04048047894835472,-0.04174063507728278,0.004354103556275368
1783693589570828800,2.898828857421875,0.04400689950883388,-0.008346388062834739,0.017790508234500884
1783693589580791800,2.908791748046875,0.053093292284011835,0.016020356756821275,0.05348419129773974
1783693589590754600,2.918754638671875,0.023133038306236267,0.03389357483871281,0.08915215539783239
1783693589600716500,2.928716552734375,0.003068155398964882,0.031764307725057006,0.08107172479480504
1783693589610679600,2.938679443359375,0.01567570803761482,0.017433036566339433,0.0782765411183238
1783693589620641800,2.948641845703125,-0.027218261793255805,0.0029492051944136617,0.04435527455508709
1783693589630604800,2.958604736328125,-0.09764262810647487,0.0009520765604451298,0.006496230151504277
1783693589640566500,2.96856640625,-0.11783259869813918,-0.024954225851409134,-0.013358809397369623
1783693589650529500,2.978529541015625,-0.15111761318445205,-0.008682342018932103,-0.033101328482478855
1783693589660492500,2.988492431640625,-0.18849252733290195,0.012396467171236871,-0.030911855614185333
1783693589670454800,2.998454833984375,-0.16559095969498155,0.033157552181743086,0.00008446341305971146
1783693589680417500,3.00841748046875,-0.10608721584677695,0.040597054532729084,0.028011896388977765
1783693589690379500,3.018379638671875,-0.024160043266415594,0.006572400660254061,0.045294016709923744
1783693589700342500,3.028342529296875,0.028886487266421318,0.012029971946403383,0.03383314988836646
1783693589710304800,3.0383046875,0.01374912388920784,0.030580468235351144,0.02981003185212612
1783693589720267500,3.048267578125,0.01301321083009243,0.026348566286638377,0.04045096059292554
1783693589730230500,3.05823046875,0.022658991053700447,0.0014489201666787266,0.05062485634386539
1783693589740192800,3.06819287109375,0.025275311031937597,-0.022638898113742468,0.08396101649552583
1783693589750155800,3.07815576171875,0.011439677903056144,-0.014059578077867627,0.05484072047322988
1783693589760117500,3.088117431640625,-0.0046259062349796294,-0.012867409151233732,0.04010609267801046
1783693589770080500,3.09808056640625,0.001954056677222252,-0.026502916598133742,0.015173311473429202
1783693589780042800,3.108042724609375,-0.015624270111322402,-0.06585293021183461,-0.017916764962673186
1783693589790005800,3.118005859375,-0.014030278918147086,-0.07312058312725275,-0.0237894563883543
1783693589799968800,3.12796875,-0.041891514790058135,-0.055465318644978105,0.011480448304861784
1783693589809930500,3.137930419921875,-0.06552431931197643,-0.058723845516890284,0.004734627306461334
1783693589819893500,3.1478935546875,-0.060139119142293924,-0.0496021622326225,0.0005218319170176983
1783693589829855700,3.157855712890625,-0.087707509547472,-0.019570852312631903,0.01881722093373537
1783693589839818800,3.16781884765625,-0.11285305671989918,0.035216092146746814,0.0325122765481472
1783693589849780500,3.177780517578125,-0.11496551882922648,0.03979567502196878,0.04839446694329381
1783693589859743500,3.187743408203125,-0.08690846812427043,0.07019874086380004,0.08287760517299175
1783693589869706800,3.197706787109375,-0.0886743087530136,0.07628631714917719,0.13174743454307317
1783693589879668700,3.207668701171875,-0.09712123458087443,0.08648344764523208,0.15502791849598288
1783693589889631500,3.217631591796875,-0.12524024460613728,0.06314301366601138,0.10600699021741747
1783693589899593500,3.227593505859375,-0.12582476649582386,0.05614270644988864,0.040186464437842365
1783693589909556700,3.237556640625,-0.10987141056060791,0.04373648506961763,-0.014189999524503945
1783693589919518700,3.247518798828125,-0.08937748858630656,-0.016335962044633924,-0.06249255040064454
1783693589929481700,3.257481689453125,-0.014998831689357757,-0.045546712829358876,-0.07906579179987311
1783693589939444500,3.267444580078125,0.0372089099317789,-0.008509250474348664,-0.06698226303532719
1783693589949406700,3.27740673828125,0.0916810893535614,-0.005917480415478348,-0.008756430168449878
1783693589959369700,3.28736962890625,0.08558452604413032,-0.01574859061073512,0.020376871465891597
1783693589969331700,3.297331787109375,0.10199264000952243,-0.015028496175259351,0.05183817765638232
1783693589979294500,3.30729443359375,0.12640344316661356,-0.009873086173459887,0.051161301308125254
1783693589989256700,3.317256591796875,0.13024199841618536,0.010369272192567586,0.09122297032251954
1783693589999219700,3.3272197265625,0.13174421967267988,0.026219533079490064,0.09831555893197655
1783693590009182700,3.3371826171875,0.12996435051858424,0.035388672234676774,0.10729089254811405
1783693590019144400,3.34714453125,0.048050621941685676,0.06033548196461051,0.10486439605355262
1783693590029107500,3.357107421875,-0.12486498155295848,0.061993843630887564,0.025980828952789307
1783693590039069700,3.367069580078125,-0.2647796481996775,0.0361287134796381,-0.044212943474948405
1783693590049032700,3.37703271484375,-0.2641553788214922,-0.029688487831689415,-0.09607318683266639
1783693590058994400,3.386994384765625,-0.19295827457010745,-0.04397314336970448,-0.06701821113154292
1783693590068957400,3.39695751953125,-0.1339431910216808,-0.08932539307288825,-0.038843817657232285
1783693590078920700,3.406920654296875,-0.09818272633254528,-0.06104494540821761,-0.02584361243918538
1783693590088882700,3.416882568359375,-0.04964812026619911,-0.023750549150072037,0.040399522666633124
1783693590098845700,3.426845703125,-0.056201779693365095,0.02674775820467621,0.12776713273525236
1783693590108807700,3.4368076171875,-0.12319383347034453,0.09865553147606551,0.15800357330590487
1783693590118770700,3.446770751953125,-0.1558031406521797,0.09706526660993695,0.13061492338180541
1783693590128732700,3.456732666015625,-0.13846914401352406,0.05326547051314264,0.07163958732187747
1783693590138695700,3.46669580078125,-0.13279460550844668,-0.008901501194946468,0.010525485667586326
1783693590148658400,3.476658447265625,-0.041730186748504636,-0.02590330673716962,-0.030347353599220514
1783693590158620700,3.48662060546875,0.00528816953599453,-0.052709882456995545,-0.07314356214404105
1783693590168583700,3.496583740234375,0.10383972918093204,-0.06143420045413076,-0.07569076240882278
1783693590178545700,3.506545654296875,0.16168810703754424,-0.03976904274336993,-0.023987901569902895
1783693590188508400,3.51650830078125,0.15012158788442612,0.010492825507000089,0.007753098344802856
1783693590198470700,3.526470703125,0.1502788242727518,0.032012218071520326,0.029385230568796394
1783693590208433700,3.53643359375,0.1409112764686346,0.05231423420291394,0.04181275046542287
1783693590218396700,3.546396728515625,0.10184709405899048,0.05318129936102777,0.02637538122832775
1783693590228358700,3.556358642578125,0.05085808057785034,0.042638168438896534,0.02154796107187867
1783693590238321700,3.56632177734375,-0.023170447707176207,0.041081184787862,0.007349632110446691
1783693590248283600,3.57628369140625,-0.08834522292912006,0.033819669352285565,-0.023177169708907604
1783693590258246700,3.58624658203125,-0.12573065847158432,0.012197108674235641,-0.06618526743873954
1783693590268208600,3.596208740234375,-0.181323366355896,-0.007007942533306777,-0.053846448738873
1783693590278171600,3.606171630859375,-0.25475509779155253,-0.061164187873713666,-0.06203545428290963
1783693590288134700,3.616134765625,-0.20759236460030078,-0.02561024207472801,-0.026091449720412493
1783693590298096600,3.6260966796875,-0.1379343064844608,-0.013122552956081926,0.05225903341695666
1783693590308059600,3.6360595703125,-0.12788579067885875,0.00495082734040916,0.1089937509432435
1783693590318021600,3.646021728515625,-0.0777250447154045,0.06198781574890017,0.11973799392804503
1783693590327984600,3.655984619140625,-0.01664309176504612,0.04851370940878987,0.12063304307162762
1783693590337946600,3.665946533203125,0.02775602193176746,0.03623505993094295,0.11896321016326546
1783693590347909600,3.67590966796875,0.03815349730551243,0.00957289765048772,0.0755761961184442
1783693590357872600,3.68587255859375,0.05863748240768909,0.006869922302104532,0.020912878038734196
1783693590367834600,3.695834716796875,0.09100012135207652,-0.022207192165590823,-0.01679141419455409
1783693590377797600,3.705797607421875,0.050966801649332046,-0.00251092337500304,-0.02186930198073387
1783693590387759600,3.715759521484375,-0.05622282248139381,0.025932971223071217,-0.021332564755529165
1783693590397722600,3.72572265625,-0.0921171426832676,0.01693009201288223,-0.017476181588321923
1783693590407684600,3.7356845703125,-0.11828735672831535,0.027517646598629653,-0.01800941168218851
1783693590417647400,3.7456474609375,-0.12143325353860854,0.015309578138962388,0.004552840998768806
1783693590427609000,3.755609130859375,-0.08819909245669841,-0.012141761757805942,0.03225581756904721
1783693590437572400,3.765572265625,-0.04342354666292667,-0.012194989782385528,0.06838628461435436
1783693590447535400,3.775535400390625,0.003904606223106384,-0.004990063372254372,0.07988952927291393
1783693590457497300,3.785497314453125,0.029061259311437604,-0.013372289933450519,0.09803148129358887
1783693590467460400,3.79546044921875,0.006613280659914017,-0.019716873187199235,0.10592983332797884
1783693590477422300,3.80542236328125,-0.08938391832709312,0.0008212532550096512,0.058226417388767
1783693590487385300,3.81538525390625,-0.09472995553016662,0.04861523355450481,0.037167701138556004
1783693590497347300,3.825347412109375,-0.04492459887564182,0.0039975086709484456,0.08231646415889263
1783693590507310300,3.835310302734375,-0.0762356829404831,-0.0020215689554810524,0.09354249931126832
1783693590517273000,3.845273193359375,-0.1329512573748827,0.0059678954284638165,0.042518560647219414
1783693590527235300,3.8552353515625,-0.10938625739216803,-0.012878076675720511,0.028151304859668016
1783693590537198300,3.8651982421875,-0.09051204557418822,0.0030662557028234,0.018238690393418074
1783693590547160300,3.875160400390625,-0.10038754290044308,0.02701948781814426,0.017572919961065053
1783693590557123000,3.885123046875,-0.11995499767959117,0.03149002082832157,-0.000018704700469970702
1783693590567086300,3.89508642578125,-0.07559796955883502,0.032181692886911334,0.018739479522407055
1783693590577048300,3.90504833984375,-0.03185936559736729,-0.0005856909334659576,0.046452246834337706
1783693590587011300,3.91501123046875,0.021253800430893897,-0.012683138625510036,0.04723272968754172
1783693590596973000,3.92497314453125,0.04174129266440868,-0.01488583630155772,0.05144231020659208
1783693590606936300,3.934936279296875,0.041699791610240934,-0.017294870204664765,0.06373904333040117
1783693590616898300,3.944898193359375,0.010493921485543251,0.018985161379165946,0.04344342040717602
1783693590626861300,3.954861328125,-0.05124269598126411,0.043155945235304534,0.02078998231142759
1783693590636823300,3.9648232421875,-0.10768120703995228,0.028474326268956063,-0.0318837693862617
1783693590646786300,3.974786376953125,-0.0879904181420803,-0.004045658661611378,-0.058744888304919
1783693590656749300,3.984749267578125,-0.04219955782592296,-0.01675564876142889,-0.06371683149859309
1783693590666711300,3.994711181640625,-0.009998831444978713,-0.011379581746272741,-0.06798997877314686
1783693590676674300,4.00467431640625,0.02016834328174591,-0.015995952967926858,-0.027849399303644894
1783693590686636300,4.01463623046875,0.06647825903594494,-0.003256554110534489,0.01718026738166809
1783693590696599300,4.024599365234375,0.06541968989372253,0.004064728688262403,0.03534311605989933
1783693590706561300,4.034561279296875,-0.0073655603319406505,0.03020049247443676,0.06190013746544718
1783693590716524300,4.044524169921875,-0.08029226485490798,0.04176200665887445,0.03598769757375121
1783693590726487300,4.0544873046875,-0.08480711193084717,0.031043044245801864,0.019723375993221996
1783693590736449300,4.06444921875,-0.10082885692715644,0.0172856639849022,0.01681961737573147
1783693590746412300,4.074412353515625,-0.12983809379041195,-0.0026579306302592157,-0.012559037321805954
1783693590756374300,4.084374267578125,-0.11335048484802246,0.0003945157429203391,-0.018141367498785255
1783693590766337300,4.094337158203125,-0.10350538266003131,-0.01048014868851751,0.02100917802006006
1783693590776299300,4.10429931640625,-0.06901449951529502,-0.008860255869105457,0.029747195748984812
1783693590786262300,4.11426220703125,-0.03259235604703426,-0.01774188331980258,0.05945581305325031
1783693590796225300,4.124225341796875,0.01441957049667835,-0.0020193769983947274,0.07345993461683392
1783693590806187300,4.134187255859375,0.004527706557512283,0.010430793121457099,0.09855988908186554
1783693590816150300,4.144150390625,-0.05535539199709892,0.020488697809912262,0.10585077674239873
1783693590826112300,4.1541123046875,-0.09488076217770576,0.02281180699523538,0.06513356642872095
1783693590836075300,4.1640751953125,-0.08054302474558353,0.027027159667946398,0.022726357201486826
1783693590846037500,4.17403759765625,-0.0781914931833744,0.010315094319917261,-0.007315875971317291
1783693590856000300,4.184000244140625,-0.06714402946829795,-0.025573088402114807,-0.05868935872539877
1783693590865963300,4.19396337890625,-0.05694529153704643,-0.018626739862933755,-0.10551701474338769
1783693590875925200,4.20392529296875,-0.036415129205584526,-0.008552030170150101,-0.0711423053242266
1783693590885888300,4.21388818359375,-0.007359715113043785,0.03589727934394032,-0.02643602537438273
1783693590895850200,4.223850341796875,0.017321721678972245,0.04477412102166563,-0.013844693218171595
1783693590905813200,4.233813232421875,0.04948913031220436,0.06484861200749874,-0.001052139401435852
1783693590915775200,4.243775146484375,0.05265373182296752,0.053506512727402145,0.026050094796717164
1783693590925738200,4.25373828125,0.07018997303545474,0.01847034372482449,0.04780526887848973
1783693590935701200,4.263701171875,0.07979600577056407,0.015256459712237118,0.05538461809158325
1783693590945663200,4.273663330078125,0.053689504611492155,-0.006880041837319732,0.028441519977897404
1783693590955626200,4.283626220703125,0.006420388436317443,-0.01071494382508099,0.002374766307324171
1783693590965588200,4.293588134765625,-0.0281073195874691,-0.016548728012479842,0.029317864421010014
1783693590975551500,4.303551513671875,-0.08539221834242343,-0.011137260890379547,0.013792086248099803
1783693590985513200,4.31351318359375,-0.08851414975523948,-0.0065849678808823225,0.009206365893036127
1783693590995476200,4.323476318359375,-0.10335106888115406,0.0038500630242750047,0.005226794737577438
1783693591005439200,4.333439208984375,-0.11630056682527065,-0.007338306998834014,0.010135463436692952
1783693591015401500,4.3434013671875,-0.1324456459403038,0.011606303174234925,-0.0008740063555538654
1783693591025364500,4.353364501953125,-0.13199614860713482,0.015134513833001255,0.01001709775403142
1783693591035326200,4.363326171875,-0.14369418518543242,0.0015199395762756467,0.011517127053439616
1783693591045289200,4.373289306640625,-0.14206746076643467,0.023252974891476333,0.00576134000569582
1783693591055251500,4.38325146484375,-0.12395663453638553,0.037398733415454626,0.030716186911612747
1783693591065214500,4.39321435546875,-0.03523439498841762,0.027568609600886702,0.0604116524733603
1783693591075176200,4.40317626953125,0.002530395260453224,0.0005790054643526673,0.08637903742268681
1783693591085139200,4.41313916015625,-0.002110708543658256,-0.00273910610768944,0.08555793029814958
1783693591095102200,4.423102294921875,-0.03464753501117229,0.0005591682527214288,0.06352364701405167
1783693591105064400,4.433064453125,-0.09156944567263126,-0.0006349734352901578,0.014100129283964632
1783693591115027200,4.443027099609375,-0.12391279539465903,0.00462112046200782,-0.022516806104034184
1783693591124989200,4.4529892578125,-0.1032663132071495,-0.013129822947084903,-0.03775003107115626
1783693591134952200,4.4629521484375,-0.08875438825190067,-0.02466565470099449,-0.04913461778610945
1783693591144914400,4.47291455078125,-0.0548117866396904,-0.036778336494788524,-0.013786387159675359
1783693591154877200,4.482877197265625,-0.04659983861148357,-0.046933417947404084,0.011274550469219683
1783693591164840200,4.492840087890625,-0.027409984973073002,-0.03488258587606251,0.023911475332826376
1783693591174802200,4.50280224609375,0.01785772825181484,0.0069007558317855,0.0789408502459526
1783693591184765400,4.512765380859375,0.04008826476037502,0.02580507052708417,0.1353783383913338
1783693591194727200,4.52272705078125,0.07443535552024841,0.0447206007361412,0.14876915036216376
1783693591204690200,4.532690185546875,0.0794248343706131,0.03908047595731914,0.14700842429995536
1783693591214652400,4.54265234375,0.06106617085933685,0.030338476173020896,0.13712035975307224
1783693591224615400,4.552615478515625,0.006521510723233223,0.02281684849653393,0.09677256727367639
1783693591234578400,4.562578369140625,-0.12594810061454773,0.051034642721153795,0.04969678171351552
1783693591244540200,4.5725400390625,-0.17231529951393604,0.02668280320968479,0.008376198679208755
1783693591254503200,4.582503173828125,-0.11292904456555843,0.016356676039099693,0.005766746833175421
1783693591264465400,4.59246533203125,-0.09533493568599223,-0.023014709156192838,-0.00718085141479969
1783693591274428400,4.602428466796875,-0.06995207262635231,-0.026741364996507762,-0.0373702379733324
1783693591284390100,4.61239013671875,-0.03858896611332893,-0.013241247432306409,-0.014701163917034863
1783693591294353200,4.622353271484375,-0.019554010775685308,-0.00007054448556154966,0.03152487294599414
1783693591304316200,4.632316162109375,-0.0008510638713836669,0.026605171396210787,0.039242461585998534
1783693591314278400,4.6422783203125,-0.06592997750341892,0.03155738697610795,0.0358222778789699
1783693591324241400,4.652241455078125,-0.10750292786359786,0.03985244671050459,0.013204495618492363
1783693591334203100,4.662203125,-0.06202420223653316,0.0174415851989761,-0.022050649897009132
1783693591344166400,4.67216650390625,-0.005929390048980712,-0.019337262752465903,-0.058296852276474236
1783693591354128400,4.68212841796875,0.012954174119234085,-0.045722873113863166,-0.058266749399155375
1783693591364091400,4.69209130859375,0.06620236470401286,-0.05827763611935079,-0.05098915961161256
1783693591374054100,4.70205419921875,0.1001163247436285,-0.04477810307703912,-0.022839754448086023
1783693591384016400,4.712016357421875,0.12848609465956687,-0.01749872221369296,0.020220219599455594
1783693591393979400,4.7219794921875,0.12053133626282214,0.018858502792194483,0.08185805286690592
1783693591403941400,4.73194140625,0.06642448302209376,0.06561700256410986,0.13047346908450125
1783693591413905000,4.74190478515625,-0.03970715648829937,0.07984430189169943,0.16580387179329992
1783693591423867000,4.751866943359375,-0.13827800535559653,0.0658880015252158,0.12340353069826959
1783693591433830000,4.761829833984375,-0.1824205139428377,0.02602905200868845,0.05648351924419403
1783693591443792000,4.7717919921875,-0.21341478714346884,-0.024849158041737974,0.008862959282845258
1783693591453755000,4.7817548828125,-0.21060849755108355,-0.044852446954883635,-0.019407003520429133
1783693591463718000,4.7917177734375,-0.18044015378057957,-0.042728951994888485,-0.01934285224303603
1783693591473680000,4.801679931640625,-0.1724772120773792,-0.015508059853129088,0.013836363781243562
1783693591483643000,4.811642822265625,-0.1575683967590332,0.007749810409173369,0.05970905716195702
1783693591493604900,4.82160498046875,-0.15457213755249977,0.030395174796320496,0.03143544109687209
1783693591503568000,4.83156787109375,-0.12494447652995586,0.03678462010510265,0.02074877351820469
1783693591513529900,4.84152978515625,-0.047864159458875656,0.04696154806334525,0.02095423296242952
1783693591523492900,4.851492919921875,0.033822774624824525,0.014739998090080916,0.017031360430270433
1783693591533456000,4.861455810546875,0.08360475040376186,0.018502602026611567,0.007309007839113473
1783693591543417900,4.87141796875,0.07617255457639693,0.00405599739253521,-0.01939165982082486
1783693591553380900,4.881380859375,0.10581015247106551,0.0024975889693945644,-0.021649375619739293
1783693591563342800,4.8913427734375,0.12232581846415996,0.023428806382417677,-0.006615472617000341
1783693591573305900,4.901305908203125,0.09652326868772507,0.04617839832901954,0.00998787165954709
1783693591583267800,4.911267822265625,0.05524783996939659,0.04567351754680276,0.0046028176203370096
1783693591593230800,4.92123095703125,0.021539631634950637,0.016027444084733725,-0.007802344314008951
1783693591603193900,4.93119384765625,-0.0012415244936943054,-0.004908960960060358,0.001197100830078125
1783693591613155800,4.94115576171875,-0.03258125013113022,-0.01726425587069243,-0.02320990293473005
1783693591623118800,4.951118896484375,-0.10901917764544486,-0.00717106067314744,-0.026203531792759895
1783693591633080800,4.961080810546875,-0.16122633474469183,-0.003039002369716763,-0.02586772396713495
1783693591643044000,4.971044189453125,-0.1826169132977724,0.021804456583596765,-0.007560206121206283
1783693591653005800,4.981005859375,-0.13790683395564554,0.0245637652290985,0.012092734984308481
1783693591662968800,4.99096875,-0.09534779516756534,0.03774246881920844,0.06480126573443412
1783693591672931800,5.000931884765625,-0.07904723322987556,0.01953958039153367,0.07468275441005826
1783693591682894000,5.01089404296875,-0.07250526424050331,0.027168431302160023,0.055389878788590426
1783693591692856800,5.02085693359375,-0.04383271198570728,0.04138641481213271,0.057008566031605
1783693591702818800,5.03081884765625,-0.04643091178536415,0.03233571440484374,0.06601780191734433
1783693591712781800,5.04078173828125,-0.042300095590949056,0.025469445364549755,0.022858605279028416
1783693591722744000,5.050744140625,-0.02976210105717182,0.030340339336544273,0.002205401089787483
1783693591732706800,5.060706787109375,-0.018674889853596686,0.045411176816187795,-0.040739568275958295
1783693591742668800,5.070668701171875,0.019710078120231626,0.02973199817985296,-0.02687251709550619
1783693591752631800,5.0806318359375,0.019036124381422995,0.01223302023783326,-0.015735475400835273
1783693591762594800,5.0905947265625,0.017143442502617835,0.016176022242568432,-0.05596563284993172
1783693591772556800,5.100556884765625,-0.02216390101313591,0.016115633824840186,-0.05032645791918039
1783693591782519800,5.110519775390625,-0.03455225794315338,0.02087861044295132,-0.01899213910922408
1783693591792481800,5.120481689453125,-0.05220131188035011,0.008035166689194738,-0.027602877196669578
1783693591802445000,5.130445068359375,-0.08435001581311226,0.011575761905498801,-0.0301278656296432
1783693591812406800,5.14040673828125,-0.06708148562610149,0.005934869941696524,-0.018152035023272037
1783693591822369800,5.150369873046875,-0.024936872857809066,-0.004814926001057028,0.0005906593695282936
1783693591832332800,5.160332763671875,0.0066512745827436446,-0.013061580016463995,-0.004006166901439428
1783693591842295000,5.170294921875,0.016758827099204062,0.00434413015153259,-0.002131605201214552
1783693591852258000,5.180258056640625,0.049826983964443204,0.014292546583525835,0.02777078110948205
1783693591862219800,5.1902197265625,0.0866699831932783,0.011294424213469028,0.0299327814489603
1783693591872182800,5.200182861328125,0.07199380758702754,-0.014165705333463847,0.01654898374080658
1783693591882145000,5.21014501953125,0.04016892878115177,0.004812076456844806,0.027227906404435634
1783693591892108000,5.22010791015625,-0.030045009651780127,0.008001593213155866,0.04934826053678989
1783693591902070800,5.23007080078125,-0.07077975562214851,0.010380268510617316,0.05202274044305086
1783693591912032800,5.24003271484375,-0.11032616859078406,0.026575031986273822,0.04994140412434935
1783693591921995800,5.249995849609375,-0.14659049114882944,0.0018450798774138093,0.05586144182309508
1783693591931958000,5.2599580078125,-0.1422007317572832,-0.025423596928827463,0.07752148496732116
1783693591941921000,5.269921142578125,-0.12151508660316467,-0.033310404655896124,0.0767474318549037
1783693591951882800,5.2798828125,-0.0803396111279726,-0.051274588956870135,0.10075491490811109
1783693591961845800,5.289845703125,-0.028289105895161627,-0.05012969323806464,0.11830839951634406
1783693591971808000,5.29980810546875,-0.014885434442758558,-0.03804174402672797,0.1336399702914059
1783693591981771000,5.30977099609375,-0.029514263775944707,0.007267177991382778,0.1599332261942327
1783693591991733800,5.319733642578125,-0.09481938737928866,0.06616736645586788,0.1840447541438043
1783693592001695700,5.32969580078125,-0.16441490165293215,0.09087247638441621,0.17896379761770367
1783693592011659000,5.339658935546875,-0.18065759592354297,0.09360880601312965,0.15574746494218705
1783693592021621000,5.34962109375,-0.15534546001255511,0.06731598850172013,0.0891428030475974
1783693592031583700,5.359583740234375,-0.14618483295738696,0.02081588393766433,-0.015060937140136956
1783693592041546000,5.3695458984375,-0.11092939518094062,-0.01855959291085601,-0.1121815871991217
1783693592051509000,5.379509033203125,-0.046847091370821,-0.042832010510563845,-0.13646949462890623
1783693592061472000,5.389471923828125,0.043375031346082685,-0.07644479564651846,-0.1351144267581403
1783693592071433700,5.399433837890625,0.09641454761624335,-0.08113529155030846,-0.12694456430599094
1783693592081396700,5.409396728515625,0.12934241922795772,-0.04062774193193763,-0.09662176062613725
1783693592091359000,5.41935888671875,0.15180559544861316,-0.004395750740915537,-0.003461977022141218
1783693592101322000,5.429322021484375,0.13020049736201764,0.008545636961981653,0.07004296578019857
1783693592111283700,5.43928369140625,0.06428104125261307,0.023871910507418215,0.06528145046681165
1783693592121246700,5.449246826171875,-0.006442600268125534,0.019795527913980183,0.05758724270239472
1783693592131209700,5.459209716796875,-0.05243512063622474,0.019360862823762,0.04332432407215237
1783693592141172000,5.469171875,-0.11737667162418365,0.001244337505288422,0.02844765745773911
1783693592151135000,5.479135009765625,-0.18321955536603926,0.011182524804212153,0.009304711700975894
1783693592161096700,5.4890966796875,-0.19372224467992782,-0.011957673895172775,0.02713160642310977
1783693592171060000,5.49906005859375,-0.20248715041577814,-0.027553229368664323,0.03521700546219945
1783693592181022000,5.50902197265625,-0.19396072961091995,-0.02590443924833089,0.01672565548196435
1783693592190985000,5.51898486328125,-0.16004501600563525,-0.041314774348028,0.022554361635446548
1783693592200946700,5.52894677734375,-0.05062836347520351,-0.023863215744309125,0.06554273175150156
1783693592210910000,5.538909912109375,0.0306125804066658,0.0005061959564685822,0.10443141146376729
1783693592220873000,5.548873046875,0.060845806106925006,0.014029548265784978,0.09116086487174034
1783693592230835000,5.5588349609375,0.0996411084473133,0.06822864636722951,0.10816972120925783
1783693592240798000,5.5687978515625,0.07678630256056786,0.10061452005673199,0.11573694159314035
1783693592250760000,5.578760009765625,0.01922200234234333,0.08805690750703216,0.08353826103881001
1783693592260723000,5.588722900390625,0.0002852466821670532,0.07576112423129379,0.0297585939258337
1783693592270685000,5.598684814453125,-0.04784720832407474,0.02206515334639698,-0.018774258574843404
1783693592280648000,5.60864794921875,-0.08430383858382702,-0.001130611465126276,-0.06345467343106866
1783693592290610700,5.618610595703125,-0.09798808054327965,-0.03712035486549139,-0.0789145467609167
1783693592300573000,5.628572998046875,-0.08159224153757094,-0.019785627574473618,-0.07811550533771515
1783693592310536000,5.638535888671875,-0.057924365702271455,0.01607621512990445,-0.034620208612829446
1783693592320498000,5.648497802734375,-0.06423486402332783,0.01795088642798364,-0.00888984728977084
1783693592330460700,5.658460693359375,-0.05119827231764793,0.019123218142986297,-0.03294526113793254
1783693592340423000,5.6684228515625,-0.04230769437551498,0.02841638553664088,-0.008514145845174789
1783693592350386000,5.678385986328125,-0.04660451478660106,0.014825046025030314,0.032225860822200775
1783693592360349000,5.688348876953125,-0.045664603587985034,0.029178565548174083,0.029920652619749306
1783693592370310700,5.698310546875,0.00021978023052215574,0.040647542610950764,0.01849514937251806
1783693592380274000,5.70827392578125,0.058145314976572986,0.027171463509462774,0.024105536600202322
1783693592390236000,5.71823583984375,0.07620704136788845,0.022790837272442875,0.014271832589060068
1783693592400199000,5.728198974609375,0.12580313918590544,0.008748940981738269,0.005065028304606676
1783693592410161000,5.738160888671875,0.16822481532990932,0.0064629854690283536,0.004499649506807327
1783693592420124000,5.7481240234375,0.15316460884213445,0.00234539408236742,-0.020048808555305005
1783693592430085600,5.758085693359375,0.0703138916760683,0.008271423130482436,-0.014693419001996517
1783693592440048600,5.768048583984375,-0.015838789644837377,0.012743344380147754,-0.004856061729043722
1783693592450011600,5.77801171875,-0.07459200738668441,0.01759151506368071,-0.022338088536262513
1783693592459974000,5.787973876953125,-0.12449731728434561,0.0410865916153416,-0.013585019368678331
1783693592469937000,5.79793701171875,-0.19431494987607,0.02440371582917869,-0.01323518301770091
1783693592479898600,5.807898681640625,-0.2188023254007101,0.001860240913927555,-0.0497824141703546
1783693592489861600,5.817861572265625,-0.23434593149125574,-0.015006174745596944,-0.06024564825668931
1783693592499823900,5.827823974609375,-0.25342121883928775,-0.026302462122589347,-0.07068959312066435
1783693592509787000,5.837786865234375,-0.21960078230202196,-0.006996873150020838,-0.03400733741149306
1783693592519749600,5.84774951171875,-0.15078092857599257,0.01395166072398424,0.0370056424446404
1783693592529711600,5.857711669921875,-0.06553074905276299,0.05945376722663641,0.11676467720568179
1783693592539675000,5.8676748046875,-0.011733692413568496,0.05510945441201329,0.13599924676865338
1783693592549636900,5.877636962890625,0.035732407638430594,0.07738832357432693,0.1310562374085188
1783693592559599600,5.887599609375,0.06872691474556923,0.030120559106022116,0.11699600174352526
1783693592569561600,5.8975615234375,0.10947978089451789,0.0006641264645382761,0.10233663114160299
1783693592579524900,5.90752490234375,0.11488017863333225,-0.006006583471037447,0.09800415489524603
1783693592589487900,5.91748779296875,0.1252957741856575,0.0031882746472954747,0.10436959827393293
1783693592599449600,5.92744970703125,0.12920213397443295,0.000396196243353188,0.09381357133761048
1783693592609412600,5.93741259765625,0.07201835750639438,-0.046420426923967896,0.05298588638678193
1783693592619374800,5.947374755859375,0.04456920956671238,-0.04444138193596154,0.015119681590050458
1783693592629337900,5.957337890625,0.029434184277057646,-0.03941073082499206,0.0040488369993865484
1783693592639299800,5.9672998046875,-0.026920155629515646,-0.04353979345373809,0.007604191393405199
1783693592649262600,5.9772626953125,-0.07861293346583843,-0.001831928134895861,0.02146554348543286
1783693592659224800,5.987224853515625,-0.1257668988287449,-0.0019996859172359107,-0.004534720820188522
1783693592669187800,5.997187744140625,-0.1840408086210489,-0.01149838582035154,-0.03694280634149909
1783693592679150800,6.00715087890625,-0.2120055048674345,-0.0024369448233395813,-0.017604922534525395
1783693592689112600,6.017112548828125,-0.24763854378461836,0.009993241954408585,-0.004864245035499334
1783693592699075600,6.02707568359375,-0.24830431421697138,0.026145883321389556,0.02173778455555439
1783693592709037800,6.037037841796875,-0.19004267938435077,0.026543394738994537,0.0666170829847455
1783693592719000800,6.047000732421875,-0.1431809749662876,-0.0038880204144865274,0.10687646652832626
1783693592728962600,6.056962646484375,-0.06247428409159183,-0.017165398606099187,0.10385273479297756
1783693592738925600,6.066925537109375,0.02261047573685646,-0.016883038000762463,0.12439210334420203
1783693592748888800,6.076888916015625,0.07862170129418372,-0.016281491911038757,0.1346172908909619
1783693592758850800,6.086850830078125,0.08292728953361511,-0.02025989402271807,0.10801891456171869
1783693592768813800,6.096813720703125,0.037547932627797126,-0.006530753475613891,0.08667042158469557
1783693592778775800,6.10677587890625,-0.032494740891456604,0.010449790082871913,0.056944560884684324
1783693592788738800,6.11673876953125,-0.07999298964738845,-0.004041749671474099,0.0035873569674789905
1783693592798700800,6.12670068359375,-0.042702246651053426,-0.0098711499447003,-0.045347792723774906
1783693592808663800,6.136663818359375,-0.02239829429090023,-0.04021203727051616,-0.05908654134944081
1783693592818625800,6.146625732421875,0.0022930793732404706,-0.025651049009151754,-0.05156038362830877
1783693592828588800,6.1565888671875,0.06919979295432567,0.029857451190426945,-0.024659517221152782
1783693592838551800,6.1665517578125,0.05483692108094692,0.019798304392956195,-0.0022743746727705
1783693592848513800,6.176513671875,0.017610475492477417,0.07151446310486644,0.013527882353961468
1783693592858476500,6.1864765625,-0.0029857378125190733,0.07127893731594086,-0.020817893231660126
1783693592868438800,6.196438720703125,-0.012154548174142837,0.066274845418334,-0.03148731741458177
1783693592878401800,6.20640185546875,0.06725684219300747,0.08876702853776514,-0.019474369668215512
1783693592888363800,6.21636376953125,0.11295125639736651,0.10970365277826785,0.04839198272526264
1783693592898326500,6.226326416015625,0.0713940881282091,0.10190963790118694,0.05516629916578531
1783693592908289800,6.236289794921875,-0.03873685015141964,0.08762816070094705,-0.03979161990135908
1783693592918251800,6.246251708984375,-0.07280921562314033,0.007046009521372616,-0.10992504044398665
1783693592928214800,6.25621484375,-0.09164075734317302,-0.05988934563230723,-0.14705277489833532
1783693592938176800,6.2661767578125,-0.09054594784379005,-0.08505356097258628,-0.1655471936184913
1783693592948139800,6.276139892578125,-0.0724620096206665,-0.06512615030724554,-0.1314439946170896
1783693592958101800,6.286101806640625,-0.036437341037392615,-0.08031476894766092,-0.0814447228256613
1783693592968064800,6.296064697265625,-0.07437514976561069,-0.06035846098139882,0.02894033634550869
1783693592978026800,6.30602685546875,-0.1395604463815689,0.0001267316522076726,0.09912015331313014
1783693592987989800,6.31598974609375,-0.16787410219609736,0.02422711715325713,0.1356016257531941
1783693592997952800,6.325952880859375,-0.186869894567132,-0.014627806419879198,0.12186791862882673
1783693593007914800,6.335914794921875,-0.2185796225607395,-0.07352580292727798,0.1157446865081787
1783693593017877800,6.345877685546875,-0.21236966200470922,-0.07142177985273301,0.12089995037950575
1783693593027839700,6.35583984375,-0.20132044472396374,-0.048870267761498686,0.13668167607486248
1783693593037802800,6.365802734375,-0.2315940024346113,-0.025152671032957732,0.1395611039686948
1783693593047764700,6.3757646484375,-0.2365665301501751,0.014034918560646474,0.15679785077795386
1783693593057727700,6.385727783203125,-0.18366145391464234,0.014093297684378921,0.12926102455481886
1783693593067690800,6.395690673828125,-0.13200783904492855,0.006658179247565567,0.09560125847198069
1783693593077652700,6.40565283203125,-0.21767712076306342,0.0027038155985996126,-0.037497444549575445
1783693593087615700,6.41561572265625,-0.12078443424105643,-0.027703122700750826,-0.050605859382450574
1783693593097577700,6.42557763671875,0.06716448773443698,-0.0809019577184692,-0.04304251145608723
1783693593107540700,6.435540771484375,0.1405459502875805,-0.02255322912428528,-0.0062017041843384505
1783693593117502700,6.445502685546875,0.09711538936197757,0.021338702235370873,-0.007178586392477154
1783693593127465700,6.4554658203125,0.057874096819758414,0.06263155701253563,-0.023972777066007256
1783693593137428700,6.4654287109375,0.05074000715613365,0.08238010397963226,-0.06341010363698005
1783693593147390700,6.475390625,0.03557575577199459,0.09214348270092158,-0.12722294285595417
1783693593157353700,6.485353759765625,0.03723755150437355,0.08084357859473675,-0.16626133323721587
1783693593167315700,6.495315673828125,0.06634440352320671,0.046147637864574785,-0.17275800178013742
1783693593177278700,6.50527880859375,0.08101941008567809,0.01663034188132733,-0.18520086537636815
1783693593187241000,6.515240966796875,0.09939151760041713,0.007925166976079345,-0.17879377481304107
1783693593197203700,6.52520361328125,0.08399521102607249,-0.0019907719584181904,-0.13468589914776383
1783693593207165700,6.535165771484375,0.012604630029201506,0.019292327632196245,-0.09535765897445381
1783693593217128700,6.545128662109375,-0.077054598107934,0.045332741285115476,-0.07648834252730012
1783693593227091700,6.555091796875,-0.040811318337917325,0.06683766693286597,0.0035244477991014716
1783693593237054000,6.565053955078125,0.010633037695288658,0.04776161239985376,0.1075814729925245
1783693593247016700,6.5750166015625,0.043698271951079365,0.01596910149361938,0.1583197265829891
1783693593256978700,6.584978759765625,0.04208616057932377,0.028895912681892514,0.18183759948834777
1783693593266941700,6.594941650390625,-0.011623217776417732,0.048620896110311146,0.23045951851196586
1783693593276904000,6.604904052734375,-0.05533259564340114,0.10443747587837278,0.2755363122746348
1783693593286866700,6.61486669921875,-0.1384662214040756,0.16197693391628562,0.2818985407829285
1783693593296829700,6.62482958984375,-0.23284429475665092,0.16822817633077503,0.21878902752771973
1783693593306791700,6.634791748046875,-0.2416547931998968,0.1353107895804569,0.09488938387557863
1783693593316755000,6.6447548828125,-0.21367840651571748,0.07139843550976366,-0.006845116654410958
1783693593326716700,6.654716552734375,-0.1680640718102455,0.009238368466496467,-0.060822425231337546
1783693593336679700,6.6646796875,-0.08506313251852989,-0.002983582388050854,-0.10627682013474404
1783693593346641700,6.6746416015625,-0.013797639206051825,0.007476363762654364,-0.04878916534930467
1783693593356605000,6.68460498046875,-0.035271219867467875,0.03405559700001031,0.013527517027780413
1783693593366566700,6.694566650390625,-0.10092822564840316,0.09274751300867647,-0.02052497469969094
1783693593376529700,6.70452978515625,-0.09565233107209205,0.09095083885025232,-0.02812872770167887
1783693593386492700,6.71449267578125,-0.024415479332208632,0.08549140440057963,-0.0017105302449315785
1783693593396455000,6.724454833984375,0.011361351969838143,0.06670129066947847,-0.020571809516102074
1783693593406418000,6.73441796875,0.03477028460800648,0.07084704870469868,-0.03847030816972256
1783693593416379400,6.74437939453125,0.060738254079222675,0.09103077221866697,-0.06507737926207482
1783693593426342400,6.75434228515625,0.04230652533173561,0.05051953280586749,-0.07653744236603378
1783693593436304600,6.7643046875,0.023346388795971867,0.0002992021422833204,-0.10722425705268979
1783693593446267600,6.774267578125,0.021700959676504133,-0.015254560016095637,-0.11945391628965735
1783693593456230400,6.78423046875,0.06262158360779285,-0.0021696721892803905,-0.03808737326674163
1783693593466192400,6.7941923828125,0.08171908278763294,0.009468962351977825,0.0774941585689783
1783693593476155400,6.8041552734375,0.04617722928524017,0.04704984740130603,0.1427556622263044
1783693593486117600,6.81411767578125,0.009393266767263412,0.09113014093991369,0.14731135276928542
1783693593496080400,6.824080322265625,-0.03836626327335834,0.10182276333533227,0.17913184766098855
1783693593506042400,6.83404248046875,-0.13853577950894833,0.09828607710916548,0.13687237634137273
1783693593516005600,6.844005615234375,-0.2098182239562273,0.09628398003913462,0.09120053929500281
1783693593525967600,6.853967529296875,-0.25311259128153324,0.06769570853430777,0.04231777737811208
1783693593535930400,6.863930419921875,-0.24842764833569525,0.015511640049703419,-0.03671929978393018
1783693593545893400,6.873893310546875,-0.19959493610560894,-0.025584961502999066,-0.07364449740350246
1783693593555855600,6.883855712890625,-0.17648761676251887,-0.010505429260246455,-0.06330481663160026
1783693593565818600,6.893818603515625,-0.13211188394129275,0.02039141144789755,-0.07238258770890534
1783693593575780400,6.9037802734375,-0.14439151979982853,0.06497348049618304,-0.059818216624855994
1783693593585743400,6.913743408203125,-0.1550233884513378,0.0663653367133811,-0.053418797911331056
1783693593595705600,6.92370556640625,-0.09375146588683128,0.06675758743397892,-0.046559141274914145
1783693593605668600,6.933668701171875,-0.01571194839477539,0.03521207355875522,-0.06078194709047675
1783693593615631600,6.943631591796875,0.022085575079917905,-0.004786467091552913,-0.08333112109415233
1783693593625593300,6.95359326171875,0.06714695207774639,-0.023774441482312975,-0.0830770732678473
1783693593635556400,6.963556396484375,0.15107260499894618,-0.028850685300678015,-0.05489478874802589
1783693593645518600,6.9735185546875,0.1748486173838377,-0.019687318299151955,-0.00026486148126423357
1783693593655481600,6.983481689453125,0.15596739130318163,-0.002949753183685243,0.05303484009504318
1783693593665443300,6.993443359375,0.17967852175831794,0.018574827012605963,0.10454941182024777
1783693593675406300,7.00340625,0.12991641972362994,0.027480018001981077,0.16100355883948503
1783693593685368600,7.01336865234375,-0.019683190113306045,0.05466740973293781,0.1612828141722828
1783693593695331600,7.02333154296875,-0.10570844566226005,0.04256305737607181,0.10328019560202956
1783693593705294600,7.033294677734375,-0.16546470296680926,0.0032130437623709438,0.05134564489908516
1783693593715256600,7.043256591796875,-0.2131201881110668,-0.03387019396312534,0.012969883145019411
1783693593725219600,7.053219482421875,-0.23052257381081578,-0.06362940894346684,-0.01595335593521595
1783693593735181600,7.063181640625,-0.18252923501431942,-0.05638352946843952,0.011168386681005359
1783693593745144600,7.07314453125,-0.11364800648987293,-0.032161526881717147,0.05083638020269572
1783693593755106600,7.0831064453125,-0.08130231868028641,0.005260806605033576,0.1008629783924669
1783693593765069600,7.093069580078125,-0.05134557183384895,0.01803074673116207,0.13968494954407215
1783693593775032600,7.103032470703125,0.03677402564585209,0.03381627181880176,0.1606158016309142
1783693593784994600,7.11299462890625,0.06460428185760975,0.03368954016659408,0.17455357996001838
1783693593794957300,7.122957275390625,0.1110217496395111,0.05286057950668037,0.18589498512037098
1783693593804919600,7.13291943359375,0.11172025329768658,0.03632471097577363,0.1579297774173319
1783693593814882600,7.142882568359375,0.11041501591801643,0.02356858017928898,0.1090606056343764
1783693593824844500,7.152844482421875,0.09816343711018562,0.02357530218102038,0.01841002837233245
1783693593834807300,7.162807373046875,0.07290741530060768,0.007722593608684838,-0.03257883897833526
1783693593844769500,7.17276953125,0.07540040116012096,-0.005730944867432117,-0.0280135038241744
1783693593854732500,7.182732666015625,0.03144786218702793,-0.0026193156529217957,-0.02661437761597335
1783693593864695600,7.192695556640625,-0.049098085168004034,0.0053598830653354525,-0.03749401048347354
1783693593874657300,7.2026572265625,-0.14294424360096453,0.008745105056837201,-0.04254873658977449
1783693593884620500,7.21262060546875,-0.1979845782995224,-0.004668028343655169,-0.04613090592548251
1783693593894582500,7.22258251953125,-0.24079496150016783,-0.02226031059231609,-0.04580737305954098
1783693593904545500,7.232545654296875,-0.25442192031443117,-0.015360139282420276,-0.060163011474534865
1783693593914507300,7.24250732421875,-0.1959019268065691,-0.0168698131930083,-0.05562967889383435
1783693593924470500,7.252470458984375,-0.1295166067510843,-0.0022297683460637927,0.010172288315743207
1783693593934433500,7.26243359375,-0.10976327401101589,0.003491714573279023,0.04913461778610945
1783693593944395500,7.2723955078125,-0.08271744617521762,-0.028911329446732997,0.06650989628322422
1783693593954358500,7.282358642578125,-0.022810382223129273,-0.021546499767154455,0.04051218926087022
1783693593964320500,7.292320556640625,-0.008709376156330108,-0.0246420911623165,0.042949280214682216
1783693593974283500,7.302283447265625,0.04738368246555328,-0.017635135009698568,0.025922011437639593
1783693593984245500,7.31224560546875,0.11197802745103835,-0.020255327445454895,0.0029847148992121217
1783693593994208500,7.32220849609375,0.14820669417381285,-0.019357173029333354,0.03012158201932907
1783693594004170500,7.33217041015625,0.13406769418418407,0.022640469016321003,0.05350589167289436
1783693594014133500,7.342133544921875,0.14376198972463608,0.032160430903173984,0.09167772835269569
1783693594024096500,7.352096435546875,0.10616963343322276,-0.0038295316928997633,0.045556393973156806
1783693594034058500,7.36205859375,0.034489714100956914,-0.005511091571673751,0.021519392564520238
1783693594044021500,7.372021484375,-0.018017887249588964,-0.020516389534436165,0.021717910811305044
1783693594053983500,7.3819833984375,-0.0648328299164772,-0.04167586274538189,0.008637845290079712
1783693594063946500,7.391946533203125,-0.12222528069913387,-0.039376426696591076,-0.004321735656633973
1783693594073908500,7.401908447265625,-0.10717501108348369,-0.031353388836607335,0.018127119777724146
1783693594083871500,7.41187158203125,-0.07542085942625999,-0.02838606346361339,0.07252104633152484
1783693594093834500,7.42183447265625,-0.08098609233796596,-0.010922997085191309,0.12839461698383092
1783693594103796500,7.43179638671875,-0.13035071948766708,0.026217085394077,0.1448010504487902
1783693594113759500,7.441759521484375,-0.16619418628513813,0.047969738725200294,0.16001052921414374
1783693594123721500,7.451721435546875,-0.15480068561136723,0.05339486904647201,0.16512443816177547
1783693594133684500,7.4616845703125,-0.1123334167599678,0.025113946457765993,0.11653729819059372
1783693594143646500,7.471646484375,-0.05746317793130874,-0.038546113352291286,0.04239610331133008
1783693594153609500,7.481609375,0.003087444621324539,-0.05791526908036321,0.014815803272649645
1783693594163571700,7.49157177734375,-0.021197101807594296,-0.04430014683436602,-0.027934739499539136
1783693594173534500,7.501534423828125,0.00505202269256115,-0.05714165435936302,-0.06222403565756976
1783693594183497500,7.51149755859375,0.01733575020432472,-0.0534305979469791,-0.041085824430361385
1783693594193459500,7.52145947265625,-0.024225509718060492,-0.05867642617858946,-0.042535950173437594
1783693594203422500,7.53142236328125,-0.047674189844727516,-0.055404053444415326,-0.021567177229002116
1783693594213384400,7.541384521484375,-0.04363748167455196,-0.07650865466296672,-0.009928031231090427
1783693594223347500,7.551347412109375,-0.0707978758007288,-0.07321863667424768,0.022514248820766806
1783693594233309400,7.561309326171875,-0.07545125456452369,-0.06000749211926013,0.03630428924225271
1783693594243272400,7.5712724609375,-0.056955812931060786,-0.021162249689921735,0.07565897903107106
1783693594253235500,7.5812353515625,-0.055256607797741886,0.012049224636144936,0.11475260673090815
1783693594263197400,7.591197509765625,-0.1044949782192707,0.009845650177262723,0.09926095002330838
1783693594273160400,7.601160400390625,-0.11139876625835896,-0.008395012977533043,0.06840922709852457
1783693594283122400,7.611122314453125,-0.11213058766424655,-0.015256423179619014,0.0421363563966006
1783693594293085700,7.621085693359375,-0.055226212659478184,-0.041158049416355785,0.033701705528423186
1783693594303047400,7.63104736328125,0.020499182671308517,-0.05708718422576785,0.04454275995120406
1783693594313010400,7.641010498046875,0.05669628521203995,-0.059198331160843366,0.06104929278977215
1783693594322972400,7.650972412109375,0.027976386684179306,-0.006398980322107672,0.05323197010233998
1783693594332935700,7.660935791015625,0.0009445873737335205,0.058029871903359884,0.04043422865383327
1783693594342898700,7.670898681640625,-0.060627194920182224,0.06422755749970674,0.014426657824590801
1783693594352860400,7.6808603515625,-0.053954293027520174,0.05669650440774858,-0.041825098490342494
1783693594362823400,7.690823486328125,-0.024496727874875068,0.060840947268716986,-0.08576981948316097
1783693594372785700,7.70078564453125,0.018028408643603323,0.03756294753383845,-0.09598148996122181
1783693594382748700,7.710748779296875,0.046076691520214076,-0.004280490330792963,-0.12424392704516649
1783693594392710400,7.72071044921875,0.0197200149923563,-0.014377338790148495,-0.12573811112567782
1783693594402673400,7.73067333984375,-0.028556816920638082,-0.04455901696626097,-0.09094795277342199
1783693594412635600,7.7406357421875,0.012219430103898048,-0.03870850083976984,-0.07433708277754485
1783693594422598700,7.7505986328125,0.0161690445125103,-0.028751645372994242,-0.012742577195167542
1783693594432561400,7.7605615234375,-0.018908114087581633,0.007840119041129946,0.02721694661900401
1783693594442523400,7.7705234375,0.003511222991347313,0.012109320792928337,0.08237455102168023
1783693594452486400,7.780486328125,0.020848142239451407,0.00027662498429417606,0.14305625260807572
1783693594462448600,7.79044873046875,-0.002532148826122284,0.007864486297406256,0.15920535031110047
1783693594472411400,7.800411376953125,-0.01155658228099346,0.0033613296592608093,0.14257511802762746
1783693594482373400,7.810373291015625,-0.024523031359910963,-0.022690445637889207,0.11827245142012834
1783693594492336400,7.82033642578125,-0.04233341333866119,-0.025319844293408094,0.10277173462323844
1783693594502299600,7.830299560546875,-0.1182370878458023,-0.023580234084464607,0.07324190795198082
1783693594512261400,7.840261474609375,-0.18573533757925031,0.010351225079223514,0.03535970186851919
1783693594522224400,7.850224365234375,-0.1859147857993841,-0.004139291761815548,0.02425174013786018
1783693594532186600,7.8601865234375,-0.11325637682378291,-0.007857143241167068,-0.007513005978614091
1783693594542149600,7.870149658203125,-0.05545768332779407,0.0023689576210454105,-0.00158193542920053
1783693594552111400,7.880111328125,-0.024040216279029844,0.007491488266550004,0.007925240041315555
1783693594562074400,7.890074462890625,-0.023244681987166404,0.03567271334044635,-0.009728928462415933
1783693594572036600,7.90003662109375,0.013121347379684447,0.03917319574207067,-0.012545081861689686
1783693594581999600,7.90999951171875,0.06850654999315739,0.007789521365053951,-0.015186244020238517
1783693594591962600,7.919962646484375,0.041893268355727195,0.009728745799325407,-0.03474178916588425
1783693594601924400,7.92992431640625,0.036539632368087764,0.02682221168037504,-0.03592376549206674
1783693594611887400,7.939887451171875,0.07231997080147266,-0.011997604046761989,0.004070537374541163
1783693594621849600,7.949849609375,0.09063011899590492,-0.042388723722472786,-0.0049011429797858
1783693594631812600,7.9598125,0.11978607085347175,-0.029687611048854885,-0.0044395898826420305
1783693594641774300,7.9697744140625,0.096648356372118,-0.015000512189790606,0.05967888121940195
1783693594651737300,7.9797373046875,-0.0031792145580053326,-0.024975816628709433,0.0708680914927274
1783693594661699600,7.989699462890625,-0.014809446597099303,-0.007656798363476991,0.07553688702136278
1783693594671662600,7.99966259765625,-0.043236499658226964,0.014111527460813521,0.07265453651808201
1783693594681625600,8.00962548828125,-0.10870879652202128,0.03100574444271624,0.07461991830691694
1783693594691587300,8.01958740234375,-0.14466975221931933,0.061938898573257024,0.040678120412304994
1783693594701550600,8.029550537109374,-0.14243512503504752,0.0564535990299657,0.002815203551203012
1783693594711512600,8.0395126953125,-0.21029870094954967,0.025026779630966483,-0.06377601433992386
1783693594721475600,8.0494755859375,-0.2258171725988388,0.016196224780380724,-0.11970482231080531
1783693594731437600,8.0594375,-0.2201438031375408,-0.002393251812085509,-0.09759659700766206
1783693594741400600,8.069400634765625,-0.23336101210713386,-0.007836758040264248,-0.10739325694404542
1783693594751363600,8.079363525390624,-0.14721242243945598,-0.013025339659303426,-0.09864289119020103
1783693594761325600,8.08932568359375,-0.05731178676187992,-0.04265570409558713,-0.04365815913639962
1783693594771288300,8.099288330078124,0.04698386949300766,-0.04912997814361006,-0.014727832728251814
1783693594781250600,8.10925048828125,0.128000941491127,-0.04011613914798945,0.04233852790519595
1783693594791213600,8.119213623046875,0.20291092878580091,-0.02100289440974593,0.0934255218680948
1783693594801175600,8.129175537109376,0.21172318079471586,-0.0011020429577678441,0.13103446396812796
1783693594811138300,8.13913818359375,0.1879629505008459,0.0047702831417322155,0.13977460058890281
1783693594821100500,8.1491005859375,0.09449263964295387,0.006141900288499891,0.1288731212157756
1783693594831063600,8.1590634765625,0.0022796353697776793,0.009393960887007415,0.0696050127543509
1783693594841026600,8.169026611328125,-0.052311786517500874,-0.01354775609821081,0.02680675838291645
1783693594850988300,8.17898828125,-0.10987842482328414,-0.024878274538367984,-0.028156638621911406
1783693594860951300,8.188951416015625,-0.15999708521068096,-0.041813152324222023,-0.0449339512258768
1783693594870913500,8.19891357421875,-0.2003285110771656,-0.016677542023919523,-0.04563296634070575
1783693594880876500,8.20887646484375,-0.20632570566534994,-0.007617744994722306,-0.05000526314079761
1783693594890838300,8.21883837890625,-0.2210895595550537,0.013511004284396767,-0.04469407805539667
1783693594900801500,8.228801513671876,-0.22124036620259283,0.03820895381979644,-0.004052051869779825
1783693594910763500,8.238763427734375,-0.1997574331909418,0.053289289780147374,0.03035071460008621
1783693594920726500,8.2487265625,-0.10890051970183849,0.04629950395803898,0.058161827719956635
1783693594930689500,8.258689453125,-0.04307634066045284,0.02924600476119667,0.09852774037793278
1783693594940651500,8.268651611328124,0.023819851526618002,0.02207790323011577,0.09796491886340081
1783693594950614500,8.278614501953125,0.1261193655282259,0.009088913525827228,0.09956168653555214
1783693594960576500,8.288576416015625,0.18197861539423466,-0.004509951705113053,0.10491283830516039
1783693594970539500,8.29853955078125,0.16852876671254635,-0.00996573289297521,0.10270940997675061
1783693594980501500,8.30850146484375,0.15818506735265253,0.021757694832421837,0.1063265044953674
1783693594990464500,8.318464599609374,0.07505319515764713,0.021776289935037493,0.09523476324714719
1783693595000427500,8.328427490234375,0.0280026901692152,0.023409553692676124,0.04912365800067782
1783693595010389500,8.338389404296874,-0.028493688556551933,0.027640980717353523,0.0020857932981103657
1783693595020352500,8.3483525390625,-0.09114391373693942,0.009113719173520803,-0.030436931578814982
1783693595030314500,8.358314453125,-0.09931728332042694,-0.007208981530740856,-0.07728424214534461
1783693595040277500,8.368277587890624,-0.13001345035731793,-0.002799750253744423,-0.0842518161356449
1783693595050239500,8.378239501953125,-0.1471674142539501,0.005354220509529113,-0.07839921764992178
1783693595060202500,8.388202392578124,-0.20791268259584902,0.008743534154258667,-0.0718557873558253
1783693595070164500,8.39816455078125,-0.25075930615365505,0.046732707743532956,-0.07094064527228475
1783693595080127500,8.40812744140625,-0.21538871756494044,0.023290347759798168,-0.04992971368655562
1783693595090090500,8.418090576171876,-0.15761749659776686,0.01920249392427504,-0.03948657254017889
1783693595100052500,8.428052490234375,-0.08284545646905898,0.0020522198220714926,-0.007833470104634761
1783693595110015500,8.438015380859374,-0.01752455077469349,-0.006077968206815421,0.006858414527401328
1783693595119977500,8.4479775390625,0.06951777286231517,-0.03281367064751684,0.03279569659940898
1783693595129940500,8.4579404296875,0.11301146215200424,-0.021270605435222387,0.07439568109698594
1783693595139902500,8.46790234375,0.06343757616579532,0.0012610694443807005,0.06337240197509526
1783693595149865500,8.477865478515625,-0.006719663643836975,0.015516937279328702,0.05998312486298382
1783693595159827500,8.487827392578126,-0.032332828328013416,0.02032806388810277,0.05449782531969249
1783693595169790500,8.49779052734375,-0.03660743690729141,0.012618074032664298,0.0632200609575957
1783693595179753500,8.50775341796875,0.008665537014603614,0.008163323113508522,0.08393968144655227
1783693595189715500,8.517715576171875,0.014838672691583633,0.005491948479786515,0.118035281663388
1783693595199678500,8.527678466796875,0.027832594299316404,0.016646781559474765,0.11557561355158685
1783693595209640400,8.537640380859376,0.008010287976264954,0.03376815836075693,0.11798632795512676
1783693595219603500,8.547603515625,-0.04911737439036369,0.04968092655725777,0.11022358499914407
1783693595229565700,8.557565673828124,-0.09678221188485622,0.0690129651453346,0.06888371274247765
1783693595239528400,8.567528564453125,-0.09503799856603146,0.05288947680760175,0.02813844537809491
1783693595249490400,8.577490478515625,-0.11450082392692565,0.055151576520688826,-0.02393587912172079
1783693595259453400,8.587453369140626,-0.09401333169341086,0.0384152535142377,-0.02218976610675454
1783693595269416400,8.59741650390625,-0.030182372295856474,0.016854031101986765,0.008794204895570874
1783693595279378400,8.60737841796875,0.002461421677470207,-0.01675692740306258,-0.018855653247982263
1783693595289341400,8.617341552734375,-0.015382862570881842,0.0005065247500315309,-0.056640536436811086
1783693595299303400,8.627303466796874,-0.049046062719821926,0.038720812332071364,-0.06992058150954544
1783693595309266700,8.6372666015625,-0.09966039766967295,0.0473007899550721,-0.1097167314555496
1783693595319228400,8.647228515625,-0.10803425826132297,0.022734540507942436,-0.11735058733485638
1783693595329191400,8.65719140625,-0.04327916975617409,-0.0019399916192516682,-0.09974778369218111
1783693595339154400,8.667154541015625,0.021687515673041342,-0.009595657471567392,-0.039237127823755144
1783693595349116700,8.67711669921875,0.06608604484796524,-0.016074096238054333,-0.0000339022696018219
1783693595359079700,8.68707958984375,0.10771452478766441,-0.016698109887912867,0.03520728778578341
1783693595369041400,8.69704150390625,0.10584463926255702,-0.0265910698056221,0.07395246737413108
1783693595379004400,8.70700439453125,0.08277999001741408,0.007297609662264585,0.09500709197111427
1783693595388966700,8.716966552734375,0.03804945240914821,0.0035872108370065686,0.11207381597571074
1783693595398929700,8.7269296875,0.004518354207277297,0.0007297025140374898,0.10988741184733808
1783693595408891400,8.736891357421875,-0.05375672462880611,0.002144610813260078,0.07538315776437521
1783693595418855000,8.74685498046875,-0.128049456807971,-0.01589187153894454,0.028887217918783424
1783693595428818000,8.75681787109375,-0.17406477352976799,-0.02728398397322744,-0.029640009047463535
1783693595438780000,8.76677978515625,-0.2081587663114071,-0.008830737513676285,-0.060097398892417546
1783693595448743000,8.776742919921874,-0.2156651964187622,0.008303206508234143,-0.06052870298177004
1783693595458705000,8.786704833984375,-0.1677455073803663,0.021929909594170748,-0.028017230151221154
1783693595468668000,8.79666796875,-0.12770634245872498,0.007538798006996512,0.0029975743807852265
1783693595478630000,8.8066298828125,-0.08217500986158847,0.006399930170178413,-0.007641235468164086
1783693595488593000,8.816593017578125,-0.03934066126346588,0.01566036433801055,0.01029416112974286
1783693595498555000,8.826554931640626,-0.009942132821679115,0.03507975241597742,0.03455065050795674
1783693595508518000,8.836517822265625,0.02412146482169628,0.03299388605263084,0.04585530385449529
1783693595518481000,8.84648095703125,0.06492927602827549,0.0182712774887681,0.05829378353655338
1783693595528443000,8.85644287109375,0.0868009160965681,0.02005089091453701,0.06079517189823091
1783693595538406000,8.866406005859375,0.08499182084798812,0.017538104376010596,0.0529438738759607
1783693595548368000,8.876367919921876,0.07814473143219948,-0.004788220657221972,0.06962583634667098
1783693595558331000,8.886330810546875,0.06174947694838047,-0.0037596813270822163,0.05597739635296166
1783693595568292900,8.89629296875,0.03028057197332382,0.0014879004701972007,0.07444923791512846
1783693595578256000,8.906255859375,-0.03393500282764435,-0.0020514891697093842,0.0688346859689802
1783693595588217900,8.9162177734375,-0.07598083139657974,-0.023617278159223494,0.035376945264264936
1783693595598180900,8.926180908203126,-0.09151508513689041,-0.008079846081137657,0.05109868440069258
1783693595608144000,8.936143798828125,-0.1432376735895872,0.025385310745052993,0.05693403949066996
1783693595618105900,8.94610595703125,-0.13362345754802227,0.05074278363510966,0.0828151343960315
1783693595628068900,8.95606884765625,-0.08575579095780848,0.044136736433580515,0.09533478955551981
1783693595638030800,8.96603076171875,-0.03596387830674648,0.017917824408598244,0.09082527624182403
1783693595647993900,8.975993896484376,-0.023115502649545667,0.017965426409989594,0.08006042886041104
1783693595657955800,8.985955810546875,-0.033731589210033414,0.024148316296003756,0.07518851197510958
1783693595667918800,8.9959189453125,-0.0497357985496521,0.014315635198168456,0.0458668481618166
1783693595677880800,9.005880859375,-0.03893792568147182,0.006770955439656973,0.03926598859205842
1783693595687843800,9.01584375,-0.03761456812322139,-0.005557524529285728,0.013290785662457345
1783693595697806800,9.025806884765625,-0.058328854849934574,-0.010036423509009181,-0.019047522558271884
1783693595707768800,9.035768798828125,-0.06316928061842918,-0.029877251869440076,-0.020966873248293993
1783693595717731800,9.04573193359375,-0.06439034684598445,-0.010946414493396877,-0.030968773433193562
1783693595727693800,9.05569384765625,-0.06067103406190872,0.00950626215506345,-0.032697423856705425
1783693595737656800,9.06565673828125,-0.07026420731544494,0.028355997118912634,0.016559139808639885
1783693595747618800,9.075618896484375,-0.05722177039086818,0.02221818848364055,0.047307548489421605
1783693595757581800,9.085581787109374,-0.032952421531081195,0.021823088218830524,0.08346030043177306
1783693595767545000,9.095545166015626,-0.015069558838009834,0.03784534467179328,0.12677417617514727
1783693595777506800,9.1055068359375,0.014039046746492385,0.028488573990017176,0.14352708499021827
1783693595787469800,9.1154697265625,-0.05418751726150512,0.03510967263020575,0.12575798486992715
1783693595797432000,9.12543212890625,-0.06647650547027588,0.034238479286246,0.07897994014732539
1783693595807395000,9.13539501953125,-0.026136896297335625,0.006288907543756068,0.03703625677861273
1783693595817356800,9.145356689453125,-0.05423486353456974,-0.012795841752365231,0.036638781893625856
1783693595827319800,9.15531982421875,-0.10443652603030204,0.0003686506493017077,0.0023574498463422057
1783693595837282000,9.165281982421876,-0.067507602083683,-0.0002253331884741783,-0.013604820047691464
1783693595847245000,9.1752451171875,-0.08476327278912067,-0.02173164707571268,-0.019568550757691264
1783693595857207800,9.185207763671874,-0.0952583633184433,-0.03110182522833347,-0.044363311731070276
1783693595867169800,9.195169677734375,-0.034622985091805454,-0.027886735639348625,-0.05648709944076836
1783693595877132800,9.2051328125,0.009987141007184982,-0.02877491665072739,-0.022765374037623406
1783693595887095000,9.215094970703126,0.022228198421001433,-0.007404065711423755,0.007452946354448795
1783693595897057800,9.225057861328125,-0.021396423771977424,0.016616751747392116,0.016764306991919876
1783693595907019800,9.235019775390626,-0.09676467622816562,0.05180807477906346,0.029358561757579445
1783693595916982800,9.244982666015625,-0.1194528933763504,0.06764682789128273,0.05923281795233488
1783693595926945000,9.254945068359374,-0.12783844440579414,0.05350585514027625,0.05008242003023624
1783693595936907800,9.26490771484375,-0.13877718704938888,0.03235222714822739,0.031970863147825
1783693595946870800,9.274870849609375,-0.09923311216831207,0.014655388546548784,-0.000562017796933651
1783693595956832800,9.284832763671876,-0.008614099088311195,-0.034156573156453665,-0.022723799918219444
1783693595966796000,9.294796142578125,0.06974573639929295,-0.05939688594024628,-0.0218681329369545
1783693595976757800,9.3047578125,0.0542407087534666,-0.05017510328236967,-0.008527297587692738
1783693595986720800,9.314720703125,0.01641220561861992,-0.012459266741760074,0.00954933411180973
1783693595996683000,9.32468310546875,-0.004693710774183273,0.03207406779397279,0.04965571905076503
1783693596006646000,9.33464599609375,-0.03793313255310058,0.04241868046931922,0.07553169938959181
1783693596016609000,9.344609130859375,-0.051726680105924606,0.06014616993758827,0.06903941476084291
1783693596026570800,9.35457080078125,-0.0512649078130722,0.06275441620722412,0.010451835909485816
1783693596036533800,9.36453369140625,-0.050475218740105625,0.027244528745673596,-0.027210297682508825
1783693596046496000,9.37449609375,-0.020362404549121856,-0.0037428763227537274,-0.05459288319200277
1783693596056459000,9.384458984375,-0.04743219778239727,-0.03060278966501355,-0.09067213150672614
1783693596066420700,9.394420654296875,-0.10294599521160125,-0.030787644712626933,-0.12821524182893335
1783693596076383700,9.4043837890625,-0.10898176824450492,-0.026798209750279783,-0.09967610669545829
1783693596086346000,9.414345947265625,-0.09395020332932472,-0.007166567161120474,-0.05615699070356786
1783693596096309000,9.42430908203125,-0.08999941987693309,-0.004767287467047572,-0.023413316552340982
1783693596106270700,9.434270751953125,-0.08307400452792645,0.010378259216621518,0.012775018160045146
1783693596116233700,9.444233642578125,-0.05549041655361652,0.03528495613187551,0.06765446320846677
1783693596126196700,9.45419677734375,-0.02044365309178829,0.01877097063921392,0.1160086712066084
1783693596136159000,9.464158935546875,0.008738017728924751,0.035090127679519356,0.1338823276799172
1783693596146122000,9.4741220703125,0.005763970354199409,0.016498641793057323,0.11085669527091085
1783693596156083700,9.484083740234375,0.023334113836288452,-0.00417096554171294,0.06837057558856904
1783693596166047000,9.494046875,0.02339081245958805,-0.014738061861321329,0.045849166374653576
1783693596176009000,9.504009033203126,-0.023834464573860167,-0.024786468069069086,-0.011774755076318979
1783693596185972000,9.513971923828125,-0.06416121426522732,-0.029017785495892165,-0.05072407893463969
1783693596195934700,9.523934814453124,-0.09344576093852519,-0.03251731804944575,-0.08439071314968168
1783693596205897000,9.53389697265625,-0.12386311103403568,-0.027843481019511816,-0.06815379103273153
1783693596215860000,9.54385986328125,-0.13892624013125895,-0.0017941534077748655,-0.04490399447903037
1783693596225822000,9.553822021484375,-0.13982406575381756,0.017317958819307387,-0.018652385760843753
1783693596235784700,9.56378466796875,-0.13282733873426913,0.034248014299571514,0.021565350598096847
1783693596245747000,9.573746826171876,-0.08254618126153945,0.02350537874996662,0.03617131051234901
1783693596255710000,9.5837099609375,-0.014539982005953788,0.018821568315289913,0.041646600118279455
1783693596265672000,9.593671875,0.06698854664564133,0.02336666439902037,0.07712963610552251
1783693596275634700,9.603634765625,0.12083587216734885,0.028969087515957653,0.10971395497657357
1783693596285597700,9.61359765625,0.07753975127637386,0.05373180938325822,0.11138736808151006
1783693596295560000,9.623559814453126,0.019616554617881775,0.043797896400652826,0.07383907012753188
1783693596305523000,9.63352294921875,-0.0011228665500879287,-0.004151858982443809,0.04280117698088288
1783693596315484700,9.643484619140626,-0.02165185983777046,-0.035808103223145,-0.0020413696344941854
1783693596325447700,9.65344775390625,-0.036598669078946114,-0.04700542373768985,-0.006833864608034491
1783693596335410000,9.663409912109374,-0.023519991797208786,-0.034040655159205194,0.005128741190582513
1783693596345373000,9.673373046875,0.016380641436576842,-0.012907704629004,0.04076031880304217
1783693596355335000,9.6833349609375,0.04134323325753212,0.025196985098719597,0.10337123488634824
1783693596365298000,9.6932978515625,0.05288987866640091,0.04617353949081152,0.14232655009403825
1783693596375261000,9.703260986328125,0.05140986924171447,0.042113779238611454,0.15599369478821754
1783693596385223000,9.713222900390624,0.017545009040832518,0.01596840737387538,0.13630553623884917
1783693596395186000,9.72318603515625,-0.0478928010314703,0.031811288671940566,0.09501257186383008
1783693596405148000,9.73314794921875,-0.0879775586605072,-0.000803571467846632,0.07001615083850919
1783693596415111000,9.74311083984375,-0.08393208266198635,-0.01823273557666689,0.055720498982444404
1783693596425072400,9.753072265625,-0.09637012395262717,-0.022202296794764695,0.038490839501097794
1783693596435035400,9.763035400390624,-0.07049450893998145,-0.02644362415894866,0.032501243697479365
1783693596444997400,9.772997314453125,-0.037431612771749494,-0.047002428063005204,0.03516140281744301
1783693596454960400,9.78296044921875,-0.0727279670804739,-0.03138363784439861,0.03217055043838918
1783693596464923400,9.79292333984375,-0.09077975659966468,-0.00943882294204086,0.026339798458293078
1783693596474885400,9.802885498046875,-0.05279343255460262,-0.012349193963408469,0.04559175754748285
1783693596484848400,9.812848388671876,-0.052124154990911484,0.028509835973754522,0.0798609607655555
1783693596494810400,9.822810302734375,-0.08632569980025291,0.04304134241230786,0.05543189129941165
1783693596504773400,9.8327734375,-0.08624269769191742,0.05805438529010862,0.021266148455813524
1783693596514735400,9.8427353515625,-0.10083528666794299,0.04164817102085799,0.006951280442625283
1783693596524698400,9.852698486328125,-0.11754326036274433,-0.00036452246345579625,-0.055205754393339156
1783693596534660400,9.862660400390626,-0.11237900946736334,-0.03100738841053098,-0.070772302968055
1783693596544623400,9.872623291015625,-0.05408581045269966,-0.0582439895780757,-0.04267674688361585
1783693596554586400,9.88258642578125,0.0050911856591701506,-0.07995923350825905,-0.026961656683683395
1783693596564548600,9.892548583984375,0.048286768785119054,-0.07004157754071057,0.007618804440647363
1783693596574511600,9.90251171875,0.05542962627708912,-0.018797456787340343,0.07297960375398398
1783693596584473300,9.912473388671875,0.04578618414103985,0.02109692936874926,0.11600436035767198
1783693596594436400,9.922436279296875,0.001418050104379654,0.039882366924732925,0.11981661212220787
1783693596604398600,9.932398681640626,-0.03790858263373375,0.03720463561546057,0.09634820438176393
1783693596614361600,9.942361572265625,-0.08774082729518413,0.01936952105425298,0.06770115189440548
1783693596624323300,9.9523232421875,-0.1411591137498617,-0.0005790419969707727,-0.007353650698438286
1783693596634286300,9.962286376953125,-0.15044599753320217,-0.0024828297916799783,-0.034593685932084915
1783693596644249300,9.972249267578125,-0.13342238201797008,-0.00710855336356908,-0.08283091648705303
1783693596654211600,9.982211669921876,-0.10803016660809517,0.002484948683530092,-0.06945676339007914
1783693596664174300,9.99217431640625,-0.05047288065254688,0.0024814415521919727,-0.05279854712113738
1783693596674136300,10.00213623046875,0.016022914040088654,-0.019972455383464694,-0.033804508315771815
1783693596684099300,10.012099365234375,0.04689093051254749,-0.0011472703389823436,-0.01365508893020451
1783693596694061600,10.0220615234375,0.06656652184128761,0.021677761464007198,-0.0012394056018441915
1783693596704024300,10.0320244140625,0.06682195790708065,0.030997159277461467,0.026318098083138463
1783693596713986300,10.041986328125,0.016645429852604865,0.055381147492863235,0.0028979864638298746
1783693596723949300,10.05194921875,0.00857552064359188,0.05663502001147717,0.0035732553768903015
1783693596733912600,10.06191259765625,-0.012497078001499176,0.02449501084182411,-0.019972601513937115
1783693596743874300,10.071874267578124,-0.053256958413124084,0.009730353234522045,-0.060063715818524356
1783693596753837300,10.08183740234375,-0.07381517779529094,-0.009059797029197215,-0.0548915008123964
1783693596763799600,10.091799560546875,-0.11122048708200453,-0.019509112188033757,-0.02742204073704779
1783693596773762600,10.101762451171876,-0.14872048891484738,-0.03150065182019025,-0.015663433077931402
1783693596783724300,10.111724365234375,-0.13448153568208218,-0.01624985466375947,0.010994637549296022
1783693596793687300,10.121687255859374,-0.13344693193733692,-0.014876045559905468,0.03255633488558233
1783693596803649500,10.1316494140625,-0.12790858703255653,0.002616027717292309,0.05522752783372998
1783693596813612500,10.141612548828125,-0.041243864536285396,0.008550751528516412,0.0693511841237545
1783693596823575600,10.151575439453126,0.0313444018125534,0.003417955217324197,0.09528488599918782
1783693596833537300,10.161537353515625,0.08955342967510223,0.007410130126029252,0.09692607733495533
1783693596843500300,10.171500244140624,0.12320552390813827,-0.005425312984362244,0.09234240280650556
1783693596853462500,10.181462646484375,0.1422393102020025,-0.01252634062860161,0.04280972561351955
1783693596863425500,10.191425537109374,0.12920154945254325,-0.02835143054164946,-0.030593729575723407
1783693596873387300,10.20138720703125,0.08519932611882686,-0.0379528601668775,-0.09265271086469293
1783693596883350300,10.211350341796875,0.05300561400055885,-0.03685710081942379,-0.12304127325713633
1783693596893312500,10.2213125,0.013534019833803175,-0.0038247459199279546,-0.14233444113954902
1783693596903275500,10.231275634765625,-0.09647299980521201,0.027678865042328832,-0.10519866950921714
1783693596913238500,10.241238525390624,-0.22556407462060452,0.07562398078292608,-0.0588252600647509
1783693596923200300,10.2512001953125,-0.3096592388898134,0.0796044287212193,-0.006478109972923994
1783693596933163500,10.26116357421875,-0.28681086274385453,0.05722695802263915,0.03332622327953577
1783693596943125500,10.27112548828125,-0.1928039607912302,0.02752736427504569,0.08187573465406894
1783693596953088500,10.281088623046875,-0.05321370379328728,-0.0009570084638893604,0.1302759737510234
1783693596963050200,10.29105029296875,0.06331541109085083,0.0278197348177433,0.16749211714118717
1783693596973013500,10.301013427734375,0.10780980185568333,0.04171937309354543,0.21070983903370796
1783693596982975500,10.3109755859375,0.07699263878762722,0.04662935696691274,0.1706044770080596
1783693596992938500,10.3209384765625,0.029232524225115776,0.04203125205431133,0.10909786890484392
1783693597002901200,10.3309013671875,-0.04247136050462723,0.028039916907064616,0.09098265876062214
1783693597012863500,10.340863525390626,-0.10499532895684241,0.010994272223114967,0.05139890945628285
1783693597022826500,10.350826416015625,-0.1005342578947544,-0.03426182362921536,0.022909312552958725
1783693597032788500,10.36078857421875,-0.0958504839926958,-0.06317786578368395,-0.0009300473917275667
1783693597042751200,10.370751220703125,-0.04848842883706093,-0.06281162628717721,-0.006286313727870583
1783693597052713500,10.38071337890625,0.006908464214205741,-0.043227987558208406,0.04016016095280647
1783693597062676500,10.390676513671876,0.019710078120231626,0.005291092145442962,0.06669533585272729
1783693597072638500,10.400638427734375,-0.050313306176662444,0.062146951833367346,0.08195413365252316
1783693597082601200,10.410601318359374,-0.11360066021680831,0.09602697307076305,0.10002075541466474
1783693597092564200,10.420564208984375,-0.14212591295540333,0.0702996439550072,0.07423508370779454
1783693597102526500,10.4305263671875,-0.13271803314089775,0.03299479936808347,0.06138130122311413
1783693597112489500,10.440489501953126,-0.07890110275745392,0.011053089738264679,0.022493644424155353
1783693597122451200,10.450451171875,0.025058453410863876,-0.050973487118445335,0.005835355089977384
1783693597132414500,10.46041455078125,0.13782266280353067,-0.10208671150114387,0.04347220811024308
1783693597142376400,10.47037646484375,0.1898714144706726,-0.09773790517449378,0.08165135131366551
1783693597152339500,10.48033935546875,0.14360183072686195,-0.03941657604388892,0.1614177656635642
1783693597162301200,10.49030126953125,0.03351356254518032,0.007943250622041523,0.21205314340144393
1783693597172264400,10.500264404296875,-0.06862579245865344,0.043518129611201585,0.2046235048573464
1783693597182227500,10.5102275390625,-0.17435060473382472,0.03425513816010207,0.19596132884360848
1783693597192189400,10.520189453125,-0.2374199321091175,0.030146935656294224,0.15098017747513948
1783693597202152400,10.53015234375,-0.2495318101853132,0.010400397983193397,0.11496303461119532
1783693597212114400,10.540114501953125,-0.2645651286661625,0.0013438888896256684,0.05732369639538228
1783693597222077400,10.550077392578125,-0.25366496446728704,0.018201573253422976,0.029530703454092144
1783693597232039400,10.560039306640626,-0.28733167174756524,0.030409349452145396,0.054015083304047584
1783693597242002400,10.57000244140625,-0.28686931493282314,0.05152892904412001,0.026378230772539972
1783693597251964400,10.57996435546875,-0.2528273445993662,0.0543845011383295,-0.01867963909395039
1783693597261927400,10.589927490234375,-0.17218845826387405,0.04181925327144563,-0.0584532849472016
1783693597271890400,10.599890380859375,-0.06493745933473109,0.03649199383407831,-0.10798618133589624
1783693597281852400,10.609852294921875,0.06933540203273296,0.01666376922689378,-0.1609985173381865
1783693597291815400,10.6198154296875,0.16796996378600595,0.008109583632275461,-0.17374482086040077
1783693597301777400,10.62977734375,0.22534780152142048,0.052292570360377426,-0.18902100818641482
1783693597311740400,10.639740478515625,0.25851941876113416,0.06662106504011898,-0.16642872569337486
1783693597321702400,10.649702392578124,0.2900660651475191,0.07500336466655134,-0.12781294463835655
1783693597331665400,10.65966552734375,0.31462475234270093,0.03858060014378279,-0.1209799568131566
1783693597341627400,10.66962744140625,0.29261224249899387,-0.0061279082957655185,-0.13737543049268425
1783693597351590400,10.67959033203125,0.27820260887444015,-0.028191015815548597,-0.15033238109089433
1783693597361553400,10.689553466796875,0.2428653380334377,-0.044004269160330296,-0.11661533186286688
1783693597371515400,10.699515380859374,0.1565273632735014,-0.03674293638784438,-0.07603935665078461
1783693597381478400,10.709478515625,0.02736263870000839,-0.001146064762584865,-0.012139277539774776
1783693597391440400,10.7194404296875,-0.11204933912158012,0.03494681021869182,0.030037922323867677
1783693597401403400,10.7294033203125,-0.19315584296882152,0.04116382157001644,0.0677452102318406
1783693597411365600,10.73936572265625,-0.25396833132803437,0.03631345892939716,0.10024674619026482
1783693597421329200,10.7493291015625,-0.26935470103025433,-0.007684343957528471,0.09856734173595905
1783693597431291400,10.75929150390625,-0.1805646569430828,0.037752551821805536,0.10406184749901294
1783693597441254100,10.769254150390625,-0.20142741222977636,0.03219458890110254,0.2513573451120406
1783693597451217200,10.779217041015626,-0.1969692637771368,0.05579151839204132,0.26467903736941517
1783693597461179100,10.78917919921875,-0.1922545102149248,0.08622768278587609,0.19608853541985152
1783693597471142400,10.799142333984374,-0.15366028340458868,0.021616021339409052,0.11250643523931503
1783693597481104100,10.809104248046875,-0.10542027637064456,-0.0510022748215124,0.07440306068584322
1783693597491067100,10.819067138671874,0.0096726682305336,-0.06298669059313833,0.05765051719695329
1783693597501029400,10.829029296875,0.08850129027366638,-0.07489274389892817,0.008650558641180396
1783693597510992400,10.838992431640625,0.17505962978601455,-0.05142459188681096,-0.09325016530118882
1783693597520954400,10.848954345703126,0.2753822907567024,-0.038059571944363414,-0.05876344687491655
1783693597530917000,10.858917236328125,0.21315292133688926,0.027434973283857106,-0.02080591053292155
1783693597540880100,10.868880126953124,0.06414367860853672,0.062129452709294854,-0.09704057056009768
1783693597550842400,10.87884228515625,-0.11154665029644965,0.03101337975990027,-0.14351473696529865
1783693597560805400,10.888805419921875,-0.45398821484744545,0.045330220534466205,-0.16625468430072068
1783693597570767000,10.89876708984375,-0.5251087467312813,0.0042105303671211005,-0.22341507989317178
1783693597580730000,10.908730224609375,-0.24280688584446905,-0.10422434458434582,-0.17653678966648875
1783693597590692400,10.9186923828125,0.037923195680975914,-0.1267209481505677,-0.030630773650482297
1783693597600655400,10.9286552734375,0.1291430972635746,-0.10991437291949986,0.14775449342690408
1783693597610617000,10.9386171875,0.14414543608427047,-0.03822590495459735,0.1578013287320733
1783693597620580000,10.948580078125,0.052614568856358526,0.04375968328211456,0.1168187454804778
1783693597630543000,10.958543212890625,-0.23923311901092528,0.07831555795446038,0.07683620611689984
1783693597640505300,10.96850537109375,-0.3752548698723316,0.09903872210737318,-0.027277809960767625
1783693597650468400,10.97846826171875,-0.3717290338337421,0.061262314485944803,-0.06510572857372462
1783693597660430000,10.98843017578125,-0.2971206598341465,0.06825111392736434,-0.02935461623482406
1783693597670393300,10.998393310546875,-0.20816811866164206,0.017831497832015156,-0.10603913892135024
1783693597680355300,11.008355224609375,-0.200594468536973,-0.021815197173319756,-0.11981040157712995
1783693597690318300,11.018318359375,-0.016454291194677353,0.016919680216722188,0.007055763730406761
1783693597700280000,11.028280029296875,0.14525836576223372,0.028767610127106307,0.11526150610111653
1783693597710243300,11.038243408203124,0.18996376892924308,-0.038025706207379696,0.016932064774259924
1783693597720205300,11.048205322265625,0.20068039325475692,-0.09142978147361427,-0.12168240599408744
1783693597730168300,11.058168212890624,0.28076515283882614,-0.1952540208244696,-0.1799914601650089
1783693597740131000,11.068131103515626,0.33209611162543295,-0.2011926170932129,-0.061762628690898415
1783693597750093300,11.07809326171875,0.26762743884623047,-0.09825871417820453,0.05154197118878364
1783693597760056300,11.088056396484374,0.17311960163414478,0.041299686376750466,0.10860643212608992
1783693597770018300,11.098018310546875,-0.026962825727462766,0.13284830845706164,0.20775683444701135
1783693597779981000,11.10798095703125,-0.1316916127026081,0.14182068293113262,0.22772885143905877
1783693597789943300,11.117943359375,-0.1847515872389078,0.09390567006785422,0.174345855493471
1783693597799906300,11.12790625,-0.20097674585282801,0.003269888516142964,0.11737382207997142
1783693597809868300,11.137868408203126,-0.15690730250179766,-0.06421400389838963,0.052679889177531
1783693597819831300,11.147831298828125,-0.10433423469960688,-0.11627291163336485,0.013600290003046392
1783693597829794000,11.1577939453125,-0.0698299075514078,-0.10798822716251015,0.012097776485607028
1783693597839756300,11.16775634765625,-0.12136135734617709,-0.03906615517102182,-0.029502354142442344
1783693597849719300,11.17771923828125,-0.24439269373118877,0.0204315607951954,-0.09040463967695832
1783693597859681300,11.187681396484376,-0.22523206618726252,0.0813833114946261,-0.052600978722423315
1783693597869644300,11.197644287109375,-0.10648878238499164,0.11265453847311437,0.09136654351167381
1783693597879606300,11.207606201171876,0.1478133109420538,0.09549973432626575,0.21815182560272514
1783693597889569300,11.2175693359375,0.2676256852805614,0.0728299661502242,0.19448877207301557
1783693597899531300,11.22753125,0.1379921741515398,-0.006768288558535278,-0.002809139136597514
1783693597909494300,11.237494384765625,0.08256020978689194,-0.1019930784009397,-0.15481639463715255
1783693597919457300,11.247457275390625,0.008369184416532517,-0.11897332969848066,-0.1859923080150038
1783693597929419300,11.257419189453126,-0.04975801038146019,-0.12841255449932068,-0.21251849589087068
1783693597939382300,11.26738232421875,0.00021861118674278257,-0.06232336784619838,-0.14500811732821164
1783693597949344300,11.27734423828125,-0.15354045641720293,0.0036558190938085315,-0.07630093019641936
1783693597959307300,11.287307373046875,-0.16988719558417797,0.02559087978713214,-0.07004442708492278
1783693597969269200,11.297269287109375,0.0400064316958189,0.07905220166593789,0.05802081181406975
1783693597979232300,11.307232177734376,0.18339374288916588,0.08438837506212293,0.19456768252812326
1783693597989194200,11.3171943359375,0.17013152573406695,0.038202158752828834,0.2701158946610987
1783693597999157200,11.3271572265625,-0.07422258955240249,-0.018075645318813623,0.01786729979775846
1783693598009120300,11.337120361328125,-0.21045535281598568,-0.03732577777709812,-0.013510346697270869
1783693598019082200,11.347082275390624,-0.2513373983025551,-0.08038779765125363,-0.04766315699405968
1783693598029045200,11.357045166015626,-0.17415069824755192,-0.07480649038758129,-0.02797507150992751
1783693598039007200,11.36700732421875,-0.17998656479418276,-0.06074501261357217,-0.0664598465964198
1783693598048970200,11.37697021484375,-0.1982896987259388,-0.045322183358483016,-0.0726942109413445
1783693598058932200,11.38693212890625,-0.3323983094424009,0.06285794964693486,-0.034310265880823136
