time,seconds_elapsed,z,y,x
1783693647221783800,0.05678369140625,-0.005963203962892294,-0.012937040999531746,0.07092829048633575
1783693647231746800,0.066746826171875,0.0007418363820761442,-0.012641696259379387,0.05453306809067726
1783693647241709000,0.076708984375,0.009746711701154709,-0.010665655136108398,0.036238737404346466
1783693647251672000,0.086672119140625,0.018886946141719818,-0.007896235212683678,0.014102809131145477
1783693647261633800,0.0966337890625,0.023351574316620827,-0.0057097808457911015,-0.00904074963182211
1783693647271596800,0.1065966796875,0.02245914936065674,-0.004290848970413208,-0.028283152729272842
1783693647281559000,0.11655908203125,0.019047938287258148,-0.0020527553278952837,-0.03814474493265152
1783693647291522000,0.12652197265625,0.013665956445038319,0.001314012799412012,-0.04139832779765129
1783693647301483800,0.13648388671875,0.009611793793737888,0.002689296379685402,-0.04133930057287216
1783693647311446800,0.14644677734375,0.002908084774389863,-0.0013259515399113297,-0.037321124225854874
1783693647321409000,0.156408935546875,0.0007664986769668758,-0.0034218309447169304,-0.031206175684928894
1783693647331372000,0.1663720703125,-0.0007879884215071797,-0.002399176824837923,-0.022809496149420738
1783693647341333800,0.176333740234375,-0.0009124296484515071,0.0038464439567178488,-0.012634371407330036
1783693647351297000,0.186297119140625,-0.004750044550746679,0.0021811691112816334,-0.004768192768096924
1783693647361259000,0.196259033203125,-0.006249896716326475,0.0016714236699044704,0.002632809802889824
1783693647371222000,0.206221923828125,-0.003386731958016753,-0.0010617785155773163,0.011513653211295605
1783693647381183700,0.216183837890625,-0.0004220932023599744,0.0003459787694737315,0.016686294227838516
1783693647391147000,0.22614697265625,0.004309811629354954,-0.002250070683658123,0.019706320017576218
1783693647401109000,0.23610888671875,0.009451213292777538,-0.0038237199187278748,0.021646039560437202
1783693647411072000,0.246072021484375,0.013671258464455605,0.0005766208632849157,0.024983514100313187
1783693647421034000,0.256033935546875,0.01743771880865097,0.0035391272976994514,0.02352616935968399
1783693647430997000,0.2659970703125,0.02007398195564747,0.0014365616953000426,0.012902554124593735
1783693647440959000,0.275958984375,0.020430240780115128,-0.002813601866364479,-0.002424752339720726
1783693647450922000,0.285921875,0.01731673814356327,-0.0013033231953158975,-0.021543320268392563
1783693647460884000,0.295884033203125,0.011531666852533817,0.0002807334531098604,-0.041963014751672745
1783693647470847000,0.305846923828125,0.009792888537049294,-0.0029853670857846737,-0.06190023571252823
1783693647480808700,0.31580859375,0.0023911884054541588,-0.0016550876898691058,-0.07292550802230835
1783693647490771700,0.325771728515625,-0.0037692361511290073,0.002864030422642827,-0.06810998171567917
1783693647500734000,0.33573388671875,-0.01267140731215477,0.006845425348728895,-0.04880520701408386
1783693647510697000,0.345697021484375,-0.019366061314940453,0.014769661240279675,-0.027388596907258034
1783693647520658700,0.35565869140625,-0.024014819413423538,0.010709943249821663,-0.007833224721252918
1783693647530621700,0.36562158203125,-0.025668907910585403,0.006225978024303913,0.007970505394041538
1783693647540584000,0.375583984375,-0.02223353460431099,0.008642266504466534,0.02319515496492386
1783693647550547000,0.385546875,-0.02001139335334301,0.0040949187241494656,0.03222673386335373
1783693647560508700,0.3955087890625,-0.014249742031097412,-0.005379530601203442,0.02657032012939453
1783693647570471700,0.4054716796875,-0.005438940599560738,-0.010701592080295086,0.024125006049871445
1783693647580434000,0.415433837890625,0.006287828087806702,-0.006265806034207344,0.02472955547273159
1783693647590397000,0.42539697265625,0.013536419719457626,-0.006180318538099527,0.02454233542084694
1783693647600359700,0.435359619140625,0.01950822025537491,-0.01006483007222414,0.01885088160634041
1783693647610321700,0.44532177734375,0.023562083020806313,-0.008279180154204369,0.00937588606029749
1783693647620284700,0.45528466796875,0.023565692827105522,-0.005015761125832796,-0.0003742907429113984
1783693647630247000,0.465246826171875,0.01742391102015972,-0.0029885629191994667,-0.011125206016004086
1783693647640209700,0.475209716796875,0.011166254989802837,-0.0017727933591231704,-0.025889083743095398
1783693647650171600,0.485171630859375,0.0009170797420665622,-0.002071333583444357,-0.03431931883096695
1783693647660135000,0.495135009765625,-0.004400589503347874,0.004170278087258339,-0.0361899696290493
1783693647670097000,0.505096923828125,-0.010791110806167126,0.010091017931699753,-0.03346209228038788
1783693647680059600,0.5150595703125,-0.012850889004766941,0.009145884774625301,-0.031038489192724228
1783693647690021600,0.525021728515625,-0.013363014906644821,0.005015854258090258,-0.028786255046725273
1783693647699985000,0.53498486328125,-0.014009637758135796,0.006952761206775904,-0.02560003474354744
1783693647709947000,0.54494677734375,-0.016064798459410667,0.005058188457041979,-0.019806860014796257
1783693647719910000,0.554909912109375,-0.017449377104640007,0.0025873074773699045,-0.01771787740290165
1783693647729872000,0.564871826171875,-0.01992931216955185,0.0026735938154160976,-0.017379390075802803
1783693647739835000,0.5748349609375,-0.020260820165276527,-0.0036005431320518255,-0.02030003070831299
1783693647749796900,0.584796875,-0.018004057928919792,-0.011715195141732693,-0.02104252018034458
1783693647759760000,0.594759765625,-0.01626448705792427,-0.00895377341657877,-0.023740552365779877
1783693647769721900,0.604721923828125,-0.013808254152536392,0.0015492010861635208,-0.02243800088763237
1783693647779684900,0.614684814453125,-0.010152371600270271,0.017225367948412895,-0.023415490984916687
1783693647789646800,0.624646728515625,-0.00703247869387269,0.02303878217935562,-0.026403823867440224
1783693647799609900,0.63460986328125,-0.003465530462563038,0.012908939272165298,-0.03565765172243118
1783693647809571800,0.64457177734375,0.00278863706625998,-0.0033842804841697216,-0.04459282383322716
1783693647819534800,0.654534912109375,0.009424880146980286,-0.010364203713834286,-0.04833401367068291
1783693647829496800,0.664496826171875,0.014738685451447964,-0.015025800094008446,-0.044894009828567505
1783693647839459800,0.6744599609375,0.016706068068742752,-0.013448413461446762,-0.029337311163544655
1783693647849421800,0.684421875,0.015890609472990036,-0.002144626108929515,-0.008283425122499466
1783693647859384800,0.694384765625,0.007668953388929367,0.003796624019742012,0.01533619686961174
1783693647869346800,0.704346923828125,0.001427036477252841,0.003922858275473118,0.024231689050793648
1783693647879309800,0.714309814453125,-0.004067581612616777,0.0032586860470473766,0.029050646349787712
1783693647889271800,0.724271728515625,-0.0069682965986430645,0.0018117907457053661,0.024678269401192665
1783693647899234800,0.73423486328125,-0.005511322058737278,-0.005304425489157438,0.017691120505332947
1783693647909196800,0.74419677734375,-0.0015618542674928904,-0.008417660370469093,0.014127012342214584
1783693647919159800,0.754159912109375,0.003402011701837182,-0.002646590583026409,0.010827621445059776
1783693647929121800,0.764121826171875,0.011160864494740963,-0.0017501706024631858,0.0023816730827093124
1783693647939084800,0.774084716796875,0.016141558066010475,-0.002289733150973916,-0.006107355933636427
1783693647949046800,0.784046875,0.019982635974884033,0.005601479206234217,-0.019792810082435608
1783693647959009800,0.794009765625,0.019497407600283623,0.013145948760211468,-0.03383858501911163
1783693647968971800,0.8039716796875,0.014850988984107971,0.013375513255596161,-0.04370426386594772
1783693647978934800,0.813934814453125,0.012223870493471622,0.013639143668115139,-0.045346230268478394
1783693647988896800,0.823896728515625,0.0059199025854468346,0.016431733965873718,-0.04907279089093208
1783693647998859800,0.83385986328125,0.0002748481056187302,0.014533160254359245,-0.0452130101621151
1783693648008821800,0.84382177734375,-0.0023353160358965397,0.012857499532401562,-0.034317485988140106
1783693648018784800,0.85378466796875,-0.0032808196265250444,0.013702286407351494,-0.01866171695291996
1783693648028746800,0.863746826171875,-0.00180942309089005,0.009697425179183483,-0.0035855621099472046
1783693648038709800,0.873709716796875,0.001142473192885518,0.0062960293143987656,0.005523044615983963
1783693648048671700,0.883671630859375,0.004275416024029255,0.007567422464489937,0.016079016029834747
1783693648058634800,0.893634765625,0.0080211590975523,0.007530947215855122,0.02146391198039055
1783693648068596700,0.9035966796875,0.013552011922001839,0.001664536539465189,0.02206498757004738
1783693648078560000,0.91356005859375,0.018331708386540413,-0.006320734973996878,0.019487015902996063
1783693648088521700,0.923521728515625,0.023999979719519615,-0.006120998412370682,0.0223054401576519
1783693648098484700,0.933484619140625,0.02681470848619938,-0.005368347279727459,0.026024745777249336
1783693648108446700,0.94344677734375,0.02759847790002823,-0.0066370777785778046,0.029022134840488434
1783693648118410000,0.953409912109375,0.025801874697208405,-0.008462982252240181,0.025931067764759064
1783693648128371700,0.963371826171875,0.023386389017105103,-0.0042775580659508705,0.023601068183779716
1783693648138334700,0.973334716796875,0.018316810950636864,-0.0016758952988311648,0.021292341873049736
1783693648148297000,0.983296875,0.014304759912192822,-0.001750197377987206,0.014740433543920517
1783693648158260000,0.993260009765625,0.010743153281509876,0.000054624746553599834,0.0033784322440624237
1783693648168221700,1.0032216796875,0.005296190269291401,0.008325337432324886,-0.0008605212206020951
1783693648178184700,1.013184814453125,0.0030877997633069754,0.011593581177294254,-0.006344361696392298
1783693648188147000,1.02314697265625,-0.0003042685566470027,0.00958023127168417,-0.01718156225979328
1783693648198110000,1.03310986328125,-0.006598739419132471,0.007461975794285536,-0.026808498427271843
1783693648208071700,1.04307177734375,-0.00982462614774704,0.001364135998301208,-0.03733757138252258
1783693648218034700,1.05303466796875,-0.012522108852863312,0.006182300392538309,-0.03548178821802139
1783693648227997000,1.062996826171875,-0.018685996532440186,0.00585872633382678,-0.027050219476222992
1783693648237960000,1.0729599609375,-0.018398962914943695,0.001239735633134842,-0.018341198563575745
1783693648247921700,1.082921630859375,-0.01496588159352541,0.002331631723791361,-0.0056413812562823296
1783693648257884700,1.092884765625,-0.011421069502830505,0.004364670254290104,0.0055848294869065285
1783693648267847000,1.102846923828125,-0.00916137732565403,0.005773482378572226,0.01754801534116268
1783693648277810000,1.112809814453125,-0.005319615826010704,0.0037135868333280087,0.023426158353686333
1783693648287771600,1.122771728515625,-0.003052733140066266,0.0017076939111575484,0.030830545350909233
1783693648297734700,1.132734619140625,0.0002986225299537182,-0.013964502140879631,0.03670397773385048
1783693648307697000,1.14269677734375,0.0025356777478009462,-0.02479291707277298,0.03881426528096199
1783693648317660000,1.152659912109375,0.002840688219293952,-0.025440562516450882,0.04536271095275879
1783693648327621600,1.16262158203125,-0.00111623655539006,-0.01851101592183113,0.053215041756629944
1783693648337584600,1.172584716796875,-0.007063082419335842,-0.013033437542617321,0.05564439296722412
1783693648347547000,1.182546875,-0.014044292271137238,-0.004863391630351543,0.05011886730790138
1783693648357510000,1.192510009765625,-0.016712618991732597,-0.000313645345158875,0.040776386857032776
1783693648367471600,1.2024716796875,-0.02171430177986622,0.0040225135162472725,0.02448902651667595
1783693648377434600,1.2124345703125,-0.01795150712132454,-0.0004502456868067384,0.004319543018937111
1783693648387396900,1.22239697265625,-0.012071248143911362,-0.005426628049463034,-0.009985360316932201
1783693648397359900,1.23235986328125,-0.006030275020748377,-0.007849620655179024,-0.020458003506064415
1783693648407321600,1.242321533203125,0.0004662402207031846,-0.007120713125914335,-0.022618358954787254
1783693648417284600,1.25228466796875,0.0031784926541149616,-0.00028733129147440195,-0.018464218825101852
1783693648427246800,1.262246826171875,0.003290345426648855,0.000260214670561254,-0.012500869110226631
1783693648437209900,1.2722099609375,-0.0004148056614212692,-0.004892471246421337,-0.005778142251074314
1783693648447171600,1.282171630859375,-0.0007104165852069855,-0.0022290442138910294,0.0054987468756735325
1783693648457134800,1.292134765625,-0.007462264038622379,0.00478467158973217,0.01637512817978859
1783693648467096800,1.302096923828125,-0.014132151380181313,0.005276291165500879,0.02539951726794243
1783693648477059600,1.3120595703125,-0.016349105164408684,-0.0026662922464311123,0.026794275268912315
1783693648487021600,1.322021484375,-0.02035503275692463,-0.01088320929557085,0.026015300303697586
1783693648496984800,1.33198486328125,-0.022873051464557648,-0.007014967501163483,0.025517022237181664
1783693648506946600,1.341946533203125,-0.019781388342380524,-0.001028447994031012,0.02513858862221241
1783693648516909600,1.35190966796875,-0.01545468159019947,-0.0012726219138130546,0.016171501949429512
1783693648526871800,1.361871826171875,-0.008103025145828724,-0.008583531714975834,0.004975306801497936
1783693648536834800,1.371834716796875,0.00019426725339144468,-0.009222494438290596,0.0036515628453344107
1783693648546796500,1.381796630859375,0.0044238995760679245,-0.005271695088595152,-0.00013918057084083557
1783693648556759600,1.391759521484375,0.011891718953847885,-0.007092504762113094,-0.0032899039797484875
1783693648566721800,1.4017216796875,0.0182337686419487,-0.009534623473882675,-0.00810756254941225
1783693648576684800,1.411684814453125,0.017770137637853622,-0.008244290947914124,-0.006580553017556667
1783693648586646500,1.421646484375,0.02135608345270157,-0.007617649156600237,-0.005630603525787592
1783693648596609500,1.431609619140625,0.01840163581073284,-0.006473807152360678,-0.006088636815547943
1783693648606571800,1.44157177734375,0.014584793709218502,-0.010890393517911434,-0.01076221838593483
1783693648616534800,1.45153466796875,0.013848246075212955,-0.01530701294541359,-0.013499789871275425
1783693648626496500,1.46149658203125,0.010413034819066525,-0.014622047543525696,-0.007465599570423365
1783693648636459500,1.47145947265625,0.010726308450102806,-0.010860021226108074,-0.0005003857659175992
1783693648646421800,1.481421875,0.011026713065803051,-0.009431501850485802,0.004283184185624123
1783693648656384800,1.491384765625,0.00742515129968524,-0.00926852785050869,0.006206112448126078
1783693648666346500,1.501346435546875,0.005196352023631334,-0.005797098390758038,0.007493750657886267
1783693648676309500,1.5113095703125,0.006972375325858593,0.0010194778442382812,0.008518881164491177
1783693648686271700,1.521271728515625,0.0017579060513526201,0.0038866368122398853,0.0021853516809642315
1783693648696234800,1.53123486328125,-0.0034533594734966755,0.005364168900996447,-0.0017023463733494282
1783693648706196500,1.541196533203125,-0.006906413938850164,0.01087132003158331,-0.005906945094466209
1783693648716159500,1.551159423828125,-0.006111412309110165,0.012925143353641033,-0.007236066274344921
1783693648726121700,1.561121826171875,-0.005032565910369158,0.0038695968687534332,-0.014851108193397522
1783693648736084700,1.571084716796875,-0.0031601376831531525,0.0008312129066325724,-0.01973116397857666
1783693648746046700,1.581046630859375,-0.002575840102508664,0.006173247471451759,-0.02261696383357048
1783693648756009500,1.591009521484375,-0.001756490208208561,0.011194639839231968,-0.02391456626355648
1783693648765971700,1.6009716796875,-0.0043083312921226025,0.013260187581181526,-0.025079965591430664
1783693648775934700,1.610934814453125,0.0021075615659356117,0.013976069167256355,-0.02165485918521881
1783693648785896700,1.620896728515625,0.006555306725203991,0.009970941580832005,-0.017835620790719986
1783693648795859500,1.630859375,0.01346391811966896,0.0030379327945411205,-0.011605312116444111
1783693648805821700,1.64082177734375,0.018660809844732285,-0.0005895589711144567,-0.007963971234858036
1783693648815784700,1.65078466796875,0.017711274325847626,0.0011001983657479286,-0.0002592579694464803
1783693648825746700,1.66074658203125,0.01370321586728096,-0.0032165194861590862,0.0022662177216261625
1783693648835709700,1.670709716796875,0.00906021986156702,-0.0011014206102117896,0.0012621269561350346
1783693648845671700,1.680671630859375,0.004779455251991749,0.006329331547021866,0.005692828446626663
1783693648855634700,1.690634765625,0.005298512056469917,0.013338781893253326,0.008671291172504425
1783693648865596700,1.7005966796875,0.006883892230689526,0.012419724836945534,0.007849173620343208
1783693648875559700,1.7105595703125,0.0051903496496379375,0.008184714242815971,0.0031000375747680664
1783693648885521700,1.720521728515625,0.0076668234542012215,0.006430756766349077,0.0011199775617569685
1783693648895484700,1.730484619140625,0.012829271145164967,0.009469978511333466,-0.00016833445988595486
1783693648905446700,1.74044677734375,0.019358010962605476,0.0069567542523145676,-0.004673870746046305
1783693648915409700,1.75040966796875,0.024157704785466194,0.0002370472066104412,-0.013662383891642094
1783693648925371600,1.76037158203125,0.02653457596898079,-0.0062935566529631615,-0.02413792721927166
1783693648935334700,1.770334716796875,0.026010258123278618,0.0005260042380541563,-0.02583804354071617
1783693648945296600,1.780296630859375,0.023634450510144234,0.008287254720926285,-0.02389340288937092
1783693648955259600,1.790259765625,0.01743309199810028,0.017084775492548943,-0.016935361549258232
1783693648965221600,1.8002216796875,0.017174499109387398,0.0098159434273839,-0.007758641615509987
1783693648975184600,1.8101845703125,0.011267060413956642,0.00739138200879097,-0.004264809191226959
1783693648985147000,1.82014697265625,-0.005771310534328222,0.014414137229323387,-0.005595590453594923
1783693648995109600,1.830109619140625,-0.020916054025292397,0.012833570130169392,-0.01563696190714836
1783693649005071600,1.840071533203125,-0.025068987160921097,0.0031172926537692547,-0.02476814202964306
1783693649015034600,1.85003466796875,-0.01794460602104664,0.003404383547604084,-0.026576537638902664
1783693649024996900,1.859996826171875,-0.007737773470580578,-0.00197387021034956,-0.025670796632766724
1783693649034959600,1.869959716796875,0.0020873064640909433,-0.01047975942492485,-0.02133791148662567
1783693649044921600,1.879921630859375,0.0047054598107934,-0.005579542368650436,-0.011901799589395523
1783693649054884600,1.889884521484375,0.0017030199524015188,0.0028371221851557493,-0.005226335488259792
1783693649064846800,1.899846923828125,-0.0008586746989749372,0.0009404189186170697,-0.0016899240436032414
1783693649074809600,1.9098095703125,-0.005066210869699717,-0.004131048917770386,0.001874733017757535
1783693649084771600,1.919771484375,-0.00711524672806263,-0.008701300248503685,0.005502491258084774
1783693649094734600,1.929734619140625,-0.0036209772806614637,-0.012680076994001865,0.012133465148508549
1783693649104696800,1.93969677734375,-0.0015290642622858286,-0.015162941999733448,0.022858280688524246
1783693649114659600,1.94965966796875,0.0014170039212331176,-0.014610568061470985,0.036255843937397
1783693649124621600,1.95962158203125,0.000962934922426939,-0.018519289791584015,0.04260934889316559
1783693649134584600,1.96958447265625,-0.0002041184197878465,-0.01897416077554226,0.044158194214105606
1783693649144546800,1.979546875,-0.00724897813051939,-0.014366624876856804,0.041076116263866425
1783693649154509600,1.989509521484375,-0.01311672106385231,-0.011045663617551327,0.036630503833293915
1783693649164471600,1.999471435546875,-0.016282420605421066,-0.013642512261867523,0.02463482692837715
1783693649174434600,2.0094345703125,-0.019231773912906647,-0.014685151167213917,0.010771602392196655
1783693649184396800,2.019396728515625,-0.020510358735919,-0.012247027829289436,-0.00016813096590340137
1783693649194359800,2.02935986328125,-0.016415908932685852,-0.009275474585592747,-0.008749258704483509
1783693649204321500,2.039321533203125,-0.011576678603887558,-0.0068235029466450214,-0.01697230152785778
1783693649214284500,2.049284423828125,-0.00390779972076416,-0.0075838519260287285,-0.027474666014313698
1783693649224246800,2.059246826171875,-0.0022193556651473045,-0.003365670796483755,-0.02797533944249153
1783693649234209800,2.069209716796875,-0.0031640431843698025,0.002433880465105176,-0.02769547328352928
1783693649244171500,2.079171630859375,-0.0064477212727069855,-0.0017001444939523935,-0.031625498086214066
1783693649254134500,2.089134521484375,-0.011454649269580841,-0.000725658843293786,-0.033066533505916595
1783693649264096800,2.0990966796875,-0.018367949873209,0.0010469412663951516,-0.02913651056587696
1783693649274059800,2.109059814453125,-0.021765602752566338,-0.004427175968885422,-0.024572664871811867
1783693649284021500,2.119021484375,-0.024470308795571327,-0.01127815805375576,-0.01780237816274166
1783693649293984800,2.12898486328125,-0.02807883732020855,-0.013781525194644928,-0.009519367478787899
1783693649303946800,2.13894677734375,-0.027015436440706253,-0.01632963865995407,0.00014950509648770094
1783693649313909800,2.14890966796875,-0.02459685131907463,-0.009652548469603062,0.01637095957994461
1783693649323871500,2.15887158203125,-0.01767715997993946,-0.004838351625949144,0.0314314030110836
1783693649333834800,2.168834716796875,-0.012613915838301182,-0.0024902592413127422,0.03983854502439499
1783693649343796700,2.178796630859375,-0.01016167737543583,-0.0029597743414342403,0.04122072830796242
1783693649353759700,2.188759765625,-0.009928587824106216,-0.004047128837555647,0.03576953336596489
1783693649363721700,2.1987216796875,-0.006668612360954285,-0.005316391587257385,0.02265479788184166
1783693649373684700,2.208684814453125,-0.0005382964154705405,-0.011284822598099709,0.0074828015640378
1783693649383646700,2.218646728515625,0.0026457789354026318,-0.011438220739364624,-0.005063083488494158
1783693649393609700,2.228609619140625,0.004689698573201895,-0.0034316969104111195,-0.0075766220688819885
1783693649403571700,2.23857177734375,0.004364526830613613,0.0022043511271476746,-0.013082707300782204
1783693649413534700,2.24853466796875,0.0015689164865761995,0.004395355936139822,-0.0159449502825737
1783693649423496700,2.25849658203125,-0.003792825620621443,0.008626053109765053,-0.016642164438962936
1783693649433459700,2.268459716796875,-0.011119126342236996,0.015677308663725853,-0.020926611497998238
1783693649443421700,2.278421630859375,-0.013891476206481457,0.015996621921658516,-0.022010784596204758
1783693649453384700,2.288384765625,-0.015856968238949776,0.015561959706246853,-0.020736726000905037
1783693649463346700,2.2983466796875,-0.014310204423964024,0.014508945867419243,-0.019598491489887238
1783693649473309700,2.308309814453125,-0.009888171218335629,0.013276186771690845,-0.015402603894472122
1783693649483271700,2.318271728515625,-0.007770691532641649,0.01084205787628889,-0.004577119834721088
1783693649493234700,2.328234619140625,-0.006528076250106096,0.00985693372786045,0.00023417890770360827
1783693649503196700,2.33819677734375,-0.006727280560880899,0.0026110054459422827,0.006436947267502546
1783693649513159700,2.34815966796875,-0.010187841020524502,0.005932506173849106,0.014599473215639591
1783693649523121700,2.35812158203125,-0.008234146051108837,0.01191050373017788,0.023611342534422874
1783693649533084700,2.368084716796875,-0.005941163748502731,0.012555788271129131,0.025592468678951263
1783693649543046700,2.378046630859375,-0.002531252568587661,0.012172559276223183,0.024388186633586884
1783693649553009700,2.388009765625,0.0038026708643883467,0.010493197478353977,0.012992050498723984
1783693649562971600,2.3979716796875,0.009218474850058556,0.0032422093208879232,-0.0017919556703418493
1783693649572934700,2.4079345703125,0.012580281123518944,-0.0016106149414554238,-0.011636736802756786
1783693649582896600,2.417896728515625,0.015459691174328327,0.004453136585652828,-0.019101044163107872
1783693649592859600,2.427859619140625,0.018094824627041817,0.011372014880180359,-0.018999343737959862
1783693649602821600,2.437821533203125,0.01679120771586895,0.010799967683851719,-0.018374033272266388
1783693649612784600,2.44778466796875,0.012928251177072525,0.012961405329406261,-0.01635437086224556
1783693649622746600,2.45774658203125,0.008033361285924911,0.015974773094058037,-0.014376973733305931
1783693649632708900,2.467708984375,0.0032004667446017265,0.014360359869897366,-0.015374906361103058
1783693649642671900,2.477671875,-0.003272612579166889,0.01330308523029089,-0.016201552003622055
1783693649652634600,2.487634521484375,-0.009674311615526676,0.01218802947551012,-0.017747532576322556
1783693649662596600,2.4975966796875,-0.010372325778007507,0.009428195655345917,-0.016778409481048584
1783693649672558800,2.507558837890625,-0.007500823587179184,0.008473419584333897,-0.011750735342502594
1783693649682521900,2.51752197265625,-0.003780654165893793,0.0075045619159936905,-0.004462195560336113
1783693649692483600,2.527483642578125,0.0008913370547816157,0.0026823864318430424,0.0014726425288245082
1783693649702446600,2.537446533203125,0.001535289455205202,0.0011153824161738157,0.004903060384094715
1783693649712408800,2.547408935546875,0.003565236460417509,0.0005931808846071362,0.006506265141069889
1783693649722371800,2.557371826171875,0.002121004043146968,0.001960714114829898,0.0065795015543699265
1783693649732333600,2.56733349609375,0.0013799297157675028,0.002029125113040209,0.00021896680118516088
1783693649742296600,2.577296630859375,0.002779154572635889,0.007036400958895683,-0.00960836373269558
1783693649752258800,2.5872587890625,0.0023376024328172207,0.006055025849491358,-0.016026316210627556
1783693649762221800,2.597221923828125,0.006220757961273193,0.00014387350529432297,-0.019882306456565857
1783693649772183600,2.60718359375,0.006867365445941687,-0.005771283525973558,-0.021706556901335716
1783693649782146800,2.617146728515625,0.006350978743284941,-0.002209572121500969,-0.019367236644029617
1783693649792108800,2.62710888671875,0.0015477498527616262,-0.00048571417573839426,-0.015262708067893982
1783693649802071800,2.63707177734375,-0.001029124716296792,-0.002017298247665167,-0.016947157680988312
1783693649812033500,2.647033447265625,-0.003703632391989231,0.000913775060325861,-0.017461305484175682
1783693649821996800,2.656996826171875,-0.007404360920190811,0.00459479633718729,-0.016890855506062508
1783693649831958800,2.666958740234375,-0.008534478954970837,-0.0007408183300867677,-0.019291367381811142
1783693649841921800,2.676921875,-0.007206893526017666,-0.0051102666184306145,-0.02077368274331093
1783693649851883800,2.6868837890625,-0.005571243353188038,-0.0005962228169664741,-0.020772114396095276
1783693649861846800,2.6968466796875,-0.004259370267391205,-0.00036053312942385674,-0.018645314499735832
1783693649871808800,2.706808837890625,-0.0011378865456208587,-0.0052956473082304,-0.012760511599481106
1783693649881771800,2.716771728515625,-0.0002369391731917858,0.00018194247968494892,-0.002097215037792921
1783693649891733800,2.726733642578125,-0.001509469817392528,0.003546821651980281,0.013935797847807407
1783693649901696800,2.73669677734375,0.0013981694355607033,0.001009095460176468,0.019290084019303322
1783693649911658800,2.74665869140625,-0.004160349257290363,0.000593683507759124,0.02386932447552681
1783693649921621800,2.756621826171875,-0.007373985834419727,0.004804939962923527,0.0241249892860651
1783693649931583700,2.766583740234375,-0.008702671155333519,0.005934678949415684,0.021116051822900772
1783693649941546800,2.776546630859375,-0.009499755688011646,0.005586603656411171,0.011524679139256477
1783693649951508700,2.7865087890625,-0.010637487284839153,0.002734051551669836,-0.0006118136225268245
1783693649961471700,2.7964716796875,-0.009654248133301735,-0.0023352752905339003,-0.014695408754050732
1783693649971433700,2.806433837890625,-0.005315006244927645,-0.0019025200745090842,-0.02451537549495697
1783693649981396700,2.816396728515625,-0.006028999574482441,0.000520423986017704,-0.03383031487464905
1783693649991358700,2.826358642578125,-0.006295566447079182,-0.0009536152938380837,-0.041483741253614426
1783693650001321700,2.83632177734375,-0.007974423468112946,-0.0010574784828349948,-0.04127494990825653
1783693650011283700,2.84628369140625,-0.008275795727968216,0.00033827207516878843,-0.0390460230410099
1783693650021246700,2.856246826171875,-0.009817766025662422,-0.001093975966796279,-0.031590238213539124
1783693650031208700,2.866208740234375,-0.009768910706043243,0.0020757366437464952,-0.019834965467453003
1783693650041171700,2.876171630859375,-0.011354024522006512,0.008855345658957958,-0.007552466355264187
1783693650051133700,2.8861337890625,-0.012725292704999447,0.006154890172183514,0.000013590208254754543
1783693650061096700,2.8960966796875,-0.010687442496418953,-0.00352383591234684,-0.0013012123527005315
1783693650071058700,2.90605859375,-0.008404524065554142,0.0007268394692800939,0.007705911993980408
1783693650081021700,2.916021728515625,-0.005251341033726931,0.0021151453256607056,0.017911145463585854
1783693650090983700,2.925983642578125,-0.0023966352455317974,-0.003966968040913343,0.016606492921710014
1783693650100946700,2.93594677734375,0.0017270033713430166,-0.00847303681075573,0.013542791828513145
1783693650110908700,2.94590869140625,0.0029549000319093466,-0.005988884251564741,0.007467339746654034
1783693650120871700,2.95587158203125,0.005981849040836096,-0.006712731905281544,0.002015582984313369
1783693650130833700,2.965833740234375,0.008936382830142975,-0.006942532025277615,-0.0019531073048710823
1783693650140796700,2.975796630859375,0.011194211430847645,-0.003941681701689959,-0.005078859627246857
1783693650150758700,2.985758544921875,0.009119817987084389,0.004982300568372011,-0.0066733406856656075
1783693650160721700,2.9957216796875,0.00629953108727932,0.01730235107243061,-0.009136498905718327
1783693650170683600,3.00568359375,0.0012467862106859684,0.02603115141391754,-0.01637202687561512
1783693650180646700,3.015646728515625,-0.0021032041404396296,0.03572425618767738,-0.030438577756285667
1783693650190608600,3.025608642578125,-0.003718726569786668,0.045985158532857895,-0.04482610151171684
1783693650200571600,3.035571533203125,-0.001838801195845008,0.048621419817209244,-0.06029454246163368
1783693650210533600,3.04553369140625,0.003989069722592831,0.04831431806087494,-0.07491112500429153
1783693650220496600,3.05549658203125,0.011546322144567966,0.043418895453214645,-0.08824770152568817
1783693650230458600,3.065458740234375,0.02471337653696537,0.03965932875871658,-0.09574202448129654
1783693650240422000,3.075421875,0.034609418362379074,0.03264988958835602,-0.09197631478309631
1783693650250383600,3.085383544921875,0.040394462645053864,0.02617044374346733,-0.08428637683391571
1783693650260346600,3.0953466796875,0.04517297446727753,0.01827869936823845,-0.07439140230417252
1783693650270308600,3.10530859375,0.05321526154875755,0.012638081796467304,-0.05788256227970123
1783693650280272000,3.11527197265625,0.058696847409009933,0.016719108447432518,-0.03325710818171501
1783693650290233600,3.125233642578125,0.05899972841143608,0.020643046125769615,-0.007341090589761734
1783693650300196600,3.135196533203125,0.060351546853780746,0.011358733288943768,0.010812346823513508
1783693650310158800,3.145158935546875,0.057876117527484894,0.007032930850982666,0.022911135107278824
1783693650320121900,3.155121826171875,0.05731578916311264,0.00047516264021396637,0.03351530805230141
1783693650330083600,3.16508349609375,0.05888228118419647,-0.007326536811888218,0.04316815361380577
1783693650340046600,3.175046630859375,0.06261976063251495,-0.012686947360634804,0.049511536955833435
1783693650350008800,3.1850087890625,0.06915253400802612,-0.017389051616191864,0.060644179582595825
1783693650359971800,3.194971923828125,0.0759153664112091,-0.017337385565042496,0.07085952907800674
1783693650369933600,3.20493359375,0.0826394185423851,-0.015494471415877342,0.07685999572277069
1783693650379896600,3.214896484375,0.08306659013032913,-0.01096869446337223,0.08193065226078033
1783693650389858800,3.22485888671875,0.08371070772409439,-0.01053726114332676,0.08191084116697311
1783693650399821800,3.23482177734375,0.08110826462507248,-0.008623778820037842,0.07372694462537766
1783693650409783600,3.244783447265625,0.07523661851882935,-0.003565393388271332,0.05870445817708969
1783693650419746600,3.25474658203125,0.06535042822360992,-0.009583072736859322,0.03789611533284187
1783693650429708800,3.264708740234375,0.052981287240982056,-0.014495518058538437,0.017171522602438927
1783693650439671800,3.274671875,0.043665818870067596,-0.0124635249376297,0.006610490381717682
1783693650449633500,3.284633544921875,0.03159431368112564,-0.002692362992092967,0.0013076176401227713
1783693650459596500,3.294596435546875,0.016256636008620262,0.0002104826271533966,-0.00898310262709856
1783693650469558800,3.304558837890625,0.0006131824920885265,0.002744685858488083,-0.01810246892273426
1783693650479521800,3.314521728515625,-0.014518631622195244,0.011167199350893497,-0.021397331729531288
1783693650489483500,3.3244833984375,-0.023012550547719002,0.020100267603993416,-0.024122638627886772
1783693650499446500,3.334446533203125,-0.02601926028728485,0.021770069375634193,-0.02934855967760086
1783693650509408800,3.34440869140625,-0.02848978526890278,0.02590114250779152,-0.03549313172698021
1783693650519371800,3.354371826171875,-0.025086531415581703,0.02463880367577076,-0.04246954619884491
1783693650529333500,3.36433349609375,-0.023697299882769585,0.01797613501548767,-0.04309266433119774
1783693650539296500,3.374296630859375,-0.01698613353073597,0.015894342213869095,-0.04250011220574379
1783693650549258800,3.3842587890625,-0.009911663830280304,0.008164245635271072,-0.036426179111003876
1783693650559221800,3.3942216796875,-0.007340647280216217,-0.006973428186029196,-0.037813950330019
1783693650569183500,3.40418359375,-0.00574206467717886,-0.020974740386009216,-0.03431624919176102
1783693650579146500,3.414146484375,-0.006433154456317425,-0.02996637113392353,-0.027916405349969864
1783693650589108700,3.424108642578125,-0.006300012115389109,-0.030210603028535843,-0.016887957230210304
1783693650599071700,3.43407177734375,-0.008233733475208282,-0.031015142798423767,-0.002725532976910472
1783693650609033700,3.44403369140625,-0.01050567626953125,-0.025579899549484253,0.02363123930990696
1783693650618996700,3.453996826171875,-0.01384448166936636,-0.011753031983971596,0.053818438202142715
1783693650628958700,3.463958740234375,-0.022865602746605873,0.006837454624474049,0.07803591340780258
1783693650638921700,3.473921630859375,-0.03510495647788048,0.009246017783880234,0.08257340639829636
1783693650648883700,3.4838837890625,-0.04601465165615082,0.0020554782822728157,0.0722847655415535
1783693650658846700,3.4938466796875,-0.058821793645620346,0.00010444642975926399,0.0503176786005497
1783693650668808700,3.50380859375,-0.06814450025558472,0.006864897441118956,0.021933630108833313
1783693650678771700,3.513771728515625,-0.07604130357503891,0.004851813893765211,-0.00962003506720066
1783693650688733700,3.523733642578125,-0.07960060238838196,0.0007662784191779792,-0.043725039809942245
1783693650698696700,3.53369677734375,-0.07795104384422302,0.003098142333328724,-0.06544099003076553
1783693650708658700,3.54365869140625,-0.06945908069610596,0.012517739087343216,-0.06850980222225189
1783693650718621700,3.55362158203125,-0.06084747612476349,0.017572153359651566,-0.06348361819982529
1783693650728584000,3.563583984375,-0.048365816473960876,0.013161441311240196,-0.05592510849237442
1783693650738546700,3.573546630859375,-0.03696269169449806,0.01261549349874258,-0.04539337009191513
1783693650748508700,3.5835087890625,-0.031719062477350235,0.01387113519012928,-0.03797118365764618
1783693650758471700,3.5934716796875,-0.027198079973459244,0.00977599248290062,-0.033676039427518845
1783693650768434000,3.603433837890625,-0.019666485488414764,0.015646953135728836,-0.0270244050770998
1783693650778396700,3.613396728515625,-0.017878171056509018,0.02626817300915718,-0.01692117191851139
1783693650788358700,3.623358642578125,-0.012713623233139515,0.02277861349284649,-0.015948127955198288
1783693650798321700,3.63332177734375,-0.005457308609038591,0.0019068882102146745,-0.02089468389749527
1783693650808284000,3.643283935546875,0.00286069605499506,-0.018378151580691338,-0.026553727686405182
1783693650818246700,3.65324658203125,0.00932871550321579,-0.01966019719839096,-0.02733216993510723
1783693650828208600,3.663208740234375,0.01575663313269615,-0.01868360862135887,-0.028609061613678932
1783693650838171600,3.673171630859375,0.013971250504255295,-0.013454491272568703,-0.02931160479784012
1783693650848134000,3.6831337890625,0.011503526009619236,-0.013648953288793564,-0.028309645131230354
1783693650858096600,3.6930966796875,0.0014258581213653088,-0.026842519640922546,-0.037220582365989685
1783693650868058600,3.70305859375,-0.015409800224006176,-0.008845614269375801,-0.03352713584899902
1783693650878021600,3.713021728515625,-0.03618192300200462,0.03827928751707077,-0.02034076303243637
1783693650887983900,3.72298388671875,-0.047397591173648834,0.06234969198703766,-0.014776290394365788
1783693650897946600,3.732946533203125,-0.04828309267759323,0.04381915181875229,-0.025986865162849426
1783693650907908600,3.74290869140625,-0.041458968073129654,0.028626136481761932,-0.038647349923849106
1783693650917871600,3.75287158203125,-0.04703296720981598,0.04893673583865166,-0.03693440556526184
1783693650927833900,3.762833740234375,-0.047353148460388184,0.04505115747451782,-0.04894660413265228
1783693650937796600,3.772796630859375,-0.04709748551249504,0.0364329032599926,-0.0577174611389637
1783693650947758600,3.782758544921875,-0.04124416410923004,0.04310387372970581,-0.06110561266541481
1783693650957721600,3.7927216796875,-0.03125597909092903,0.04761952906847,-0.058556701987981796
1783693650967683800,3.802683837890625,-0.01195179857313633,0.0380806066095829,-0.04734557867050171
1783693650977645600,3.8126455078125,0.003156314603984356,0.035217177122831345,-0.024855179712176323
1783693650987608600,3.822608642578125,0.015136783011257648,0.03520096838474274,0.005101007409393787
1783693650997570800,3.83257080078125,0.026698363944888115,0.02221858873963356,0.02710910513997078
1783693651007533800,3.842533935546875,0.034464314579963684,0.010132844559848309,0.049491677433252335
1783693651017495600,3.85249560546875,0.03854907304048538,0.01074403990060091,0.06854073703289032
1783693651027458600,3.86245849609375,0.04371258616447449,0.004775118548423052,0.08621279895305634
1783693651037420800,3.8724208984375,0.04665351286530495,-0.009518066421151161,0.08357919752597809
1783693651047383800,3.8823837890625,0.04350768402218819,-0.006486854515969753,0.08458177000284195
1783693651057345500,3.892345458984375,0.03752276301383972,0.009636455215513706,0.08901539444923401
1783693651067308500,3.90230859375,0.03236333280801773,0.011714551597833633,0.07706456631422043
1783693651077270800,3.912270751953125,0.03596952185034752,-0.003849760629236698,0.061590272933244705
1783693651087233800,3.92223388671875,0.03893035277724266,-0.008996609598398209,0.04787684231996536
1783693651097195500,3.932195556640625,0.037809163331985474,0.0016363272443413734,0.040723592042922974
1783693651107158800,3.94215869140625,0.02992975153028965,0.007853444665670395,0.03476519510149956
1783693651117120800,3.952120849609375,0.019894694909453392,0.017784904688596725,0.021190796047449112
1783693651127083800,3.962083740234375,0.013853664509952068,0.019952761009335518,0.0024881968274712563
1783693651137045500,3.97204541015625,0.009502059780061245,0.006795148365199566,-0.020427506417036057
1783693651147008800,3.9820087890625,0.00849437527358532,-0.006790697108954191,-0.040103692561388016
1783693651156970800,3.991970703125,0.01006137952208519,-0.00666366470977664,-0.048512622714042664
1783693651166933800,4.001933837890625,0.00711365882307291,-0.005692980717867613,-0.05113748088479042
1783693651176895700,4.011895751953125,0.006262246519327164,-0.004403211642056704,-0.0501643605530262
1783693651186858800,4.021858642578125,0.0032764305360615253,0.0034922799095511436,-0.03920537605881691
1783693651196820700,4.03182080078125,-0.0016778481658548117,-0.010905301198363304,-0.038446374237537384
1783693651206783700,4.04178369140625,-0.00806618295609951,-0.023540664464235306,-0.0390109159052372
1783693651216745700,4.051745849609375,-0.014174941927194595,-0.031107772141695023,-0.034057438373565674
1783693651226708700,4.061708740234375,-0.01727735623717308,-0.02769465185701847,-0.018021870404481888
1783693651236670700,4.071670654296875,-0.016506370157003403,-0.018017256632447243,-0.0007709795609116554
1783693651246633700,4.0816337890625,-0.012801902368664742,-0.011555686593055725,0.021505974233150482
1783693651256595700,4.091595703125,-0.0077837081626057625,-0.0075995600782334805,0.03935021907091141
1783693651266558700,4.101558837890625,-0.0024438370019197464,-0.001134976395405829,0.051850732415914536
1783693651276520700,4.111520751953125,0.006706518586724997,-0.0062964484095573425,0.05380576103925705
1783693651286483700,4.121483642578125,0.014787614345550537,-0.00527326250448823,0.04693374037742615
1783693651296445700,4.13144580078125,0.028082380071282387,-0.00842111837118864,0.035970304161310196
1783693651306408700,4.14140869140625,0.04431538283824921,-0.01452265027910471,0.021914029493927956
1783693651316370700,4.15137060546875,0.058999523520469666,-0.015263275243341923,0.00399175425991416
1783693651326333700,4.161333740234375,0.07305312901735306,-0.016052905470132828,-0.010745003819465637
1783693651336295700,4.171295654296875,0.08368899673223495,-0.015335449948906898,-0.023587564006447792
1783693651346258700,4.1812587890625,0.0872386023402214,-0.00946479570120573,-0.03289885073900223
1783693651356220700,4.191220703125,0.0883994773030281,-0.0024556214921176434,-0.03699106350541115
1783693651366183700,4.20118359375,0.08253306895494461,0.005340516101568937,-0.03628852218389511
1783693651376145700,4.211145751953125,0.0733662024140358,0.005602571181952953,-0.03882491588592529
1783693651386108700,4.221108642578125,0.05859975889325142,0.006661966443061829,-0.040234778076410294
1783693651396070700,4.231070556640625,0.04650288447737694,0.009765081107616425,-0.03829466551542282
1783693651406033700,4.24103369140625,0.03279829025268555,0.010334971360862255,-0.04195508733391762
1783693651415995600,4.25099560546875,0.02271130308508873,-0.00015681784134358168,-0.04641588032245636
1783693651425958700,4.260958740234375,0.017835883423686028,-0.007130531128495932,-0.04260815680027008
1783693651435920600,4.270920654296875,0.017024151980876923,-0.006438108626753092,-0.03536995127797127
1783693651445883600,4.280883544921875,0.016254188492894173,-0.004459897056221962,-0.025307010859251022
1783693651455845600,4.290845703125,0.01311006210744381,-0.0024462807923555374,-0.01045962329953909
1783693651465808600,4.30080859375,0.008331320248544216,-0.001595426700077951,0.003703430527821183
1783693651475770600,4.3107705078125,0.0020268189255148172,0.004282169509679079,0.016935080289840698
1783693651485734100,4.320734130859375,-0.0037192520685493946,0.0019274285295978189,0.016510475426912308
1783693651495696400,4.3306962890625,-0.009479402564466,-0.0037413761019706726,0.009166542440652847
1783693651505659400,4.340659423828125,-0.014074483886361122,-0.004557915031909943,0.005587490741163492
1783693651515621000,4.35062109375,-0.016916343942284584,-0.0011895489878952503,0.005678038112819195
1783693651525584100,4.360584228515625,-0.02175378054380417,0.0015553468838334084,0.009341202676296234
1783693651535546400,4.37054638671875,-0.025050241500139236,-0.0009488235227763653,0.007166464813053608
1783693651545509400,4.38050927734375,-0.026020275428891182,0.0026291252579540014,0.006790599320083857
1783693651555471000,4.39047119140625,-0.03034045547246933,0.005913868080824614,0.006738401483744383
1783693651565434000,4.40043408203125,-0.029200349003076553,0.004165246617048979,0.007163958624005318
1783693651575396400,4.410396240234375,-0.02810126356780529,0.0038051875308156013,0.008157317526638508
1783693651585359400,4.420359375,-0.027988813817501068,0.0021353994961827993,0.012690315023064613
1783693651595321000,4.430321044921875,-0.029344629496335983,0.0037364917807281017,0.01903822459280491
1783693651605284000,4.4402841796875,-0.029295949265360832,0.0003734482452273369,0.021045135334134102
1783693651615246300,4.450246337890625,-0.028904730454087257,-0.0022106170654296875,0.021115442737936974
1783693651625209300,4.460209228515625,-0.02722044475376606,0.0017289951210841537,0.022259380668401718
1783693651635171000,4.470171142578125,-0.023334892466664314,0.0029242218006402254,0.020606357604265213
1783693651645134300,4.48013427734375,-0.018598774448037148,0.0062563749961555,0.022021496668457985
1783693651655096300,4.490096435546875,-0.011404245160520077,0.01135499682277441,0.022303791716694832
1783693651665059300,4.500059326171875,-0.007245557848364115,0.007815391756594181,0.018035434186458588
1783693651675021000,4.51002099609375,-0.0036923682782799006,-0.0013602635590359569,0.007939391769468784
1783693651684984300,4.519984375,-0.0011911910260096192,-0.012124774977564812,-0.0005151100922375917
1783693651694946300,4.5299462890625,-0.00021940353326499462,-0.009057878516614437,-0.002280786167830229
1783693651704909300,4.539909423828125,0.002482920652255416,-0.0015469451900571585,-0.0017849380383267999
1783693651714871300,4.549871337890625,0.006310149561613798,0.004593239165842533,-0.0016600358067080379
1783693651724834300,4.559834228515625,0.014662711881101131,0.0037362114526331425,-0.0054327938705682755
1783693651734796300,4.56979638671875,0.018916578963398933,0.0002469378523528576,-0.009631799533963203
1783693651744759300,4.57975927734375,0.020378781482577324,0.0029985441360622644,-0.009498581290245056
1783693651754721300,4.58972119140625,0.023411322385072708,0.003902421100065112,-0.003884637728333473
1783693651764684300,4.599684326171875,0.020940545946359634,0.004746108315885067,-0.0004216191591694951
1783693651774646300,4.609646240234375,0.017510928213596344,0.006036409642547369,0.006850941106677055
1783693651784609300,4.619609375,0.01490823458880186,0.007386119570583105,0.009875193238258362
1783693651794571500,4.629571533203125,0.008586157113313675,0.008549921214580536,0.014749842695891857
1783693651804534300,4.6395341796875,0.006080029997974634,0.008162111043930054,0.018647681921720505
1783693651814496300,4.649496337890625,0.0007190868491306901,0.0046813590452075005,0.01964476704597473
1783693651824459300,4.659459228515625,-0.0011792973382398486,0.006495536770671606,0.02388649433851242
1783693651834421500,4.66942138671875,-0.0035042371600866318,0.01483735628426075,0.03532370552420616
1783693651844384300,4.67938427734375,-0.005916255060583353,0.01516253873705864,0.0394984595477581
1783693651854346200,4.68934619140625,-0.008612439036369324,0.00717678340151906,0.037104275077581406
1783693651864309200,4.699309326171875,-0.0135382991284132,0.004941291641443968,0.02895660512149334
1783693651874271500,4.709271484375,-0.01582595519721508,0.0030906612519174814,0.01589220203459263
1783693651884234200,4.719234130859375,-0.013652734458446503,-0.0011400693329051137,0.002600256586447358
1783693651894196200,4.7291962890625,-0.009469972923398018,-0.0007371330866590142,-0.004318635910749435
1783693651904159200,4.7391591796875,-0.004691503942012787,0.001324436510913074,-0.0039847539737820625
1783693651914121500,4.74912158203125,0.0019807799253612757,-0.004900702275335789,-0.0032220245338976383
1783693651924084200,4.759084228515625,0.005586140789091587,-0.004464706405997276,0.0004823206691071391
1783693651934046200,4.769046142578125,0.006428765133023262,-0.00013893400318920612,0.00649307481944561
1783693651944008400,4.779008544921875,0.007106055971235037,0.003449935931712389,0.011977119371294975
1783693651953971500,4.788971435546875,0.008739106357097626,0.008113663643598557,0.018904533237218857
1783693651963934200,4.798934326171875,0.01030402909964323,0.005822806153446436,0.017675016075372696
1783693651973896200,4.808896240234375,0.015242328867316246,-0.001019387156702578,0.012528456747531891
1783693651983858400,4.8188583984375,0.01655404083430767,-0.0008476153016090393,0.006787057965993881
1783693651993821400,4.828821533203125,0.022821256890892982,0.0012466947082430124,0.0015068084467202425
1783693652003783200,4.838783203125,0.02326195314526558,-0.00030779652297496796,-0.010945647023618221
1783693652013746200,4.84874609375,0.022498158738017082,-0.004767792299389839,-0.02234344370663166
1783693652023708400,4.85870849609375,0.020385149866342545,-0.0002473468193784356,-0.025563783943653107
1783693652033671400,4.86867138671875,0.016596803441643715,0.005797229707241058,-0.027978472411632538
1783693652043633200,4.878633056640625,0.014784564264118671,0.0037329974584281445,-0.031012533232569695
1783693652053596200,4.88859619140625,0.012194906361401081,0.0036259382031857967,-0.027705952525138855
1783693652063558400,4.898558349609375,0.006395966280251741,0.0022944121155887842,-0.01873299852013588
1783693652073521400,4.908521484375,0.0026238649152219296,0.0068521457724273205,-0.010048963129520416
1783693652083483100,4.918483154296875,-0.0014488310553133488,0.006818814668804407,-0.00262522604316473
1783693652093446100,4.928446044921875,-0.0052353134378790855,0.0032842669170349836,0.0018044095486402512
1783693652103408400,4.938408447265625,-0.003683467861264944,-0.001034284825436771,0.005740512628108263
1783693652113371400,4.948371337890625,-0.005333296023309231,-0.004644465632736683,0.00913284718990326
1783693652123333000,4.9583330078125,-0.004383867606520653,-0.0044780755415558815,0.012572463601827621
1783693652133296000,4.968296142578125,-0.004172679036855698,-0.003587514627724886,0.013142911717295647
1783693652143258400,4.97825830078125,-0.0018516136333346367,-0.0021605738438665867,0.015263133682310581
1783693652153221400,4.988221435546875,-0.001376772066578269,-0.005536130629479885,0.018977709114551544
1783693652163183000,4.99818310546875,-0.0019180442905053496,-0.011179044842720032,0.019659224897623062
1783693652173146400,5.008146484375,-0.002037087455391884,-0.013452584855258465,0.02314423769712448
1783693652183108400,5.0181083984375,-0.000020570456399582326,-0.014983143657445908,0.02450571022927761
1783693652193071400,5.0280712890625,-0.0026584314182400703,-0.016959741711616516,0.027541980147361755
1783693652203033000,5.038033203125,-0.004958190955221653,-0.013592459261417389,0.029865777119994164
1783693652212996400,5.047996337890625,-0.009411262348294258,-0.01576426811516285,0.023727191612124443
1783693652222958300,5.057958251953125,-0.011545820161700249,-0.015416431240737438,0.022967562079429626
1783693652232921300,5.06792138671875,-0.016999175772070885,-0.010143106803297997,0.025018995627760887
1783693652242883300,5.07788330078125,-0.022077936679124832,-0.007321228738874197,0.026403745636343956
1783693652252846300,5.087846435546875,-0.02386305294930935,-0.011525295674800873,0.025451932102441788
1783693652262808300,5.097808349609375,-0.019284427165985107,-0.012710915878415108,0.024798734113574028
1783693652272771300,5.107771240234375,-0.0110810911282897,-0.014218797907233238,0.024652261286973953
1783693652282733300,5.1177333984375,-0.007654563523828983,-0.019143518060445786,0.021524222567677498
1783693652292696300,5.1276962890625,-0.0043336013332009315,-0.02132704295217991,0.017351048067212105
1783693652302658300,5.137658203125,-0.003422267735004425,-0.021957414224743843,0.01236481312662363
1783693652312621300,5.147621337890625,-0.0019681816920638084,-0.016075288876891136,0.0067809633910655975
1783693652322583300,5.157583251953125,0.00004326185444369912,-0.008214155212044716,0.004019984044134617
1783693652332546300,5.16754638671875,0.003350375220179558,-0.012915699742734432,-0.0019684000872075558
1783693652342508300,5.17750830078125,0.008418614976108074,-0.02198006585240364,-0.007828103378415108
1783693652352471300,5.18747119140625,0.011811749078333378,-0.017504090443253517,-0.00712236575782299
1783693652362433300,5.197433349609375,0.007014968432486057,-0.01475677452981472,0.002461661584675312
1783693652372396300,5.207396240234375,0.005127585958689451,-0.013149823993444443,0.013965185731649399
1783693652382358300,5.217358154296875,-0.0024388895835727453,-0.008445627987384796,0.02374150976538658
1783693652392321300,5.2273212890625,-0.00450550252571702,-0.007381695322692394,0.028207629919052124
1783693652402283300,5.237283203125,-0.007360269781202078,-0.012836599722504616,0.027991676703095436
1783693652412246300,5.247246337890625,-0.007790370378643274,-0.015027315355837345,0.019315630197525024
1783693652422208300,5.257208251953125,-0.011215434409677982,-0.015319501981139183,0.01174117997288704
1783693652432171300,5.267171142578125,-0.014922820962965488,-0.013509617187082767,0.008512895554304123
1783693652442133200,5.27713330078125,-0.019057951867580414,-0.009368650615215302,0.01185108907520771
1783693652452096300,5.28709619140625,-0.019137846305966377,-0.005299341399222612,0.015897762030363083
1783693652462058200,5.297058349609375,-0.017691457644104958,-0.007961473427712917,0.019847607240080833
1783693652472021200,5.307021240234375,-0.015867991372942924,-0.00897134467959404,0.020330172032117844
1783693652481983700,5.316983642578125,-0.016946829855442047,-0.008687174879014492,0.02286815084517002
1783693652491946800,5.32694677734375,-0.01474200002849102,-0.011543948203325272,0.01984626054763794
1783693652501908700,5.33690869140625,-0.012420604936778545,-0.013054193928837776,0.018149135634303093
1783693652511871500,5.34687158203125,-0.009421086870133877,-0.01009622123092413,0.019084971398115158
1783693652521833700,5.356833740234375,-0.006610311567783356,-0.005446384195238352,0.027369173243641853
1783693652531796700,5.366796630859375,-0.005504300817847252,-0.0008518988033756614,0.03396262601017952
1783693652541758700,5.3767587890625,0.00011414385517127812,-0.004241000860929489,0.03317129239439964
1783693652551721500,5.386721435546875,0.0038396399468183517,-0.0120651014149189,0.02593228593468666
1783693652561683700,5.39668359375,0.005273099988698959,-0.016108332201838493,0.02574871852993965
1783693652571646700,5.406646728515625,0.005356457084417343,-0.014594590291380882,0.028831060975790024
1783693652581608700,5.416608642578125,0.009451067075133324,-0.01073513738811016,0.03305483236908913
1783693652591571500,5.426571533203125,0.0065948269329965115,-0.0023917201906442642,0.040200360119342804
1783693652601533700,5.43653369140625,0.0028897731099277735,0.004346329718828201,0.04828222468495369
1783693652611496700,5.44649658203125,-0.0005792604060843587,0.011083594523370266,0.05088493227958679
1783693652621458700,5.456458740234375,-0.002916049910709262,0.014374234713613987,0.050283633172512054
1783693652631421400,5.46642138671875,-0.002511249389499426,0.017698924988508224,0.04509606212377548
1783693652641383700,5.4763837890625,0.002161188516765833,0.018147367984056473,0.039958562701940536
1783693652651346700,5.4863466796875,0.004240850917994976,0.013508406467735767,0.029952801764011383
1783693652661308700,5.49630859375,0.008552313782274723,0.004805220756679773,0.020977428182959557
1783693652671271700,5.506271728515625,0.009692945517599583,-0.0033102300949394703,0.011247304268181324
1783693652681233700,5.516233642578125,0.014193428680300713,-0.013990295119583607,0.0065113878808915615
1783693652691195600,5.526195556640625,0.017170574516057968,-0.024550527334213257,0.004279392771422863
1783693652701158700,5.53615869140625,0.01785283535718918,-0.0316997691988945,0.012617403641343117
1783693652711120600,5.54612060546875,0.018436601385474205,-0.0363248810172081,0.0242554172873497
1783693652721083600,5.556083740234375,0.009470767341554165,-0.03120287135243416,0.04593949019908905
1783693652731045600,5.566045654296875,0.00227250880561769,-0.019521979615092278,0.0654093325138092
1783693652741008600,5.576008544921875,-0.007467083632946014,-0.01690167933702469,0.07950897514820099
1783693652750970600,5.585970703125,-0.01581689342856407,-0.02094835229218006,0.09011288732290268
1783693652760933600,5.59593359375,-0.021453935652971268,-0.02581658773124218,0.09697826206684113
1783693652770895600,5.6058955078125,-0.022171391174197197,-0.0409872829914093,0.09424959123134613
1783693652780859000,5.61585888671875,-0.02683170884847641,-0.04577412083745003,0.09606651216745377
1783693652790820600,5.625820556640625,-0.02160365879535675,-0.050148628652095795,0.09270107746124268
1783693652800783600,5.63578369140625,-0.021497270092368126,-0.06051122397184372,0.08497051149606705
1783693652810745600,5.64574560546875,-0.023881064727902412,-0.05824780464172363,0.0796673595905304
1783693652820708900,5.655708984375,-0.02845272235572338,-0.04520200192928314,0.06801638752222061
1783693652830670600,5.665670654296875,-0.037030767649412155,-0.031137850135564804,0.05652058497071266
1783693652840633600,5.675633544921875,-0.050488948822021484,-0.01784895360469818,0.04989476874470711
1783693652850595800,5.685595947265625,-0.05534442514181137,-0.01748436689376831,0.03889830783009529
1783693652860558800,5.695558837890625,-0.054763250052928925,-0.022239217534661293,0.028168074786663055
1783693652870520600,5.7055205078125,-0.04991443082690239,-0.03040659986436367,0.01849973574280739
1783693652880483600,5.715483642578125,-0.04197439178824425,-0.04048740863800049,0.008876102045178413
1783693652890445800,5.72544580078125,-0.03006180375814438,-0.03848763927817345,0.0075051067396998405
1783693652900408800,5.735408935546875,-0.022590741515159607,-0.030187644064426422,0.00790577195584774
1783693652910370600,5.74537060546875,-0.01923542469739914,-0.021437296643853188,0.015533331781625748
1783693652920333600,5.75533349609375,-0.021176932379603386,-0.01636851578950882,0.019720589742064476
1783693652930295800,5.7652958984375,-0.027175702154636383,-0.009421393275260925,0.02449883334338665
1783693652940258800,5.7752587890625,-0.028487324714660645,-0.004792041145265102,0.02793753892183304
1783693652950220500,5.785220458984375,-0.03134942427277565,0.0009151127305813134,0.023940665647387505
1783693652960183600,5.79518359375,-0.03382682055234909,-0.004958707373589277,0.01687905751168728
1783693652970145800,5.805145751953125,-0.031857412308454514,-0.011883191764354706,0.013626005500555038
1783693652980108800,5.81510888671875,-0.031222699210047722,-0.015322163701057434,0.015315408818423748
1783693652990070500,5.825070556640625,-0.026679879054427147,-0.014469953253865242,0.01595722883939743
1783693653000033500,5.835033447265625,-0.02104865573346615,-0.012947464361786842,0.017546935006976128
1783693653009995800,5.844995849609375,-0.01491858996450901,-0.004164624959230423,0.020341655239462852
1783693653019958800,5.854958740234375,-0.00741908373311162,0.005847057327628136,0.015416575595736504
1783693653029920500,5.86492041015625,0.004742774181067944,0.00728889275342226,0.001215802039951086
1783693653039883500,5.874883544921875,0.014325457625091076,0.007745878770947456,-0.00854349136352539
1783693653049845800,5.884845703125,0.019452042877674103,0.0140924584120512,-0.01703205145895481
1783693653059808800,5.894808837890625,0.023432781919836998,0.022816183045506477,-0.021834969520568848
1783693653069770500,5.9047705078125,0.023528123274445534,0.025406906381249428,-0.02636900171637535
1783693653079733500,5.9147333984375,0.024340547621250153,0.022943750023841858,-0.026904672384262085
1783693653089695700,5.92469580078125,0.029414135962724686,0.017971096560359,-0.025836745277047157
1783693653099658800,5.93465869140625,0.034842878580093384,0.01018400490283966,-0.023389659821987152
1783693653109620500,5.944620361328125,0.03282686695456505,0.004476850852370262,-0.016594870015978813
1783693653119583500,5.95458349609375,0.025416620075702667,0.0048816511407494545,-0.010838447138667107
1783693653129545700,5.964545654296875,0.017462290823459625,0.008384240791201591,-0.0020364338997751474
1783693653139508700,5.9745087890625,0.008945144712924957,0.01360858604311943,0.0016793317627161741
1783693653149470500,5.984470458984375,0.0039109704084694386,0.014641625806689262,0.0038375575095415115
1783693653159433700,5.994433837890625,-0.00038394564762711525,0.005915727932006121,-0.0005461900727823377
1783693653169395700,6.004395751953125,-0.003784802509471774,-0.0010404485510662198,0.000033580115996301174
1783693653179358700,6.014358642578125,-0.006050590425729752,0.011883912608027458,0.00985445361584425
1783693653189320400,6.024320556640625,-0.010481557808816433,0.01972692273557186,0.02661718986928463
1783693653199283700,6.03428369140625,-0.01253243163228035,0.009496618993580341,0.03068101778626442
1783693653209245700,6.04424560546875,-0.013020321726799011,0.006654226686805487,0.02714034542441368
1783693653219208700,6.054208740234375,-0.019968831911683083,0.006651368923485279,0.021143745630979538
1783693653229170700,6.064170654296875,-0.026942318305373192,0.006633525714278221,0.008272156119346619
1783693653239133700,6.0741337890625,-0.0317155160009861,0.009106784127652645,0.003443080000579357
1783693653249095700,6.084095703125,-0.03038686513900757,0.017189476639032364,0.001875543501228094
1783693653259058700,6.09405859375,-0.027768023312091827,0.023574931547045708,0.0012887560296803713
1783693653269020700,6.104020751953125,-0.02489926666021347,0.02865011617541313,0.002680257661268115
1783693653278983700,6.113983642578125,-0.020340319722890854,0.025804512202739716,0.0023115994408726692
1783693653288945700,6.123945556640625,-0.016902444884181023,0.01590660773217678,-0.0009606264065951109
1783693653298908700,6.13390869140625,-0.011463101021945477,0.004408673848956823,-0.0012358876410871744
1783693653308870700,6.14387060546875,-0.006918416824191809,0.002164161764085293,0.003132761688902974
1783693653318833700,6.153833740234375,-0.0024725773837417364,0.0069554708898067474,0.007395337801426649
1783693653328795600,6.163795654296875,0.0012515871785581112,0.002251795493066311,0.009483788162469864
1783693653338758700,6.173758544921875,0.002914135344326496,0.005229196045547724,0.019895918667316437
1783693653348720600,6.183720703125,0.004521885886788368,0.014260773546993732,0.022903958335518837
1783693653358683600,6.19368359375,0.0017590734641999006,0.015034961514174938,0.01932593807578087
1783693653368645600,6.203645751953125,-0.004295889288187027,0.017434468492865562,0.01770247519016266
1783693653378607900,6.21360791015625,-0.012649966403841972,0.021933868527412415,0.011184671893715858
1783693653388570600,6.223570556640625,-0.021817900240421295,0.024398893117904663,0.004070837050676346
1783693653398532600,6.23353271484375,-0.03075804002583027,0.02401058003306389,-0.002759230323135853
1783693653408495600,6.24349560546875,-0.03150026127696037,0.02047363668680191,-0.005590170156210661
1783693653418457900,6.253457763671875,-0.030714532360434532,0.021916868165135384,-0.0032162810675799847
1783693653428420900,6.2634208984375,-0.03131454065442085,0.02936413139104843,-0.0029313229024410248
1783693653438382600,6.273382568359375,-0.029933979734778404,0.03444727510213852,-0.0031443252228200436
1783693653448345600,6.283345703125,-0.02798987179994583,0.03842870146036148,-0.008231229148805141
1783693653458307800,6.293307861328125,-0.02634386345744133,0.03336925059556961,-0.01642272248864174
1783693653468270800,6.303270751953125,-0.02575051225721836,0.026126518845558167,-0.023859599605202675
1783693653478232600,6.313232666015625,-0.020379630848765373,0.02292989380657673,-0.02825445681810379
1783693653488195600,6.323195556640625,-0.01662137731909752,0.020856890827417374,-0.023295383900403976
1783693653498157600,6.333157470703125,-0.011807167902588844,0.014535363763570786,-0.018415706232190132
1783693653508120600,6.34312060546875,-0.0070526255294680595,0.010098803788423538,-0.009006491862237453
1783693653518082600,6.35308251953125,-0.006100860890001059,0.01545069832354784,0.006297832354903221
1783693653528045600,6.363045654296875,-0.010209319181740284,0.0242665596306324,0.022940458729863167
1783693653538007600,6.373007568359375,-0.0097249960526824,0.025267377495765686,0.033785536885261536
1783693653547970600,6.382970458984375,-0.010520747862756252,0.01734287664294243,0.03984289988875389
1783693653557932500,6.3929326171875,-0.012685708701610565,0.007770642172545195,0.04525604471564293
1783693653567895600,6.4028955078125,-0.011750672943890095,0.009012741036713123,0.049862246960401535
1783693653577857500,6.412857421875,-0.013519425876438618,0.008789319545030594,0.05436093360185623
1783693653587820500,6.422820556640625,-0.010613118298351765,0.0033106645569205284,0.05208073556423187
1783693653597782500,6.432782470703125,-0.011581619270145893,0.010965898633003235,0.0507919117808342
1783693653607745500,6.44274560546875,-0.014376340433955193,0.01364690251648426,0.04146178811788559
1783693653617707500,6.45270751953125,-0.014835364185273647,0.010825548321008682,0.021993927657604218
1783693653627670500,6.46267041015625,-0.0165078304708004,0.005835317075252533,-0.002200092189013958
1783693653637632500,6.472632568359375,-0.021502994000911713,0.003547157160937786,-0.021307148039340973
1783693653647595500,6.482595458984375,-0.02202257513999939,0.0017963950522243977,-0.03809544816613197
1783693653657557500,6.4925576171875,-0.014979728497564793,0.0037690161261707544,-0.04551813378930092
1783693653667520500,6.5025205078125,-0.018873535096645355,0.0031402437016367912,-0.04300464317202568
1783693653677482500,6.512482421875,-0.015475603751838207,-0.00449004489928484,-0.03326050564646721
1783693653687445800,6.52244580078125,-0.005945481359958649,-0.022258656099438667,-0.02111196517944336
1783693653697407500,6.532407470703125,-0.009282666258513927,-0.025710348039865494,-0.0011375071480870247
1783693653707370500,6.54237060546875,-0.014693143777549267,-0.012423038482666016,0.014253700152039528
1783693653717332500,6.55233251953125,-0.02081538736820221,-0.008051738142967224,0.026270274072885513
1783693653727295700,6.562295654296875,-0.024707330390810966,-0.006206167861819267,0.04508630558848381
1783693653737257500,6.572257568359375,-0.024802012369036674,-0.008643465116620064,0.06058010831475258
1783693653747220500,6.582220458984375,-0.02061552368104458,-0.01316764298826456,0.06708727031946182
1783693653757182700,6.5921826171875,-0.01745292916893959,-0.012934371829032898,0.06730499863624573
1783693653767145700,6.602145751953125,-0.014274712651968002,-0.019709454849362373,0.05593542754650116
1783693653777107500,6.612107421875,-0.00877169705927372,-0.02322506532073021,0.03606511279940605
1783693653787070500,6.622070556640625,-0.0009609111002646387,-0.02749038301408291,0.019461102783679962
1783693653797032700,6.63203271484375,0.006873772479593754,-0.02690051682293415,0.0021745096892118454
1783693653806995700,6.64199560546875,0.014551132917404175,-0.02256675623357296,-0.009631283581256866
1783693653816957400,6.65195751953125,0.019379297271370888,-0.01259639486670494,-0.01830964908003807
1783693653826920400,6.66192041015625,0.020218724384903908,-0.0052479337900877,-0.030731696635484695
1783693653836882700,6.671882568359375,0.019471021369099617,-0.005686016287654638,-0.04593053087592125
1783693653846845700,6.681845703125,0.01893838867545128,-0.004229533486068249,-0.05437594652175903
1783693653856807400,6.691807373046875,0.0182819701731205,-0.0006979214958846569,-0.05518895015120506
1783693653866770400,6.7017705078125,0.019710490480065346,0.0024118516594171524,-0.046408239752054214
1783693653876732700,6.711732666015625,0.02523750811815262,-0.004376277327537537,-0.03694906458258629
1783693653886695700,6.72169580078125,0.027808258309960365,-0.006896161008626223,-0.02030111476778984
1783693653896657400,6.731657470703125,0.03183412924408913,-0.002764306263998151,-0.0006029783980920911
1783693653906620400,6.741620361328125,0.03383176773786545,-0.004960082471370697,0.010861131362617016
1783693653916582700,6.751582763671875,0.03314821794629097,-0.006906010676175356,0.020458878949284554
1783693653926545700,6.761545654296875,0.029637638479471207,-0.004635132849216461,0.02759641781449318
1783693653936507400,6.77150732421875,0.020796742290258408,0.0021532645914703608,0.03204256296157837
1783693653946469600,6.7814697265625,0.012323098257184029,0.006280897650867701,0.03296135365962982
1783693653956432600,6.7914326171875,0.006706455256789923,0.007138727232813835,0.029960939660668373
1783693653966394600,6.80139453125,0.002345528919249773,0.005291026085615158,0.02475872077047825
1783693653976357600,6.811357666015625,0.0012256201589480042,0.0020466940477490425,0.014020172879099846
1783693653986319600,6.821319580078125,-0.00009157936437986791,-0.0025081101339310408,0.006105524487793446
1783693653996282600,6.83128271484375,0.0026265347842127085,0.000212895218282938,0.0023949062451720238
1783693654006244600,6.84124462890625,0.006995184347033501,0.0013364828191697598,-0.003347401972860098
1783693654016207600,6.85120751953125,0.013063449412584305,0.0022153062745928764,-0.009723774157464504
1783693654026169600,6.861169677734375,0.021791961044073105,-0.00331314979121089,-0.013259387575089931
1783693654036132600,6.871132568359375,0.024594565853476524,-0.002569593256339431,-0.008403223007917404
1783693654046094600,6.881094482421875,0.021477866917848587,0.0017127699684351683,-0.0005311851855367422
1783693654056057600,6.8910576171875,0.019715597853064537,0.006083279848098755,0.007884090766310692
1783693654066019600,6.90101953125,0.014719774015247822,0.012460218742489815,0.016800086945295334
1783693654075982600,6.910982666015625,0.010860061272978783,0.010848216712474823,0.020382823422551155
1783693654085944600,6.920944580078125,0.006964922416955233,0.008560827933251858,0.015458903275430202
1783693654095907600,6.930907470703125,0.0032747688237577677,0.004516251385211945,0.0029724091291427612
1783693654105869600,6.94086962890625,0.002118956996127963,0.0009433544473722577,-0.01445265393704176
1783693654115832600,6.95083251953125,0.004403445404022932,-0.0018896762048825622,-0.029670819640159607
1783693654125794600,6.960794677734375,0.0058836303651332855,-0.0002904480788856745,-0.03920254111289978
1783693654135757600,6.970757568359375,0.01246877945959568,0.0043282778933644295,-0.03730829805135727
1783693654145719600,6.980719482421875,0.016209987923502922,0.012072217650711536,-0.027934502810239792
1783693654155682600,6.9906826171875,0.017933733761310577,0.01283359806984663,-0.021840203553438187
1783693654165644500,7.00064453125,0.01770550012588501,0.00841354951262474,-0.02191450446844101
1783693654175607800,7.01060791015625,0.01683959551155567,0.0006632101722061634,-0.026448097079992294
1783693654185569500,7.020569580078125,0.014046737924218178,-0.0027935728430747986,-0.02455272525548935
1783693654195532500,7.030532470703125,0.00958704948425293,-0.008263988420367241,-0.023592842742800713
1783693654205494500,7.04049462890625,0.004233562853187323,-0.004820254631340504,-0.014294415712356567
1783693654215457800,7.050457763671875,-0.0029275575652718544,-0.004432213492691517,-0.002696271985769272
1783693654225419500,7.06041943359375,-0.008995569311082363,-0.0043406011536717415,0.008689274080097675
1783693654235382500,7.070382568359375,-0.015601526945829391,-0.00267264386638999,0.013835000805556774
1783693654245344500,7.080344482421875,-0.020253537222743034,-0.0015692960005253553,0.016746370121836662
1783693654255307800,7.090307861328125,-0.0220633577555418,-0.0013748717028647661,0.013752472586929798
1783693654265269500,7.10026953125,-0.024627981707453728,-0.0015823319554328918,0.007875142619013786
1783693654275232500,7.110232421875,-0.02443385310471058,-0.005945674609392881,-0.00114761374425143
1783693654285194800,7.12019482421875,-0.025688467547297478,-0.008439724333584309,-0.009580779820680618
1783693654295157800,7.13015771484375,-0.023496272042393684,-0.006994978059083223,-0.015394802205264568
1783693654305119500,7.140119384765625,-0.0223923921585083,-0.003321679774671793,-0.02314220555126667
1783693654315082500,7.15008251953125,-0.02300550788640976,0.002428613603115082,-0.027179071679711342
1783693654325044700,7.160044677734375,-0.026537925004959106,0.00041819328907877207,-0.03163693845272064
1783693654335007700,7.1700078125,-0.02694559097290039,-0.0018974111881107092,-0.03099535033106804
1783693654344969500,7.179969482421875,-0.025276588276028633,-0.0006752866320312023,-0.028346572071313858
1783693654354932500,7.189932373046875,-0.024173345416784286,0.005463567562401295,-0.02098117768764496
1783693654364894700,7.199894775390625,-0.024030599743127823,0.004437185823917389,-0.017278317362070084
1783693654374857700,7.209857666015625,-0.020976543426513672,0.001664298353716731,-0.016787808388471603
1783693654384819500,7.2198193359375,-0.014343674294650555,0.0015607014065608382,-0.014009865932166576
1783693654394782500,7.229782470703125,-0.007958429865539074,0.0021657655015587807,-0.014696898870170116
1783693654404744700,7.23974462890625,-0.0018557964358478785,-0.005156063009053469,-0.015023668296635151
1783693654414707700,7.249707763671875,0.006167831365019083,-0.00868527963757515,-0.007175286300480366
1783693654424669400,7.25966943359375,0.008875999599695206,-0.006152614019811153,0.0011516198283061385
1783693654434632400,7.269632568359375,0.005503435619175434,-0.00820376630872488,0.007956825196743011
1783693654444594700,7.2795947265625,0.0023289478849619627,-0.003732318989932537,0.01686057262122631
1783693654454557700,7.2895576171875,-0.006944234948605299,0.0003657488850876689,0.024002591148018837
1783693654464519400,7.29951953125,-0.009278494864702225,0.003460342064499855,0.02281828410923481
1783693654474482400,7.309482421875,-0.00958931539207697,0.0006325574941001832,0.020439347252249718
1783693654484444000,7.31944384765625,-0.011527031660079956,-0.0050002941861748695,0.01212016399949789
1783693654494406000,7.329406005859375,-0.012515879236161709,-0.00806454848498106,-0.0023801836650818586
1783693654504369000,7.339368896484375,-0.01604882813990116,0.0007060402422212064,-0.011528674513101578
1783693654514331000,7.349330810546875,-0.018066711723804474,0.004337327089160681,-0.02132926695048809
1783693654524294000,7.3592939453125,-0.014617916196584702,0.004596452694386244,-0.025343449786305428
1783693654534255900,7.369255859375,-0.006121269427239895,0.0071189869195222855,-0.02186630293726921
1783693654544219100,7.37921923828125,0.005674669984728098,0.008569876663386822,-0.019677981734275818
1783693654554180900,7.389180908203125,0.012365161441266537,0.0033764345571398735,-0.02034950442612171
1783693654564143900,7.399143798828125,0.017426766455173492,0.0023093060590326786,-0.015471125952899456
1783693654574105900,7.40910595703125,0.018449854105710983,0.004805232398211956,-0.011157197877764702
1783693654584069000,7.419069091796875,0.01590706780552864,0.00799170508980751,-0.005404237192124128
1783693654594030800,7.42903076171875,0.010043822228908539,0.01039037387818098,-0.00339508312754333
1783693654603993900,7.438993896484375,0.004858382046222687,0.010297429747879505,0.0035182165447622538
1783693654613956000,7.4489560546875,0.007694775704294443,0.01400457788258791,0.007364414632320404
1783693654623919000,7.458919189453125,0.007075058296322823,0.013802177272737026,0.006898894906044006
1783693654633880800,7.468880859375,0.011730817146599293,0.0072526950389146805,-0.001040837843902409
1783693654643843800,7.47884375,0.011482610367238522,-0.00019616633653640747,-0.011603733524680138
1783693654653806000,7.48880615234375,0.014517591334879398,0.0003929091617465019,-0.023960720747709274
1783693654663769000,7.49876904296875,0.01605556719005108,0.004558891989290714,-0.032500945031642914
1783693654673730800,7.508730712890625,0.018376190215349197,0.010136346332728863,-0.03440195694565773
1783693654683693800,7.51869384765625,0.022445231676101685,0.014214178547263145,-0.030054878443479538
1783693654693656000,7.528656005859375,0.024155886843800545,0.019182303920388222,-0.021824803203344345
1783693654703619000,7.538619140625,0.027883512899279594,0.016382787376642227,-0.017188239842653275
1783693654713580800,7.548580810546875,0.02729465812444687,0.015904178842902184,-0.01206771470606327
1783693654723543800,7.558543701171875,0.023242659866809845,0.016017362475395203,-0.013064801692962646
1783693654733506000,7.568506103515625,0.02205962873995304,0.008604525588452816,-0.021546129137277603
1783693654743469000,7.578468994140625,0.020712068304419518,-0.001249436754733324,-0.03360998257994652
1783693654753430800,7.5884306640625,0.01683148369193077,-0.0028569744899868965,-0.04657341539859772
1783693654763393800,7.598393798828125,0.016368893906474113,-0.007623233832418919,-0.05467049032449722
1783693654773356000,7.60835595703125,0.01636822335422039,-0.0061621954664587975,-0.04896887019276619
1783693654783319000,7.618319091796875,0.019292639568448067,0.004047565162181854,-0.033786188811063766
1783693654793280800,7.62828076171875,0.02452602982521057,0.010306279174983501,-0.008901111781597137
1783693654803243800,7.638243896484375,0.02577158994972706,0.010532381944358349,0.014016721397638321
1783693654813206000,7.6482060546875,0.024025151506066322,0.011485998518764973,0.03395601734519005
1783693654823169000,7.6581689453125,0.021216848865151405,0.007486728951334953,0.04171247407793999
1783693654833130800,7.668130859375,0.0187953133136034,0.0004991614259779453,0.03992469236254692
1783693654843093800,7.67809375,0.01644081249833107,-0.0016044694930315018,0.030388442799448967
1783693654853056000,7.688055908203125,0.014039764180779457,-0.00353871937841177,0.019528387114405632
1783693654863019000,7.69801904296875,0.014155877754092216,-0.005437553394585848,0.006644546054303646
1783693654872981000,7.70798095703125,0.01556326076388359,-0.008339321240782738,-0.002576509490609169
1783693654882943700,7.71794384765625,0.01621174067258835,-0.0065696509554982185,-0.005781357176601887
1783693654892906000,7.727906005859375,0.01445746049284935,0.0007156882784329355,-0.009531401097774506
1783693654902869000,7.737868896484375,0.010168971493840218,0.00726466765627265,-0.01024566125124693
1783693654912831000,7.7478310546875,0.006388495676219463,0.009939261712133884,-0.014122501015663147
1783693654922794000,7.7577939453125,0.0005119639681652188,0.009388786740601063,-0.014872447587549686
1783693654932756000,7.767755859375,-0.003807052969932556,0.004518918693065643,-0.01036838348954916
1783693654942719000,7.777718994140625,-0.006049701012670994,-0.0034276875667274,-0.006088150665163994
1783693654952681000,7.787680908203125,-0.003758275881409645,-0.010332748293876648,0.002176782349124551
1783693654962644000,7.79764404296875,-0.005008895881474018,-0.01358899474143982,0.009797151200473309
1783693654972606000,7.80760595703125,-0.005430914927273989,-0.010616053827106953,0.01321288663893938
1783693654982569000,7.81756884765625,-0.001537107047624886,-0.012140713632106781,0.015234758146107197
1783693654992531000,7.827531005859375,0.0006615847814828157,-0.010696501471102238,0.018482249230146408
1783693655002494000,7.837493896484375,-0.00011153089144499972,-0.014370065182447433,0.017570117488503456
1783693655012456000,7.8474560546875,0.0005810224683955312,-0.01011250913143158,0.021248163655400276
1783693655022418000,7.85741796875,0.0018825093284249306,-0.0035768449306488037,0.028895696625113487
1783693655032381200,7.867381103515625,0.0011101660784333944,-0.005449277348816395,0.034215252846479416
1783693655042343000,7.877343017578125,-0.0030606104992330074,-0.014555955305695534,0.03578704968094826
1783693655052306000,7.887305908203125,-0.009774195961654186,-0.014595059677958488,0.030131960287690163
1783693655062268000,7.897267822265625,-0.014258958399295807,-0.017274998128414154,0.024440519511699677
1783693655072231200,7.907231201171875,-0.018889430910348892,-0.01923992671072483,0.014640171080827713
1783693655082193000,7.91719287109375,-0.01845773123204708,-0.017584772780537605,0.002887907437980175
1783693655092156000,7.927156005859375,-0.01592121832072735,-0.018029769882559776,-0.0057744793593883514
1783693655102118000,7.937117919921875,-0.013265781104564667,-0.0175663810223341,-0.015718189999461174
1783693655112081200,7.9470810546875,-0.015096480026841164,-0.011846426874399185,-0.027542171999812126
1783693655122043000,7.95704296875,-0.0171258095651865,-0.011011525988578796,-0.03925848379731178
1783693655132006000,7.967005859375,-0.019853398203849792,-0.00940701737999916,-0.04933016002178192
1783693655141968100,7.976968017578125,-0.020967397838830948,-0.013357816264033318,-0.055616557598114014
1783693655151931100,7.98693115234375,-0.019313456490635872,-0.020320899784564972,-0.06261765956878662
1783693655161892900,7.996892822265625,-0.02128472737967968,-0.024867180734872818,-0.06128421798348427
1783693655171856000,8.00685595703125,-0.023920295760035515,-0.02210015431046486,-0.049028459936380386
1783693655181818000,8.016818115234376,-0.025233501568436623,-0.019860703498125076,-0.03279276564717293
1783693655191781000,8.026781005859375,-0.028463318943977356,-0.013292268849909306,-0.01407337561249733
1783693655201742800,8.036742919921876,-0.026049163192510605,-0.00661066360771656,0.009606919251382351
1783693655211705900,8.046705810546875,-0.019862381741404533,-0.008842136710882187,0.024921178817749023
1783693655221668000,8.056668212890624,-0.014949648641049862,-0.012629417702555656,0.0323529951274395
1783693655231631000,8.066631103515626,-0.00891727302223444,-0.014870740473270416,0.030810289084911346
1783693655241592800,8.0765927734375,-0.006399520207196474,-0.02228577993810177,0.024367569014430046
1783693655251555800,8.086555908203126,-0.00307204807177186,-0.02550818771123886,0.01616084948182106
1783693655261518000,8.09651806640625,-0.004328527022153139,-0.02537263184785843,0.010395637713372707
1783693655271481000,8.106481201171874,-0.003496352583169937,-0.023326272144913673,0.00436541298404336
1783693655281442800,8.11644287109375,-0.00643168855458498,-0.02474147640168667,0.003788838628679514
1783693655291405800,8.12640576171875,-0.008950450457632542,-0.016063828021287918,0.003502328647300601
1783693655301368000,8.1363681640625,-0.011473529040813446,-0.007426930591464043,-0.0007715121610090137
1783693655311331000,8.1463310546875,-0.012991076335310936,-0.0023858672939240932,-0.009380711242556572
1783693655321292800,8.156292724609376,-0.011859233491122723,-0.003507324494421482,-0.018920686095952988
1783693655331255800,8.166255859375,-0.009767767041921616,0.002286692848429084,-0.022148722782731056
1783693655341218000,8.176218017578124,-0.009247652254998684,0.0023197161499410868,-0.02699407748878002
1783693655351181000,8.18618115234375,-0.006126427091658115,0.0038542295806109905,-0.028652161359786987
1783693655361142800,8.196142822265625,-0.004627067595720291,0.007179452572017908,-0.029607703909277916
1783693655371105800,8.206105712890626,-0.0013511558063328266,0.007555239833891392,-0.03259957954287529
1783693655381068000,8.216068115234375,0.0026537058874964714,-0.004681186284869909,-0.03543824329972267
1783693655391031000,8.226031005859374,0.0009259945945814252,-0.011596900410950184,-0.035237252712249756
1783693655400992800,8.23599267578125,-0.0015094662085175514,-0.013821172527968884,-0.025894880294799805
1783693655410956000,8.2459560546875,-0.007963447831571102,-0.013175389729440212,-0.019454022869467735
1783693655420918000,8.25591796875,-0.010143778286874294,-0.005264203529804945,-0.009148122742772102
1783693655430881000,8.265881103515625,-0.015774710103869438,0.010146448388695717,0.007684433367103338
1783693655440842800,8.2758427734375,-0.016226116567850113,0.009100092574954033,0.015387093648314476
1783693655450806000,8.285805908203125,-0.011337806470692158,0.007429791614413261,0.019059324637055397
1783693655460768000,8.29576806640625,-0.00188784534111619,0.011323332786560059,0.019661199301481247
1783693655470731000,8.30573095703125,0.007606793195009232,0.006887025199830532,0.014560416340827942
1783693655480692700,8.315692626953124,0.01896251179277897,-0.0054764337837696075,0.0030949749052524567
1783693655490656300,8.32565625,0.024896981194615364,-0.007614969275891781,0.00006768316961824894
1783693655500618500,8.335618408203125,0.031761277467012405,-0.006587255746126175,-0.004402166232466698
1783693655510581500,8.34558154296875,0.03137422353029251,-0.005709731951355934,-0.011716664768755436
1783693655520543200,8.355543212890625,0.032009389251470566,-0.003875080728903413,-0.01647200621664524
1783693655530505500,8.36550537109375,0.029138624668121338,0.002277648076415062,-0.020936734974384308
1783693655540468500,8.375468505859375,0.025635503232479095,0.008079344406723976,-0.025926699861884117
1783693655550430200,8.38543017578125,0.015495672821998596,0.010354208759963512,-0.024440748617053032
1783693655560393200,8.395393310546876,0.002911437302827835,0.013830699026584625,-0.025714272633194923
1783693655570355500,8.40535546875,-0.008518899790942669,0.011930805630981922,-0.029717067256569862
1783693655580318500,8.415318359375,-0.013187686912715435,0.008526220917701721,-0.02945847436785698
1783693655590280200,8.4252802734375,-0.012322784401476383,0.006682269275188446,-0.029917215928435326
1783693655600243500,8.435243408203124,-0.0077485390938818455,-0.004153334069997072,-0.03066982328891754
1783693655610205400,8.445205322265625,-0.00003936651046387851,-0.009708745405077934,-0.02984318882226944
1783693655620168400,8.45516845703125,0.003563624108210206,-0.0028052986599504948,-0.02226915769279003
1783693655630130400,8.46513037109375,0.009258541278541088,0.0004176786169409752,-0.011773140169680119
1783693655640093400,8.475093505859375,0.008932038210332394,-0.0036449735052883625,-0.0029223908204585314
1783693655650055400,8.485055419921874,0.0077608623541891575,-0.0011234501143917441,0.010295921005308628
1783693655660018400,8.495018310546875,0.00418210681527853,-0.0009301045211032033,0.023783233016729355
1783693655669980400,8.50498046875,0.003825546009466052,-0.003597018774598837,0.03706398233771324
1783693655679943400,8.514943359375,0.0011008658912032843,-0.006584020797163248,0.048506252467632294
1783693655689905400,8.524905517578125,-0.0018731141462922096,-0.007349452003836632,0.05423771217465401
1783693655699868400,8.534868408203126,-0.0012158459285274148,-0.007164629176259041,0.054892849177122116
1783693655709830400,8.544830322265625,-0.0033608681987971067,-0.00519230030477047,0.04831767827272415
1783693655719793400,8.55479345703125,-0.0036247875541448593,-0.004553141538053751,0.032137639820575714
1783693655729755400,8.56475537109375,-0.001194772426970303,-0.0033653145655989647,0.01270696148276329
1783693655739718400,8.574718505859375,0.0003607799590099603,-0.005325134843587875,-0.00043653708416968584
1783693655749680600,8.5846806640625,0.0013931060675531626,-0.0031067526433616877,-0.012749501504004002
1783693655759643400,8.594643310546875,0.0019342603627592325,-0.0029264565091580153,-0.01673838496208191
1783693655769605400,8.60460546875,-0.0008178012212738395,-0.004669767804443836,-0.017341261729598045
1783693655779568400,8.614568359375,-0.005190711468458176,-0.007410959340631962,-0.01611274480819702
1783693655789530600,8.624530517578124,-0.010836935602128506,-0.004316370468586683,-0.010181665420532227
1783693655799493400,8.634493408203125,-0.01374803762882948,-0.002068928675726056,-0.007253519259393215
1783693655809455400,8.644455322265625,-0.013230592012405396,-0.002944053616374731,-0.0025290558114647865
1783693655819418400,8.65441845703125,-0.013007685542106628,-0.005015726666897535,0.0015362596604973078
1783693655829380600,8.664380615234375,-0.013813705183565617,-0.00439652381464839,0.008666683919727802
1783693655839343400,8.67434326171875,-0.010931099765002728,-0.003239646553993225,0.011366596445441246
1783693655849305300,8.684305419921875,-0.009775707498192787,-0.005226622801274061,0.01510869711637497
1783693655859268400,8.694268310546875,-0.003836059710010886,-0.005897473078221083,0.019736208021640778
1783693655869230600,8.704230712890626,-0.00021209337865002453,-0.005599746014922857,0.021324751898646355
1783693655879193300,8.714193359375,0.002155989408493042,-0.011597184464335442,0.020612355321645737
1783693655889155300,8.7241552734375,0.0014116920065134764,-0.018240435048937798,0.014570223167538643
1783693655899118300,8.734118408203125,-0.004162570461630821,-0.017548812553286552,0.0040102568455040455
1783693655909080600,8.74408056640625,-0.008093493990600109,-0.0179314985871315,-0.0024917111732065678
1783693655919043300,8.754043212890625,-0.010254383087158203,-0.014690163545310497,-0.003479743842035532
1783693655929005300,8.76400537109375,-0.012930713593959808,-0.004198658745735884,0.0028145606629550457
1783693655938968300,8.77396826171875,-0.014859108254313469,0.0008456347277387977,0.007622897624969482
1783693655948930600,8.7839306640625,-0.013969086110591888,-0.004716920200735331,0.004315268248319626
1783693655958893300,8.793893310546874,-0.01196399237960577,-0.008842422626912594,0.0038582696579396725
1783693655968855300,8.803855224609375,-0.008217401802539825,-0.004904668778181076,-0.001099956687539816
1783693655978817500,8.813817626953124,-0.007069578859955072,-0.0012257781345397234,-0.0013337822165340185
1783693655988780500,8.823780517578125,0.0009221609216183424,-0.0034257876686751842,-0.0025278835091739893
1783693655998742300,8.8337421875,0.002882247557863593,-0.004968023858964443,-0.0003078724257647991
1783693656008705300,8.843705322265626,0.007442805916070938,-0.005543265026062727,0.0005285165389068425
1783693656018667500,8.85366748046875,0.00805346854031086,-0.006505731493234634,0.0020537087693810463
1783693656028630500,8.863630615234374,0.00771727878600359,-0.005586130078881979,0.0016636953223496675
1783693656038592300,8.87359228515625,0.004774752072989941,-0.0009588878601789474,0.00017339031910523772
1783693656048555300,8.88355517578125,-0.002530578291043639,0.005480349529534578,-0.0022886681836098433
1783693656058517500,8.893517578125,-0.00865291990339756,0.00771873677149415,-0.0028545900713652372
1783693656068480500,8.90348046875,-0.015194806270301342,0.009710526093840599,-0.006702185608446598
1783693656078442200,8.913442138671876,-0.015039278194308281,0.004898460581898689,-0.007383688353002071
1783693656088405200,8.9234052734375,-0.015930861234664917,-0.00021242734510451555,-0.006281858775764704
1783693656098367500,8.933367431640624,-0.012362225912511349,-0.011101294308900833,-0.007452583871781826
1783693656108330500,8.94333056640625,-0.007599589880555868,-0.013266712427139282,-0.007995226420462132
1783693656118292200,8.953292236328124,-0.0008221112657338381,-0.012148717418313026,-0.005205032881349325
1783693656128255500,8.96325537109375,0.0024292930029332638,-0.008590728044509888,-0.001151498407125473
1783693656138217500,8.973217529296875,0.0013365979539230466,-0.003147493116557598,0.0036890630144625902
1783693656148180500,8.983180419921876,0.00548757566139102,-0.002662510145455599,0.0066988239996135235
1783693656158142200,8.99314208984375,0.00878430251032114,-0.004228182602673769,0.010295689105987549
1783693656168105500,9.00310546875,0.013683383353054523,-0.004658838734030724,0.011153480969369411
1783693656178067500,9.0130673828125,0.014070075005292892,-0.007667677942663431,0.010586760006844997
1783693656188030500,9.023030517578125,0.012934194877743721,-0.004496104083955288,0.006645201705396175
1783693656197992400,9.032992431640626,0.011903018690645695,-0.002200459362939,0.008107276633381844
1783693656207955500,9.04295556640625,0.009763477370142937,0.0025127874687314034,0.00858992151916027
1783693656217917400,9.05291748046875,0.007868904620409012,0.0032310420647263527,0.010685829445719719
1783693656227880400,9.06288037109375,0.003979440312832594,0.004022043198347092,0.016029972583055496
1783693656237842400,9.072842529296874,0.001241976977325976,0.0040697138756513596,0.016819333657622337
1783693656247805400,9.082805419921876,-0.000014577875845134258,-0.0014497200027108192,0.008039962500333786
1783693656257767400,9.092767333984375,-0.0016484272200614214,-0.0038329828530550003,-0.0034995146561414003
1783693656267730400,9.10273046875,-0.006150437984615564,-0.0038329693488776684,-0.00928040873259306
1783693656277692400,9.1126923828125,-0.00936008058488369,-0.001130393473431468,-0.01255769468843937
1783693656287655400,9.122655517578124,-0.010817431844770908,-0.0029158000834286213,-0.01735086366534233
1783693656297617400,9.132617431640625,-0.008340425789356232,-0.005425829440355301,-0.017275763675570488
1783693656307580400,9.142580322265625,-0.0036090114153921604,0.003762593027204275,-0.012535523623228073
1783693656317542400,9.15254248046875,-0.0017296186415478587,0.009623677469789982,-0.010220970027148724
1783693656327505400,9.16250537109375,0.002390753012150526,0.0049112653359770775,-0.010900802910327911
1783693656337467400,9.17246728515625,0.007900300435721874,0.00024913542438298464,-0.00920410268008709
1783693656347430400,9.182430419921875,0.011838444508612156,-0.0012337594525888562,-0.0082211559638381
1783693656357392400,9.192392333984374,0.008944653905928135,0.0003441635053604841,-0.011305096559226513
1783693656367355400,9.20235546875,0.007986356504261494,-0.0015844760928303003,-0.019044650718569756
1783693656377317400,9.2123173828125,0.0031481923069804907,-0.008344377391040325,-0.02508310228586197
1783693656387280400,9.2222802734375,-0.003099100198596716,-0.010601401329040527,-0.026248831301927567
1783693656397242400,9.232242431640625,-0.012429218739271164,-0.008319338783621788,-0.025929518043994904
1783693656407204400,9.242204345703126,-0.022686026990413666,-0.003476401325315237,-0.02085392363369465
1783693656417167400,9.25216748046875,-0.025685809552669525,0.00030129251535981894,-0.012354711070656776
1783693656427129600,9.262129638671874,-0.028142526745796204,0.0009132809937000275,-0.0034671470057219267
1783693656437092400,9.27209228515625,-0.02685409039258957,0.002923701424151659,0.0022442680783569813
1783693656447054300,9.282054443359375,-0.02292911522090435,0.005370090715587139,0.00693168118596077
1783693656457017300,9.292017333984376,-0.018375376239418983,0.003775656456127763,0.009365543723106384
1783693656466979600,9.3019794921875,-0.010933061130344868,0.0014888079604133964,0.009649796411395073
1783693656476942300,9.3119423828125,-0.0012274375185370445,0.00008132739458233118,0.00767825823277235
1783693656486904800,9.32190478515625,0.006486563012003899,-0.0009035177063196898,0.009899508208036423
1783693656496867800,9.331867919921875,0.01281529851257801,-0.003269736422225833,0.010569825768470764
1783693656506830000,9.341830078125,0.012970700860023499,-0.011123692616820335,0.010568433441221714
1783693656516793000,9.35179296875,0.014253545552492142,-0.011490410193800926,0.009427002631127834
1783693656526754800,9.3617548828125,0.010737024247646332,-0.0010513190645724535,0.011854580603539944
1783693656536717800,9.3717177734375,0.005055169574916363,0.008759234100580215,0.013044214807450771
1783693656546680000,9.38168017578125,0.0016258732648566365,0.008808772079646587,0.005554120987653732
1783693656556643000,9.39164306640625,-0.0010514025343582034,0.009587480686604977,-0.004764828830957413
1783693656566604800,9.401604736328125,-0.005495048128068447,0.007175187114626169,-0.017668532207608223
1783693656576567800,9.41156787109375,-0.00657975347712636,-0.0007469177944585681,-0.028798416256904602
1783693656586530000,9.421530029296875,-0.008986284025013447,0.00021529407240450382,-0.03543407469987869
1783693656596493000,9.4314931640625,-0.009107724763453007,0.003759162500500679,-0.039227213710546494
1783693656606454800,9.441454833984375,-0.011156698688864708,0.007695860229432583,-0.040498580783605576
1783693656616417800,9.451417724609374,-0.011575879529118538,0.013491432182490826,-0.04048073664307594
1783693656626380000,9.461380126953125,-0.010565664619207382,0.015185427851974964,-0.03946642577648163
1783693656636343000,9.471343017578125,-0.007563749793916941,0.013285795226693153,-0.03786160424351692
1783693656646304800,9.4813046875,-0.0015360978431999683,0.0023905544076114893,-0.032032135874032974
1783693656656267800,9.491267822265625,0.0019294735975563526,-0.005956591106951237,-0.02152916043996811
1783693656666230000,9.50122998046875,0.005584507714956999,-0.011806749738752842,-0.005633991677314043
1783693656676193000,9.511193115234375,0.003515498014166951,-0.008790986612439156,0.01798585057258606
1783693656686154800,9.52115478515625,-0.0016610493184998631,-0.007749426178634167,0.041872650384902954
1783693656696117800,9.53111767578125,-0.007436646614223719,-0.00695420615375042,0.060658324509859085
1783693656706080000,9.541080078125,-0.01100730150938034,-0.009275408461689949,0.06674852967262268
1783693656716043000,9.55104296875,-0.009534040465950966,-0.011101271957159042,0.06280039250850677
1783693656726004700,9.561004638671875,-0.005501768551766872,-0.009396079927682877,0.05475743114948273
1783693656735968000,9.570968017578124,-0.0025677643716335297,-0.010673065669834614,0.040251459926366806
1783693656745930000,9.580929931640625,0.003631898667663336,-0.013737587258219719,0.02517571486532688
1783693656755893000,9.59089306640625,0.007619449868798256,-0.013720543123781681,0.011172016151249409
1783693656765854700,9.600854736328126,0.008154122158885002,-0.006300687789916992,-0.002065901644527912
1783693656775818000,9.61081787109375,0.0069895219057798386,-0.0033320619259029627,-0.012983796186745167
1783693656785780000,9.620780029296874,0.004594295285642147,-0.003557868767529726,-0.02555423229932785
1783693656795743000,9.630742919921875,0.004561271984130144,-0.0015325346030294895,-0.032204944640398026
1783693656805705000,9.640705078125,0.006753088906407356,0.002882960718125105,-0.03525203838944435
1783693656815667000,9.6506669921875,0.00555653078481555,-0.0012979356106370687,-0.03213214501738548
1783693656825630000,9.6606298828125,0.004510784056037664,-0.0036308318376541138,-0.025110989809036255
1783693656835592000,9.670592041015626,-0.0020973177161067724,-0.006257507484406233,-0.012478286400437355
1783693656845555000,9.680554931640625,-0.005980773828923702,-0.006071134936064482,0.001123892841860652
1783693656855517000,9.690516845703126,-0.009568850509822369,-0.005058335140347481,0.013886826112866402
1783693656865480000,9.70047998046875,-0.012729273177683353,0.002215296495705843,0.02580360881984234
1783693656875442000,9.71044189453125,-0.011669867672026157,0.005720549263060093,0.03074217401444912
1783693656885405000,9.720405029296876,-0.007851672358810902,-0.0016518501797690988,0.030093912035226822
1783693656895367000,9.730366943359375,-0.0021786068100482225,-0.010935363359749317,0.0233427993953228
1783693656905330000,9.740329833984376,0.003998749423772097,-0.008720419369637966,0.020261162891983986
1783693656915292000,9.7502919921875,0.012368799187242985,-0.010773983784019947,0.011867676861584187
1783693656925255000,9.7602548828125,0.01598493754863739,-0.019905442371964455,0.004203492775559425
1783693656935217000,9.770216796875,0.02037116140127182,-0.02306821197271347,-0.0022988812997937202
1783693656945180000,9.780179931640625,0.020408034324645996,-0.01315590925514698,-0.005009637214243412
1783693656955142100,9.79014208984375,0.012385261245071888,-0.002312316093593836,-0.007077048532664776
1783693656965105000,9.80010498046875,0.006061360705643892,0.0039426349103450775,-0.014005182310938835
1783693656975067000,9.81006689453125,0.0049705300480127335,0.007615400478243828,-0.019649486988782883
1783693656985030000,9.82002978515625,0.0022946204990148544,0.014471948146820068,-0.023683279752731323
1783693656994992000,9.8299921875,0.006277910433709621,0.009148555807769299,-0.02341430075466633
1783693657004955000,9.839954833984375,0.008631374686956406,0.002704544924199581,-0.021575186401605606
1783693657014916900,9.849916748046875,0.012871126644313335,0.001171629410237074,-0.024988293647766113
1783693657024879900,9.8598798828125,0.012550377286970615,0.00027494505047798157,-0.024562830105423927
1783693657034842000,9.869842041015625,0.010049669072031975,0.009456193074584007,-0.02001388557255268
1783693657044804900,9.879804931640624,0.005054160486906767,0.01465893816202879,-0.016500048339366913
1783693657054766800,9.889766845703125,-0.00041943445103242993,0.01114649511873722,-0.013816114515066147
1783693657064729900,9.899729736328124,-0.0021894413512200117,0.002709310734644532,-0.015948787331581116
1783693657074692000,9.909692138671875,-0.005360467359423637,-0.002534187398850918,-0.012775365263223648
1783693657084654800,9.91965478515625,-0.009667331352829933,0.00783243402838707,-0.005675910040736198
1783693657094616800,9.929616943359376,-0.011584807187318802,0.007999946363270283,-0.010466404259204865
1783693657104579800,9.939579833984375,-0.01223788596689701,0.007680418435484171,-0.004847328178584576
1783693657114542000,9.9495419921875,-0.009831453673541546,0.01523713767528534,0.0028654527850449085
1783693657124504800,9.9595048828125,-0.009064706973731518,0.014820574782788754,0.0019582444801926613
1783693657134466800,9.969466796875,-0.008672422729432583,0.005853444803506136,0.008745310828089714
1783693657144429800,9.979429931640626,0.0009840582497417927,-0.00043877819553017616,0.0022664321586489677
1783693657154392000,9.98939208984375,0.00994639378041029,-0.007386166602373123,-0.010846973396837711
1783693657164354800,9.999354736328126,0.013273362070322037,0.001821162411943078,-0.011434276588261127
1783693657174316800,10.00931689453125,0.01100381650030613,0.017159638926386833,-0.00007802504114806652
1783693657184279800,10.01927978515625,0.006727487314492464,0.015435529872775078,0.018062220886349678
1783693657194242000,10.029241943359375,0.007873977534472942,0.010990448296070099,0.023109976202249527
1783693657204203800,10.039203857421874,0.010653351433575153,0.011480458080768585,0.022885331884026527
1783693657214166800,10.049166748046876,0.012434207834303379,0.013509786687791348,0.024553801864385605
1783693657224129000,10.05912890625,0.01527419500052929,0.010437021031975746,0.014238063246011734
1783693657234092000,10.069092041015624,0.014621987007558346,0.009850593283772469,0.004789700731635094
1783693657244053800,10.0790537109375,0.010886315256357193,0.008750703185796738,0.0032743155024945736
1783693657254016800,10.089016845703124,0.00492802495136857,0.007126974407583475,0.00447193905711174
1783693657263979000,10.09897900390625,0.0007640877738595009,0.000050187576562166214,0.005939446855336428
1783693657273942000,10.10894189453125,0.00018991026445291936,0.0003130416152998805,0.011291335336863995
1783693657283903700,10.11890380859375,-0.0025771274231374264,0.0051581114530563354,0.013213904574513435
1783693657293866800,10.12886669921875,-0.007456571329385042,0.007670271210372448,0.010899618268013
1783693657303829000,10.1388291015625,-0.012373874895274639,0.009104399010539055,0.00912880152463913
1783693657313792000,10.1487919921875,-0.017136139795184135,0.010680723935365677,0.009342920035123825
1783693657323753700,10.158753662109374,-0.01730094663798809,0.01328288298100233,0.0042049637995660305
1783693657333717000,10.168717041015626,-0.017271917313337326,0.008536331355571747,-0.0056543247774243355
1783693657343679000,10.178678955078125,-0.0141368443146348,0.012196846306324005,-0.011475995182991028
1783693657353642000,10.18864208984375,-0.014325129799544811,0.016701050102710724,-0.0042332615703344345
1783693657363603700,10.198603759765625,-0.009275875054299831,0.01011799369007349,-0.0015683635137975216
1783693657373567000,10.20856689453125,-0.0025897426530718803,0.016756456345319748,-0.0020163070876151323
1783693657383529000,10.218529052734375,0.0017557438695803285,0.01962548866868019,-0.005438752472400665
1783693657393492000,10.228491943359375,0.0005679739406332374,0.004977570381015539,-0.014126516878604889
1783693657403454000,10.238453857421876,-0.005640505813062191,-0.0015844760928303003,-0.018441446125507355
1783693657413417000,10.2484169921875,-0.014204432256519794,0.005088340491056442,0.00008616549894213676
1783693657423379000,10.25837890625,-0.022171707823872566,0.012093783356249332,0.0097183957695961
1783693657433342000,10.268342041015625,-0.019087767228484154,0.019243838265538216,0.025158872827887535
1783693657443304000,10.278303955078124,-0.007636531721800566,0.014122068881988525,0.026171261444687843
1783693657453267000,10.288266845703125,-0.0027384457644075155,0.1162862479686737,0.06576075404882431
1783693657463229000,10.29822900390625,0.01491447165608406,0.04861798509955406,0.00042639061575755477
1783693657473192000,10.30819189453125,0.03324820473790169,-0.00014396058395504951,-0.021995294839143753
1783693657483154000,10.31815380859375,0.020491383969783783,0.016983341425657272,-0.004458878189325333
1783693657493116400,10.328116455078124,0.010227827355265617,0.017899468541145325,0.006887786090373993
1783693657503078100,10.338078125,-0.002317140344530344,-0.007814398035407066,0.018662763759493828
1783693657513041200,10.348041259765624,-0.007996863685548306,-0.023999759927392006,0.024365389719605446
1783693657523003400,10.35800341796875,-0.013070893473923206,-0.024552121758461,0.026298988610506058
1783693657532966400,10.36796630859375,-0.013451458886265755,-0.02559128776192665,0.022739671170711517
1783693657542928100,10.37792822265625,-0.0053027053363621235,-0.036103297024965286,0.004598718602210283
1783693657552890400,10.387890380859375,-0.005937336478382349,-0.037545666098594666,-0.00901030097156763
1783693657562853400,10.397853271484376,-0.0033938628621399403,-0.008150499314069748,-0.009217055514454842
