time,seconds_elapsed,z,y,x
1783693623665441800,0.06044189453125,0.009868958033621311,-0.013381932862102985,0.04007076844573021
1783693623675403800,0.07040380859375,0.013765961863100529,-0.01969122886657715,0.039024677127599716
1783693623685366800,0.08036669921875,0.010736940428614616,-0.021603906527161598,0.04582936689257622
1783693623695328800,0.090328857421875,0.010503380559384823,-0.019477371126413345,0.054604217410087585
1783693623705291800,0.100291748046875,0.006159622222185135,-0.014593380503356457,0.06237087398767471
1783693623715253800,0.110253662109375,0.0027015074156224728,-0.009642564691603184,0.05971277505159378
1783693623725216800,0.120216796875,-0.00028702564304694533,-0.013651140034198761,0.0495389960706234
1783693623735178800,0.1301787109375,-0.0032404714729636908,-0.01361705083400011,0.03571346402168274
1783693623745141800,0.140141845703125,-0.0026236921548843384,-0.0156562440097332,0.023210203275084496
1783693623755103700,0.150103759765625,0.002592375036329031,-0.019356971606612206,0.01171120721846819
1783693623765066800,0.160066650390625,0.00815532822161913,-0.02154850773513317,0.0011535563971847296
1783693623775028700,0.17002880859375,0.01432960107922554,-0.015491947531700134,-0.013876792043447495
1783693623784991700,0.17999169921875,0.013278888538479805,-0.005235301796346903,-0.02437775954604149
1783693623794953700,0.18995361328125,0.00910092145204544,0.008847760036587715,-0.02715729922056198
1783693623804916700,0.199916748046875,0.0030529210343956947,0.011009964160621166,-0.034997038543224335
1783693623814879700,0.209879638671875,0.0013484979281201959,0.006406423635780811,-0.04483155906200409
1783693623824841700,0.219841796875,0.00009917121496982872,-0.0010504104429855943,-0.05027380585670471
1783693623834804700,0.2298046875,0.0011761535424739122,-0.006294973660260439,-0.05562382936477661
1783693623844767000,0.23976708984375,0.005913251079618931,0.0006270841113291681,-0.05567556247115135
1783693623854729700,0.249729736328125,0.008491989225149155,0.00040897121652960777,-0.05017773434519768
1783693623864691700,0.259691650390625,0.002746657468378544,0.008879167959094048,-0.03513498976826668
1783693623874654700,0.26965478515625,-0.002063810359686613,0.018979739397764206,-0.01559431292116642
1783693623884617000,0.279616943359375,-0.004683086182922125,0.018593575805425644,-0.0007626834558323026
1783693623894579700,0.289579833984375,-0.00822242721915245,0.016722438856959343,0.008553853258490562
1783693623904541700,0.299541748046875,-0.013104962185025215,0.014020927250385284,0.013658177107572556
1783693623914504700,0.309504638671875,-0.014732953161001205,0.012680292129516602,0.01572399027645588
1783693623924467000,0.319467041015625,-0.01298923883587122,0.0077185360714793205,0.01781209371984005
1783693623934430000,0.329429931640625,-0.009969746693968773,-0.0015487316995859146,0.021152762696146965
1783693623944391700,0.3393916015625,-0.006131627131253481,-0.002785741351544857,0.03340960666537285
1783693623954354700,0.349354736328125,-0.004934802185744047,0.0014649301301687956,0.039715707302093506
1783693623964317000,0.35931689453125,-0.0005827887798659503,-0.003933583851903677,0.03677469491958618
1783693623974280000,0.369280029296875,0.002122982870787382,-0.0056875417940318584,0.024334803223609924
1783693623984241700,0.37924169921875,0.008742060512304306,-0.00368430744856596,0.007420315872877836
1783693623994204700,0.38920458984375,0.015062274411320686,-0.0037237219512462616,-0.0056776427663862705
1783693624004167700,0.399167724609375,0.016924336552619934,-0.0017554020741954446,-0.016502566635608673
1783693624014130000,0.4091298828125,0.015055863186717033,-0.0018515420379117131,-0.02972409687936306
1783693624024092700,0.4190927734375,0.011285170912742615,-0.0025628458242863417,-0.043842293322086334
1783693624034054700,0.4290546875,0.002652000868692994,-0.000021657440811395645,-0.046309709548950195
1783693624044017700,0.439017578125,-0.0036996006965637207,0.003914476837962866,-0.04574131593108177
1783693624053980000,0.44897998046875,-0.009707425720989704,0.0072253188118338585,-0.04836959019303322
1783693624063942700,0.458942626953125,-0.010853040032088757,0.0024971691891551018,-0.05309215188026428
1783693624073904600,0.468904541015625,-0.006730733904987574,-0.00452611967921257,-0.05471082031726837
1783693624083868000,0.478867919921875,-0.0037456161808222532,-0.0074707986786961555,-0.046972449868917465
1783693624093830000,0.488829833984375,-0.0018744791159406304,-0.002323174849152565,-0.037527814507484436
1783693624103792600,0.498792724609375,-0.0028148614801466465,0.0048433695919811726,-0.026365412399172783
1783693624113754600,0.508754638671875,-0.006955810822546482,0.004713939968496561,-0.013241622596979141
1783693624123718000,0.5187177734375,-0.009640820324420929,0.00535974558442831,-0.002373781520873308
1783693624133679900,0.528679931640625,-0.012498125433921814,-0.0005263732746243477,0.00041401537600904703
1783693624143642600,0.538642578125,-0.016674939543008804,-0.008393579162657261,-0.0013207593001425266
1783693624153605600,0.548605712890625,-0.018956203013658524,-0.010181625373661518,0.0005333335720933974
1783693624163567900,0.55856787109375,-0.016976816579699516,-0.006118155084550381,-0.0004956298507750034
1783693624173531000,0.56853076171875,-0.01383988093584776,-0.007596476003527641,0.0029198741540312767
1783693624183492600,0.57849267578125,-0.01098675187677145,0.0023863594979047775,0.005819127894937992
1783693624193455600,0.58845556640625,-0.00830841064453125,0.012557770125567913,0.0038180286064743996
1783693624203417900,0.59841796875,-0.009574409574270248,0.007551575545221567,-0.007143242284655571
1783693624213380900,0.608380859375,-0.0027979963924735785,0.004020490683615208,-0.023774683475494385
1783693624223342600,0.618342529296875,0.004008099436759949,0.002563432790338993,-0.03723408654332161
1783693624233305600,0.6283056640625,0.002634707372635603,0.004475316032767296,-0.050437506288290024
1783693624243267800,0.638267822265625,-0.003943379502743483,0.004901927430182695,-0.05787600576877594
1783693624253230800,0.64823095703125,-0.007274461444467306,0.009464721195399761,-0.05867335572838783
1783693624263192600,0.658192626953125,-0.005269048735499382,-0.0003244701074436307,-0.054572686553001404
1783693624273155600,0.668155517578125,-0.011687266640365124,0.0033983627799898386,-0.0489044152200222
1783693624283118800,0.678118896484375,-0.01975185051560402,0.018855083733797073,-0.04424148425459862
1783693624293080800,0.688080810546875,-0.027863040566444397,0.021161114796996117,-0.038760699331760406
1783693624303043800,0.6980439453125,-0.02927049621939659,0.01720789074897766,-0.030539967119693756
1783693624313005600,0.708005615234375,-0.018889760598540306,0.013340712524950504,-0.02556811086833477
1783693624322968800,0.71796875,-0.010682288557291031,0.0029570278711616993,-0.0190261397510767
1783693624332930800,0.727930908203125,0.0013927498366683722,-0.009381396695971489,-0.008767909370362759
1783693624342893800,0.737893798828125,0.008420131169259548,-0.014108991250395775,0.01079646684229374
1783693624352855800,0.747855712890625,0.011235891841351986,-0.009619968011975288,0.03035338968038559
1783693624362818800,0.75781884765625,0.01589927449822426,-0.007881215773522854,0.04298793897032738
1783693624372780800,0.76778076171875,0.02048710361123085,-0.01179579645395279,0.04733501747250557
1783693624382743800,0.777743896484375,0.024785151705145836,-0.01364986039698124,0.05588900297880173
1783693624392705800,0.787705810546875,0.027244580909609795,-0.011369661428034306,0.0607876218855381
1783693624402668800,0.797668701171875,0.030826084315776825,-0.0093198511749506,0.06661021709442139
1783693624412631800,0.8076318359375,0.02921966463327408,-0.0021711280569434166,0.06884755194187164
1783693624422593800,0.81759375,0.030560234561562538,0.006253233645111322,0.06611084938049316
1783693624432556800,0.827556884765625,0.02654658444225788,0.012384362518787384,0.04981629550457001
1783693624442518800,0.837518798828125,0.021080663427710533,0.012932182289659977,0.03041164204478264
1783693624452482000,0.84748193359375,0.014168430119752884,0.011180355213582516,0.007566515356302261
1783693624462443800,0.85744384765625,0.015686707571148872,0.008698299527168274,-0.01937510073184967
1783693624472406800,0.86740673828125,0.018126962706446648,0.003669719211757183,-0.046414438635110855
1783693624482369000,0.877369140625,0.024062825366854668,0.004878523293882608,-0.06789155304431915
1783693624492332000,0.88733203125,0.025960326194763184,0.007177896331995726,-0.07910053431987762
1783693624502293800,0.897293701171875,0.028247658163309097,0.0025407960638403893,-0.08425965905189514
1783693624512256800,0.9072568359375,0.02501298300921917,0.00654778815805912,-0.07784916460514069
1783693624522219000,0.917218994140625,0.021408556029200554,0.017049966380000114,-0.057633209973573685
1783693624532182000,0.92718212890625,0.017870280891656876,0.015921318903565407,-0.03707334026694298
1783693624542144800,0.937144775390625,0.017810417339205742,0.005727807525545359,-0.01710517890751362
1783693624552106800,0.947106689453125,0.01864105649292469,0.0008840503287501633,0.004355371929705143
1783693624562070000,0.957070068359375,0.016545701771974564,-0.0004435132723301649,0.026229752227663994
1783693624572032000,0.967031982421875,0.014714512974023819,0.0034455007407814264,0.05089408531785011
1783693624581994800,0.976994873046875,0.0072951242327690125,-0.000573247205466032,0.06437978893518448
1783693624591956700,0.986956787109375,0.006416014861315489,-0.0049621365033090115,0.0685335248708725
1783693624601920000,0.996919921875,0.006104795727878809,-0.00879522692412138,0.06507685035467148
1783693624611882000,1.006882080078125,0.00583927845582366,-0.010572354309260845,0.05438265949487686
1783693624621845000,1.016844970703125,0.005259879399091005,-0.014986545778810978,0.04639462009072304
1783693624631807000,1.026806884765625,0.0073185027576982975,-0.014303977601230145,0.03856945410370827
1783693624641770000,1.03677001953125,0.009969251230359077,-0.007591215893626213,0.026539795100688934
1783693624651732000,1.04673193359375,0.00848160870373249,-0.006544860079884529,0.011304117739200592
1783693624661695000,1.056695068359375,0.004636511206626892,-0.0074404519982635975,-0.0013113634195178747
1783693624671657700,1.06665771484375,0.0015389889013022184,-0.001967389602214098,-0.005890935193747282
1783693624681620000,1.076619873046875,-0.0018529853550717235,0.0022374619729816914,-0.014592425897717476
1783693624691583000,1.0865830078125,-0.005615765694528818,-0.006060948129743338,-0.02214461751282215
1783693624701545000,1.096544921875,-0.00560425641015172,-0.007361897267401218,-0.024263646453619003
1783693624711507700,1.1065078125,-0.007621334865689278,-0.0052356296218931675,-0.02328972890973091
1783693624721470000,1.116469970703125,-0.005935486406087875,-0.01004155445843935,-0.030504997819662094
1783693624731433000,1.126432861328125,-0.00674641877412796,-0.017095470800995827,-0.03644464537501335
1783693624741395000,1.13639501953125,-0.007680797483772039,-0.021118687465786934,-0.031388286501169205
1783693624751357700,1.146357666015625,-0.005432024132460356,-0.01934981532394886,-0.0173286572098732
1783693624761320000,1.15631982421875,-0.00867138896137476,-0.014007516205310822,0.004660638980567455
1783693624771283000,1.166282958984375,-0.010526547208428383,-0.004473932087421417,0.025993891060352325
1783693624781246000,1.176245849609375,-0.013498085550963879,0.004470520187169313,0.0460827462375164
1783693624791207700,1.186207763671875,-0.014534853398799896,0.004698753356933594,0.054936427623033524
1783693624801171000,1.1961708984375,-0.010066347196698189,-0.004468923434615135,0.060283269733190536
1783693624811133000,1.2061328125,-0.0049054063856601715,-0.015088544227182865,0.054911140352487564
1783693624821096000,1.216095947265625,-0.0008192142704501748,-0.019754139706492424,0.046824295073747635
1783693624831057700,1.2260576171875,0.004174745641648769,-0.022165898233652115,0.039313916116952896
1783693624841021000,1.23602099609375,0.009868786670267582,-0.019721070304512978,0.02947443723678589
1783693624850983000,1.24598291015625,0.011251499876379967,-0.009512639604508877,0.025974776595830917
1783693624860946000,1.25594580078125,0.012337631545960903,-0.001668312237598002,0.019531115889549255
1783693624870908000,1.265907958984375,0.011635089293122292,-0.004475283902138472,0.008585790172219276
1783693624880871000,1.275870849609375,0.0074850283563137054,-0.006815674249082804,-0.0031904899515211582
1783693624890833000,1.2858330078125,-0.0015968834049999714,-0.0066739940084517,-0.014890821650624275
1783693624900796000,1.2957958984375,-0.012030652724206448,-0.00422120513394475,-0.016863500699400902
1783693624910759000,1.305759033203125,-0.022693417966365814,0.0049720266833901405,-0.01588718593120575
1783693624920721000,1.315720947265625,-0.03050079755485058,0.01473463885486126,-0.008944105356931686
1783693624930684000,1.325683837890625,-0.03273811936378479,0.013872040435671806,-0.005002627149224281
1783693624940646000,1.33564599609375,-0.0336894690990448,0.007730509154498577,-0.001463853637687862
1783693624950609000,1.34560888671875,-0.03392622247338295,0.012529524974524975,0.00434849550947547
1783693624960571000,1.35557080078125,-0.03618314862251282,0.023701483383774757,0.01011141948401928
1783693624970534000,1.365533935546875,-0.034712016582489014,0.020483052358031273,0.009137234650552273
1783693624980496000,1.375495849609375,-0.03146929293870926,0.015634506940841675,0.006416331045329571
1783693624990459000,1.385458984375,-0.025625519454479218,0.008887388743460178,0.003723608795553446
1783693625000420900,1.3954208984375,-0.019650926813483238,-0.0009884071769192815,0.0008546332828700542
1783693625010384000,1.4053837890625,-0.013787711970508099,-0.010930254124104977,-0.004289794713258743
1783693625020345900,1.415345947265625,-0.00788651779294014,-0.013738022185862064,-0.006648133043199778
1783693625030308900,1.425308837890625,-0.003113334532827139,-0.012287930585443974,0.0007027240935713053
1783693625040272000,1.43527197265625,0.00024268656852655113,-0.005264895968139172,0.012769384309649467
1783693625050233900,1.44523388671875,0.00036652357084676623,0.00116184470243752,0.024673981592059135
1783693625060196900,1.45519677734375,-0.001789733418263495,0.00029418442863970995,0.033426303416490555
1783693625070158800,1.465158935546875,-0.006699004210531712,0.0004550394369289279,0.03990603983402252
1783693625080122000,1.4751220703125,-0.009444973431527615,0.0007335658883675933,0.04906767979264259
1783693625090083800,1.485083740234375,-0.009960029274225235,-0.0018102854955941439,0.05638125166296959
1783693625100046800,1.495046875,-0.01106217596679926,-0.004089387133717537,0.059593360871076584
1783693625110008800,1.5050087890625,-0.010656310245394707,-0.002379904268309474,0.06311166286468506
1783693625119972000,1.51497216796875,-0.012222201563417912,0.0007668800535611808,0.05799819156527519
1783693625129933800,1.524933837890625,-0.010612853802740574,-0.000645394204184413,0.047478172928094864
1783693625139896800,1.534896728515625,-0.008852686733007431,0.000899480830412358,0.03353266417980194
1783693625149859000,1.544859130859375,-0.0066230883821845055,0.007113967090845108,0.01764717325568199
1783693625159822000,1.554822021484375,-0.005095707718282938,0.014498651027679443,0.0032704127952456474
1783693625169784800,1.564784912109375,0.0024394402280449867,0.013234714046120644,-0.008952431380748749
1783693625179746800,1.574746826171875,0.005887596867978573,0.007725701667368412,-0.018959103152155876
1783693625189709800,1.584709716796875,0.010873034596443176,0.008378176018595695,-0.02428435906767845
1783693625199672000,1.594672119140625,0.01648724265396595,0.006673753261566162,-0.027899866923689842
1783693625209634800,1.604634765625,0.01405364740639925,0.006953652016818523,-0.02505454607307911
1783693625219596800,1.6145966796875,0.013379673473536968,0.00618289690464735,-0.017431631684303284
1783693625229559800,1.624559814453125,0.012711220420897007,0.005684619303792715,-0.01165976282209158
1783693625239522000,1.63452197265625,0.014044351875782013,0.007321671582758427,-0.0011810838477686048
1783693625249484800,1.64448486328125,0.009232552722096443,0.007470275741070509,0.008745849132537842
1783693625259446800,1.65444677734375,0.008880817331373692,0.0018134709680452943,0.013043694198131561
1783693625269409800,1.664409912109375,0.0043736835941672325,0.0016683286521583796,0.013705490157008171
1783693625279373000,1.674373046875,0.0010213431669399142,0.010986455716192722,0.009290828369557858
1783693625289334800,1.684334716796875,0.0017254829872399569,0.016225159168243408,0.002845446113497019
1783693625299297800,1.6942978515625,0.008322477340698242,0.005878007505089045,-0.009405871853232384
1783693625309259800,1.704259765625,0.02027873881161213,-0.008622637949883938,-0.019340259954333305
1783693625319223000,1.71422314453125,0.02847936935722828,-0.00886795949190855,-0.02544071525335312
1783693625329185000,1.72418505859375,0.031044526025652885,-0.0053195646032691,-0.026309970766305923
1783693625339147800,1.734147705078125,0.029876822605729103,-0.004503585398197174,-0.02515164017677307
1783693625349110000,1.744110107421875,0.023075642064213753,-0.000475288019515574,-0.017897989600896835
1783693625359073000,1.754072998046875,0.016980784013867378,0.0009753921767696738,-0.013696115463972092
1783693625369035000,1.764034912109375,0.010202773846685886,0.0006877707783132792,-0.009734928607940674
1783693625378997800,1.773997802734375,0.006479203701019287,-0.00485990708693862,-0.006954429671168327
1783693625388960800,1.783960693359375,0.004658400546759367,-0.006033828482031822,-0.006452956236898899
1783693625398923000,1.793923095703125,0.006268981844186783,-0.007556558586657047,-0.0053146881982684135
1783693625408886000,1.803885986328125,0.00826182495802641,-0.00916271097958088,-0.0055913906544446945
1783693625418847700,1.81384765625,0.011407522484660149,-0.009836044162511826,-0.0007767800707370043
1783693625428810800,1.823810791015625,0.012466395273804665,-0.008322036825120449,0.006308027543127537
1783693625438773000,1.83377294921875,0.01387315709143877,-0.006452471017837524,0.00031673855846747756
1783693625448736000,1.843736083984375,0.013330139219760895,-0.007827993482351303,-0.011222472414374352
1783693625458697700,1.85369775390625,0.010243801400065422,-0.013276821002364159,-0.026042165234684944
1783693625468660700,1.86366064453125,0.007146545220166445,-0.010616322979331017,-0.027240054681897163
1783693625478623000,1.873623046875,0.002747650956735015,-0.001195381861180067,-0.023527510464191437
1783693625488586000,1.8835859375,0.0032163672149181366,0.0000704184640198946,-0.010090531781315804
1783693625498548700,1.893548828125,0.006580831948667765,0.0021580569446086884,0.000529476732481271
1783693625508510700,1.9035107421875,0.0061318231746554375,-0.002083027036860585,0.011327795684337616
1783693625518474000,1.913473876953125,0.008114974945783615,-0.004829809069633484,0.015050253830850124
1783693625528436000,1.92343603515625,0.006510686594992876,-0.0086834030225873,0.016463859006762505
1783693625538398700,1.933398681640625,0.0011662659235298634,-0.00871854554861784,0.010612882673740387
1783693625548360700,1.943360595703125,-0.0018204692751169205,-0.01178703922778368,0.005864731967449188
1783693625558324000,1.953323974609375,-0.0004725541512016207,-0.011107895523309708,0.004074032884091139
1783693625568286000,1.963285888671875,-0.0027519536670297384,-0.0058721206150949,0.005984052084386349
1783693625578248700,1.973248779296875,-0.0028989342972636223,-0.00072425976395607,0.005961235146969557
1783693625588211000,1.9832109375,-0.0001255183742614463,0.004161043092608452,0.005771351978182793
1783693625598174000,1.993174072265625,0.003293145215138793,0.008254339918494225,-0.003155637765303254
1783693625608137000,2.003136962890625,0.007689491845667362,0.011823507957160473,-0.013227179646492004
1783693625618098700,2.0130986328125,0.015470046550035477,0.008880416862666607,-0.03136737272143364
1783693625628061700,2.023061767578125,0.026528289541602135,0.0028651352040469646,-0.04479290172457695
1783693625638024000,2.03302392578125,0.03735971078276634,0.0001042631920427084,-0.04583390802145004
1783693625647987000,2.042987060546875,0.044174205511808395,0.0017578199040144682,-0.03653042018413544
1783693625657948700,2.05294873046875,0.046369485557079315,0.013685568235814571,-0.023636119440197945
1783693625667911700,2.06291162109375,0.044269584119319916,0.02093122899532318,-0.011321662925183773
1783693625677874000,2.0728740234375,0.03841086104512215,0.020680060610175133,-0.008724511601030827
1783693625687837000,2.0828369140625,0.03097478672862053,0.018329553306102753,-0.011751992627978325
1783693625697799000,2.092798828125,0.024845613166689873,0.01726560853421688,-0.017701640725135803
1783693625707761700,2.10276171875,0.023052508011460304,0.012737700715661049,-0.02370627038180828
1783693625717725000,2.112724853515625,0.02038680948317051,0.0028320939745754004,-0.029574459418654442
1783693625727687000,2.12268701171875,0.022428123280405998,-0.0015725081320852041,-0.0277083832770586
1783693625737650000,2.13264990234375,0.021807048469781876,0.004605788737535477,-0.020174385979771614
1783693625747611600,2.142611572265625,0.020710626617074013,0.009496684186160564,-0.01305282674729824
1783693625757575000,2.152574951171875,0.013779863715171814,0.011190463788807392,-0.0075802006758749485
1783693625767537000,2.162536865234375,0.007974439300596714,0.009410406462848186,-0.00956212542951107
1783693625777500000,2.1725,0.0004612123884726316,0.012685485184192657,-0.014649586752057076
1783693625787461600,2.182461669921875,-0.009309659712016582,0.012233546935021877,-0.01954607479274273
1783693625797425000,2.1924248046875,-0.017158471047878265,0.012603516690433025,-0.02040846459567547
1783693625807388000,2.202387939453125,-0.01773344725370407,0.013905269093811512,-0.015612112358212471
1783693625817350000,2.212349853515625,-0.013638199307024479,0.005594074260443449,-0.008783391676843166
1783693625827313000,2.22231298828125,-0.012209413573145866,-0.005853523500263691,-0.004817145876586437
1783693625837275000,2.23227490234375,-0.015000429004430771,-0.0013589293230324984,-0.0011414268519729376
1783693625847238000,2.24223779296875,-0.01812032237648964,0.008889180608093739,0.0009936292190104723
1783693625857199900,2.252199951171875,-0.018900513648986816,0.012050628662109375,-0.006289220415055752
1783693625867163000,2.262162841796875,-0.022187918424606323,0.009180805645883083,-0.01500228513032198
1783693625877124900,2.272124755859375,-0.02142801508307457,0.007851087488234043,-0.018513020128011703
1783693625887087900,2.282087890625,-0.02204107493162155,0.013504179194569588,-0.014034116640686989
1783693625897049900,2.2920498046875,-0.026271922513842583,0.013736948370933533,-0.010106922127306461
1783693625907012900,2.302012939453125,-0.02462209388613701,0.013457050547003746,-0.006269040983170271
1783693625916975600,2.3119755859375,-0.02526010572910309,0.015516980551183224,-0.0020278242882341146
1783693625926937900,2.321937744140625,-0.026817256584763527,0.02004542015492916,0.006074044853448868
1783693625936900900,2.33190087890625,-0.026555711403489113,0.020467553287744522,0.003932839259505272
1783693625946862800,2.34186279296875,-0.022475216537714005,0.013353717513382435,-0.0015801707049831748
1783693625956825900,2.351825927734375,-0.019504286348819733,0.009870530106127262,-0.004348007496446371
1783693625966787800,2.361787841796875,-0.01797856204211712,0.01115071214735508,0.0011519528925418854
1783693625976750800,2.371750732421875,-0.018943576142191887,0.012829363346099854,0.0050795720890164375
1783693625986712800,2.381712890625,-0.017859403043985367,0.008636216633021832,0.007092655636370182
1783693625996676000,2.391676025390625,-0.013718051835894585,0.006240468472242355,0.004762726370245218
1783693626006637800,2.401637939453125,-0.016087466850876808,-0.0008139790734276175,0.006443447433412075
1783693626016600800,2.411600830078125,-0.011607298627495766,-0.013577193953096867,0.0012936574639752507
1783693626026563800,2.421563720703125,-0.009362786076962948,-0.02084948867559433,-0.004490462131798267
1783693626036526000,2.431526123046875,-0.006690741050988436,-0.013149822130799294,-0.004257204942405224
1783693626046488800,2.44148876953125,-0.0022901338525116444,-0.006359560880810022,-0.0016901841154322028
1783693626056450800,2.451450927734375,-0.00262636411935091,-0.0055779023095965385,-0.0008631871314719319
1783693626066413800,2.461413818359375,-0.004037839360535145,-0.0036263377405703068,-0.003019548486918211
1783693626076376000,2.4713759765625,-0.005404159426689148,0.002449706895276904,0.0019337242702022195
1783693626086338800,2.4813388671875,-0.0046970900148153305,0.002288851886987686,0.005095428787171841
1783693626096300800,2.49130078125,-0.004818008281290531,-0.000028109410777688026,0.004118860699236393
1783693626106263800,2.501263916015625,-0.003619053168222308,-0.0024649016559123993,0.0031609213910996914
1783693626116226000,2.51122607421875,-0.0019154507899656892,-0.0034998285118490458,0.004409702494740486
1783693626126188800,2.521188720703125,-0.0009769528405740857,-0.009952668100595474,0.005525567103177309
1783693626136151800,2.53115185546875,-0.0005777806509286165,-0.011394751258194447,0.003512410447001457
1783693626146113800,2.54111376953125,-0.005179989151656628,-0.005147508345544338,0.006375308148562908
1783693626156076800,2.551076904296875,-0.007525122258812189,-0.004634856712073088,0.008488587103784084
1783693626166038800,2.561038818359375,-0.009715039283037186,-0.009276480413973331,0.0008346627000719309
1783693626176001800,2.571001708984375,-0.010297090746462345,-0.010920707136392593,-0.006582942791283131
1783693626185963800,2.5809638671875,-0.013111519627273083,-0.009658634662628174,-0.007168039679527283
1783693626195926800,2.5909267578125,-0.01437216717749834,-0.0036420347169041634,-0.0023385421372950077
1783693626205888800,2.600888671875,-0.0138014517724514,-0.003810346592217684,0.00011715875007212162
1783693626215851800,2.610851806640625,-0.013327282853424549,-0.0062836045399308205,-0.0027392636984586716
1783693626225814800,2.620814697265625,-0.014979242347180843,-0.01019099447876215,-0.004156597889959812
1783693626235777000,2.630777099609375,-0.015485355630517006,-0.0033448669128119946,-0.00736622791737318
1783693626245740000,2.640739990234375,-0.01720336079597473,-0.0015445699682459235,-0.012935429811477661
1783693626255701800,2.65070166015625,-0.017430029809474945,0.0013353907270357013,-0.017635982483625412
1783693626265664800,2.660664794921875,-0.017966391518712044,0.0019220850663259625,-0.020347878336906433
1783693626275627000,2.670626953125,-0.016484716907143593,-0.0013887026580050588,-0.017192518338561058
1783693626285590000,2.680590087890625,-0.01430252194404602,-0.002998317126184702,-0.01630222238600254
1783693626295551700,2.6905517578125,-0.009125160053372383,0.004674743860960007,-0.010876309126615524
1783693626305514800,2.7005146484375,-0.007067335769534111,0.007078247144818306,-0.006716185249388218
1783693626315477000,2.71047705078125,-0.0038253883831202984,0.0006107353838160634,-0.004678468219935894
1783693626325440000,2.72043994140625,-0.001226675696671009,-0.003741402179002762,-0.0024294289760291576
1783693626335403000,2.730403076171875,-0.004278081003576517,-0.0011967066675424576,0.00010079215280711651
1783693626345364700,2.74036474609375,-0.006051213946193457,-0.003320045303553343,0.003315493930131197
1783693626355327700,2.75032763671875,-0.006865111645311117,-0.006180528085678816,0.010345100425183773
1783693626365290000,2.7602900390625,-0.00590397696942091,0.0011764541268348694,0.015151573345065117
1783693626375253000,2.7702529296875,-0.005739822052419186,0.006356566678732634,0.015256344340741634
1783693626385214700,2.780214599609375,-0.001955736428499222,0.007812250405550003,0.012945253401994705
1783693626395177700,2.790177734375,-0.0009535994613543153,0.010569143109023571,0.009867184795439243
1783693626405140000,2.800139892578125,0.004140228498727083,0.0067605567164719105,0.007216806523501873
1783693626415103000,2.81010302734375,0.008597143925726414,-0.0012262542732059956,-0.00020000035874545574
1783693626425065700,2.820065673828125,0.015521096996963024,-0.00763195613399148,0.0009374357177875936
1783693626435027700,2.83002783203125,0.016693513840436935,-0.004622064530849457,0.004366643726825714
1783693626444991000,2.839990966796875,0.018789954483509064,-0.0006036208942532539,0.00482257641851902
1783693626454953700,2.84995361328125,0.023365123197436333,0.0023192185908555984,0.00450254837051034
1783693626464916700,2.859916748046875,0.018548529595136642,0.001333582797087729,0.0023935912176966667
1783693626474878500,2.86987841796875,0.01422611903399229,0.002711452776566148,-0.0012837002286687493
1783693626484841500,2.879841552734375,0.008308309130370617,0.0071482788771390915,0.0007648032624274492
1783693626494803700,2.8898037109375,-0.000205157688469626,0.014166527427732944,0.007823063060641289
1783693626504766700,2.8997666015625,-0.006632696837186813,0.01426240149885416,0.017555851489305496
1783693626514728400,2.909728515625,-0.009979004971683025,0.01277689728885889,0.022754548117518425
1783693626524691500,2.91969140625,-0.012468261644244194,0.010756091214716434,0.026910411193966866
1783693626534654700,2.92965478515625,-0.011517791077494621,0.006824720650911331,0.025418519973754883
1783693626544616700,2.93961669921875,-0.013412630185484886,0.0028576760087162256,0.02396363392472267
1783693626554579500,2.949579345703125,-0.011064071208238602,0.0009780419059097767,0.017584165558218956
1783693626564541700,2.959541748046875,-0.006520186085253954,0.0013799128355458379,0.01315799169242382
1783693626574504700,2.969504638671875,-0.005750161129981279,0.006900111213326454,0.010020364075899124
1783693626584466700,2.979466796875,-0.0023005688562989235,0.013004874810576439,0.005010159686207771
1783693626594429400,2.989429443359375,-0.0005787884001620114,0.02038794942200184,-0.0016471495619043708
1783693626604391700,2.9993916015625,0.0003692969330586493,0.02551879547536373,-0.010250224731862545
1783693626614354700,3.009354736328125,-0.00104704056866467,0.024158969521522522,-0.029261237010359764
1783693626624316700,3.019316650390625,0.000758848967961967,0.011683391407132149,-0.04896676540374756
1783693626634279400,3.029279541015625,0.0031214074697345495,0.004838551394641399,-0.0643339678645134
1783693626644242400,3.039242431640625,0.005275372415781021,0.00599968945607543,-0.07110478729009628
1783693626654204700,3.04920458984375,0.006903441157191992,0.003989296033978462,-0.07247869670391083
1783693626664167700,3.059167724609375,0.008976445533335209,0.005839660298079252,-0.06419944763183594
1783693626674129400,3.06912939453125,0.007900680415332317,0.010545190423727036,-0.05073514208197594
1783693626684092400,3.079092529296875,0.0019463845528662205,0.019155988469719887,-0.031168632209300995
1783693626694054700,3.0890546875,-0.003716824110597372,0.024610891938209534,-0.008858153596520424
1783693626704017700,3.099017578125,-0.009675380773842335,0.02615738846361637,0.012508387677371502
1783693626713979400,3.1089794921875,-0.012931772507727146,0.0236748605966568,0.0262454766780138
1783693626723942400,3.1189423828125,-0.015136603266000748,0.014365781098604202,0.03334759175777435
1783693626733904600,3.128904541015625,-0.013202333822846413,0.00522657111287117,0.035429224371910095
1783693626743867600,3.13886767578125,-0.009984701871871948,-0.004753358196467161,0.03642524406313896
1783693626753830700,3.14883056640625,-0.0038951183669269085,-0.008094027638435364,0.036508336663246155
1783693626763792600,3.158792724609375,-0.0018391581252217293,-0.009358230046927929,0.0370928980410099
1783693626773755600,3.168755615234375,0.004617153666913509,-0.013396370224654675,0.0351778045296669
1783693626783717600,3.178717529296875,0.008043310604989529,-0.012218720279633999,0.03206270560622215
1783693626793680600,3.1886806640625,0.0076392521150410175,-0.002702451078221202,0.025294767692685127
1783693626803642600,3.198642578125,0.009095467627048492,0.004828968085348606,0.014396579936146736
1783693626813605600,3.208605712890625,0.008446560241281986,0.000960724544711411,0.00382873322814703
1783693626823567600,3.218567626953125,0.014928694814443588,-0.001711225020699203,-0.011107871308922768
1783693626833530600,3.228530517578125,0.014017605222761631,0.0031205257400870323,-0.019750338047742844
1783693626843492600,3.23849267578125,0.014501501806080341,0.005689144134521484,-0.029630664736032486
1783693626853455600,3.24845556640625,0.014125077053904533,0.00976888369768858,-0.039708271622657776
1783693626863418600,3.258418701171875,0.014240925200283527,0.017279265448451042,-0.04580371454358101
1783693626873380600,3.268380615234375,0.01415747869759798,0.01520568784326315,-0.04776434600353241
1783693626883343600,3.278343505859375,0.014492237940430641,0.01572367362678051,-0.04769004508852959
1783693626893305600,3.2883056640625,0.01144319586455822,0.019984742626547813,-0.04074373468756676
1783693626903268600,3.2982685546875,0.011965707875788212,0.01678282395005226,-0.03575776517391205
1783693626913230600,3.308230712890625,0.015191970393061638,0.000278742634691298,-0.033665336668491364
1783693626923193600,3.318193603515625,0.018489230424165726,-0.00134525285102427,-0.029464198276400566
1783693626933155600,3.328155517578125,0.016792792826890945,0.006411407142877579,-0.0195589791983366
1783693626943118600,3.33811865234375,0.014741891995072365,0.01526055857539177,-0.005984046496450901
1783693626953080600,3.34808056640625,0.015285118483006954,0.017939427867531776,0.0037987609393894672
1783693626963043600,3.358043701171875,0.007476730737835169,0.028389671817421913,0.00927235558629036
1783693626973005600,3.368005615234375,0.002243650844320655,0.03483455628156662,0.0026186765171587467
1783693626982968600,3.377968505859375,-0.008391416631639004,0.03388487175107002,-0.010789275169372559
1783693626992931600,3.387931640625,-0.01160777360200882,0.023599207401275635,-0.027077483013272285
1783693627002893600,3.3978935546875,-0.008889751508831978,0.008719327859580517,-0.04081220179796219
1783693627012856600,3.407856689453125,-0.003163710003718734,-0.007986703887581825,-0.046327583491802216
1783693627022818600,3.417818603515625,0.0018432990182191133,-0.016904832795262337,-0.03601768985390663
1783693627032781600,3.427781494140625,0.003486046101897955,-0.01683659479022026,-0.020669640973210335
1783693627042743800,3.437743896484375,0.001474560471251607,-0.011859146878123283,-0.005537294317036867
1783693627052706800,3.447706787109375,-0.003076345194131136,-0.011566299945116043,0.010471346788108349
1783693627062668500,3.45766845703125,-0.0053544132970273495,-0.009760943241417408,0.02927832491695881
1783693627072631600,3.467631591796875,-0.0111476369202137,-0.004741358105093241,0.044840868562459946
1783693627082593800,3.47759375,-0.014075515791773796,-0.004963998682796955,0.05213500186800957
1783693627092556800,3.487556884765625,-0.018129030242562294,-0.0036335079930722713,0.05285258963704109
1783693627102519600,3.49751953125,-0.015956690534949303,-0.00549345975741744,0.047396838665008545
1783693627112481500,3.5074814453125,-0.011353614740073681,-0.004731513559818268,0.031046397984027863
1783693627122444500,3.517444580078125,-0.0003576884337235242,-0.008307873271405697,0.020704276859760284
1783693627132406800,3.52740673828125,0.011341102421283722,-0.009331321343779564,0.004024414345622063
1783693627142369500,3.53736962890625,0.02391868084669113,-0.010954784229397774,-0.010232019238173962
1783693627152331500,3.54733154296875,0.029050488024950027,-0.017170332372188568,-0.022457901388406754
1783693627162294500,3.55729443359375,0.026819026097655296,-0.016745824366807938,-0.028838569298386574
1783693627172256800,3.5672568359375,0.01941482163965702,-0.013295142911374569,-0.02867971360683441
1783693627182219500,3.577219482421875,0.006766136735677719,-0.009081755764782429,-0.020464394241571426
1783693627192181500,3.587181396484375,-0.006940108723938465,-0.0075174374505877495,-0.009281222708523273
1783693627202144500,3.59714453125,-0.017059054225683212,-0.006880142726004124,0.003198083955794573
1783693627212107800,3.607107666015625,-0.02581566944718361,-0.006575457286089659,0.01757976971566677
1783693627222069500,3.617069580078125,-0.02961679920554161,-0.0019404917256906629,0.034681256860494614
1783693627232032500,3.627032470703125,-0.03237472102046013,-0.00016661849804222584,0.0458158403635025
1783693627241994500,3.636994384765625,-0.029155755415558815,-0.00803972128778696,0.049740273505449295
1783693627251957800,3.646957763671875,-0.025762218981981277,-0.008277510292828083,0.04554160684347153
1783693627261919500,3.65691943359375,-0.02006571739912033,-0.008930517360568047,0.04450350999832153
1783693627271882500,3.666882568359375,-0.01486845500767231,-0.012859481386840343,0.03339690342545509
1783693627281844700,3.6768447265625,-0.009228678420186043,-0.01563982106745243,0.0179686788469553
1783693627291807700,3.686807861328125,-0.0020160649437457323,-0.015124469995498657,0.008615569211542606
1783693627301769500,3.69676953125,0.0030535284895449877,-0.014999568462371826,0.004899927414953709
1783693627311732500,3.706732421875,0.003941102884709835,-0.01720280759036541,-0.0017167446203529835
1783693627321694700,3.71669482421875,0.0027956771664321423,-0.015901586040854454,-0.007448932155966759
1783693627331657700,3.72665771484375,-0.0032263051252812147,-0.00852467492222786,-0.004836320877075195
1783693627341620700,3.736620849609375,-0.005211425479501486,-0.0019626454450190067,-0.001815497293137014
1783693627351582500,3.74658251953125,-0.00941199716180563,0.0014449029695242643,-0.00763400923460722
1783693627361545500,3.75654541015625,-0.009641295298933983,0.003710454097017646,-0.014570743776857853
1783693627371507700,3.7665078125,-0.013652835972607136,0.006375989411026239,-0.01982779987156391
1783693627381470700,3.776470703125,-0.010091923177242279,0.004630287643522024,-0.022544223815202713
1783693627391432400,3.786432373046875,-0.005633838940411806,-0.0016646195435896516,-0.020237987861037254
1783693627401395500,3.7963955078125,-0.0046884166076779366,-0.007339815609157085,-0.01611701212823391
1783693627411357700,3.806357666015625,-0.0015316782519221306,-0.014001727104187012,-0.004667161498218775
1783693627421320700,3.81632080078125,0.005307852290570736,-0.016296839341521263,0.009795401245355606
1783693627431282400,3.826282470703125,0.008371923118829727,-0.013650191947817802,0.02488071843981743
1783693627441245400,3.836245361328125,0.01071097794920206,-0.008000029250979424,0.03733419254422188
1783693627451208700,3.846208740234375,0.0076097846031188965,-0.006240740418434143,0.03949353098869324
1783693627461170400,3.85617041015625,0.0029332730919122696,0.00021635973826050758,0.03841521590948105
1783693627471133400,3.866133544921875,-0.00485942792147398,0.008312931284308434,0.031211813911795616
1783693627481095400,3.876095458984375,-0.012701904401183128,0.006463631987571716,0.018742894753813744
1783693627491058400,3.886058349609375,-0.01651410572230816,0.0005439668893814087,0.008480232208967209
1783693627501020400,3.8960205078125,-0.01899750344455242,0.0019032442942261696,-0.0013758598361164331
1783693627510983400,3.9059833984375,-0.01988333836197853,0.0033053827937692404,-0.012507641687989235
1783693627520945400,3.9159453125,-0.014948233962059021,0.001460344879887998,-0.02150033786892891
1783693627530908400,3.925908447265625,-0.007532715797424316,0.0032543078996241093,-0.028008481487631798
1783693627540870400,3.935870361328125,0.003269864246249199,0.003594393841922283,-0.034627765417099
1783693627550833400,3.94583349609375,0.009866704232990742,0.0032952940091490746,-0.03905902057886124
1783693627560795400,3.95579541015625,0.014962130226194859,0.013492005877196789,-0.03462059423327446
1783693627570758400,3.96575830078125,0.018763771280646324,0.019780239090323448,-0.02794056385755539
1783693627580721400,3.975721435546875,0.02789095602929592,0.020475590601563454,-0.025500843301415443
1783693627590683400,3.985683349609375,0.03594297915697098,0.011378186754882336,-0.023394498974084854
1783693627600646400,3.995646484375,0.041765183210372925,0.007222590036690235,-0.019173121079802513
1783693627610608400,4.0056083984375,0.04368484392762184,0.004151755478233099,-0.012345105409622192
1783693627620571400,4.0155712890625,0.04457114636898041,0.0048292637802660465,-0.0026248344220221043
1783693627630533400,4.025533447265625,0.04510562866926193,0.006610374432057142,0.002495105843991041
1783693627640496400,4.035496337890625,0.045055560767650604,0.008905220776796341,0.009635306894779205
1783693627650458400,4.045458251953125,0.04059276357293129,0.014296011067926884,0.015934031456708908
1783693627660421400,4.05542138671875,0.03299875929951668,0.013078680261969566,0.01944887265563011
1783693627670383400,4.06538330078125,0.027164703235030174,0.005279581993818283,0.015473234467208385
1783693627680346400,4.075346435546875,0.022049836814403534,-0.0016643444541841745,0.009984459728002548
1783693627690309400,4.085309326171875,0.01959606632590294,-0.00428035156801343,0.004530075006186962
1783693627700271400,4.095271240234375,0.015302518382668495,-0.0027809920720756054,-0.0023821594659239054
1783693627710234400,4.105234375,0.014207740314304829,-0.0012944223126396537,-0.007525194901973009
1783693627720196600,4.115196533203125,0.011499038897454739,-0.0020291884429752827,-0.01238679513335228
1783693627730159400,4.125159423828125,0.007610071450471878,0.0015415712259709835,-0.01392417773604393
1783693627740121300,4.135121337890625,0.0030368915759027004,0.009591508656740189,-0.01688002049922943
1783693627750084400,4.14508447265625,-0.001789382891729474,0.014908522367477417,-0.01999896951019764
1783693627760046600,4.155046630859375,-0.0030988589860498905,0.007741157431155443,-0.022747885435819626
1783693627770009300,4.16500927734375,-0.007394491229206324,0.004158133640885353,-0.022290823981165886
1783693627779971300,4.174971435546875,-0.008820346556603909,0.004030035808682442,-0.018057197332382202
1783693627789934300,4.184934326171875,-0.009627864696085453,0.010724697262048721,-0.01220736000686884
1783693627799896600,4.194896484375,-0.009562617167830467,0.012740708887577057,-0.009209439158439636
1783693627809859300,4.204859375,-0.008475802838802338,0.009315329603850842,-0.006742260884493589
1783693627819822300,4.214822265625,-0.008714954368770123,0.0022214672062546015,-0.0076788947917521
1783693627829784300,4.224784423828125,-0.003900052746757865,-0.00020119687542319298,-0.010806100443005562
1783693627839747300,4.234747314453125,-0.00007974822074174881,-0.008664988912642002,-0.00862603634595871
1783693627849709300,4.244709228515625,0.0024392784107476473,-0.011690877377986908,-0.007393840700387955
1783693627859672300,4.25467236328125,0.0041479626670479774,-0.008693755604326725,-0.0004618982784450054
1783693627869634300,4.26463427734375,0.0029406780377030373,-0.0037732634227722883,0.009752240963280201
1783693627879597300,4.274597412109375,0.0008311879937537014,-0.0007963823154568672,0.02163952775299549
1783693627889559600,4.2845595703125,-0.004817387089133263,0.0005250672111287713,0.02654082141816616
1783693627899522300,4.294522216796875,-0.008204394951462746,0.0036436286754906178,0.022965794429183006
1783693627909484300,4.304484375,-0.014227952808141708,0.006651913281530142,0.016157981008291245
1783693627919447300,4.314447265625,-0.013815429992973804,0.006206100340932608,0.004230482503771782
1783693627929409500,4.324409423828125,-0.010951017960906029,0.0015530497767031193,-0.010386145673692226
1783693627939372300,4.334372314453125,-0.00714988773688674,-0.0034648780710995197,-0.02325107902288437
1783693627949335300,4.344335205078125,-0.00316731259226799,-0.005937115289270878,-0.03172538802027702
1783693627959297500,4.354297607421875,0.003945724107325077,-0.004927510861307383,-0.03470786288380623
1783693627969260500,4.364260498046875,0.004486878402531147,-0.0030265464447438717,-0.03538696840405464
1783693627979222300,4.37422216796875,0.0006061200983822346,0.0008171936497092247,-0.03206760436296463
1783693627989185300,4.384185302734375,-0.0014097575331106782,0.005571234039962292,-0.021587194874882698
1783693627999147500,4.3941474609375,-0.005571745336055756,0.005330217536538839,-0.013378269039094448
1783693628009110500,4.404110595703125,-0.014302005991339684,-0.00019077258184552193,-0.0030416459776461124
1783693628019072300,4.414072265625,-0.017733221873641014,-0.0029146536253392696,0.00863524992018938
1783693628029035300,4.42403515625,-0.023499321192502975,-0.005926460959017277,0.01651952974498272
1783693628038997500,4.43399755859375,-0.02124948240816593,-0.014181726612150669,0.02435135282576084
1783693628048960500,4.44396044921875,-0.014692132361233234,-0.016803067177534103,0.033339086920022964
1783693628058922200,4.453922119140625,-0.010324015282094479,-0.011221613734960556,0.04132058098912239
1783693628068885200,4.46388525390625,-0.008299078792333603,-0.0001747914357110858,0.047409169375896454
1783693628078848300,4.47384814453125,-0.005262276623398066,0.002290762960910797,0.04859960079193115
1783693628088810500,4.483810546875,-0.001441897707991302,-0.004006583243608475,0.03746480867266655
1783693628098773500,4.4937734375,0.0029416654724627733,-0.010451165959239006,0.0240416768938303
1783693628108735200,4.5037353515625,0.007548118010163307,-0.015573450364172459,0.015323185361921787
1783693628118698200,4.5136982421875,0.007675150875002146,-0.016226990148425102,0.010043734684586525
1783693628128660500,4.523660400390625,0.007575764320790768,-0.01574900932610035,0.002937953919172287
1783693628138623500,4.53362353515625,0.006619156803935766,-0.004083031788468361,0.004694308619946241
1783693628148585200,4.543585205078125,-0.000800399633590132,0.009029053151607513,0.007101793773472309
1783693628158548500,4.553548583984375,-0.009568324312567711,0.0129556180909276,0.0029999930411577225
1783693628168510500,4.563510498046875,-0.01559954509139061,0.013218250125646591,-0.00668597687035799
1783693628178473500,4.573473388671875,-0.01632365956902504,0.011844059452414513,-0.014017925597727299
1783693628188436500,4.5834365234375,-0.01621592603623867,0.006015710532665253,-0.0238804928958416
1783693628198398500,4.5933984375,-0.013981533236801624,-0.0027641982305794954,-0.03333098441362381
1783693628208361500,4.603361572265625,-0.010661512613296509,-0.005556769203394651,-0.03427153080701828
1783693628218323500,4.613323486328125,-0.0047943019308149815,-0.00004695530515164137,-0.03120223805308342
1783693628228286500,4.623286376953125,0.0016068621771410108,0.004819960333406925,-0.025958195328712463
1783693628238248400,4.63324853515625,0.005855403374880552,0.010523386299610138,-0.018509067595005035
1783693628248211500,4.64321142578125,0.010463109239935875,0.01023817528039217,-0.007791563868522644
1783693628258173400,4.65317333984375,0.009876148775219917,0.0039059766568243504,0.0027044860180467367
1783693628268136400,4.663136474609375,0.011523446068167686,0.0010084265377372503,0.011205228045582771
1783693628278098400,4.673098388671875,0.008679988794028759,0.0020297488663345575,0.017056457698345184
1783693628288061400,4.6830615234375,0.00342963426373899,0.0003186833346262574,0.02060835063457489
1783693628298023400,4.6930234375,-0.000994142610579729,0.003569604130461812,0.023339422419667244
1783693628307986400,4.702986328125,-0.00445212610065937,0.009658091701567173,0.02530503086745739
1783693628317949200,4.71294921875,-0.007567225489765406,0.009670342318713665,0.019039146602153778
1783693628327911400,4.722911376953125,-0.009221221320331097,0.012384622357785702,0.008805805817246437
1783693628337874400,4.73287451171875,-0.0065327598713338375,0.020185021683573723,0.0011225861962884665
1783693628347836400,4.74283642578125,-0.007664609234780073,0.016670498996973038,-0.007802312262356281
1783693628357799200,4.752799072265625,-0.005686413496732712,0.005990424193441868,-0.012140335515141487
1783693628367761400,4.762761474609375,-0.006076758727431297,0.001911490922793746,-0.018489427864551544
1783693628377724400,4.772724365234375,-0.006016038823872805,0.0021927207708358765,-0.019027654081583023
1783693628387686400,4.782686279296875,-0.005546169355511665,0.002219123998656869,-0.01749233342707157
1783693628397649400,4.7926494140625,-0.007206384092569351,0.010154012590646744,-0.011742834933102131
1783693628407611400,4.802611328125,-0.007158373016864061,0.014000646770000458,-0.013535525649785995
1783693628417574400,4.812574462890625,-0.002598242135718465,0.008752621710300446,-0.013097701594233513
1783693628427536400,4.822536376953125,-0.0001994756457861513,0.009910035878419876,-0.0018119767773896456
1783693628437499400,4.83249951171875,0.003922564908862114,0.01469041034579277,0.010573320090770721
1783693628447461400,4.84246142578125,0.00713535537943244,0.007572852075099945,0.018037833273410797
1783693628457423600,4.852423583984375,0.009773217141628265,0.0006989672547206283,0.022126583382487297
1783693628467386600,4.86238671875,0.014462176710367203,0.0010251887142658234,0.025395579636096954
1783693628477348900,4.872348876953125,0.01684703677892685,0.0019322613952681422,0.026132475584745407
1783693628487312000,4.882311767578125,0.013533182442188263,-0.00130292191170156,0.01618942990899086
1783693628497273600,4.892273681640625,0.005907753016799688,-0.006348813883960247,0.00558205833658576
1783693628507236600,4.902236572265625,0.0033427777234464884,0.003364291973412037,0.007816048339009285
1783693628517198800,4.91219873046875,-0.0038458930794149637,0.016146667301654816,0.01337805949151516
1783693628527161900,4.922161865234375,-0.005299361422657967,0.012402503751218319,0.00845800619572401
1783693628537123600,4.93212353515625,-0.009272265248000622,0.0074655357748270035,0.005076590459793806
1783693628547086600,4.942086669921875,-0.008773617446422577,0.011464802548289299,0.004266832489520311
1783693628557048800,4.952048828125,-0.011157944798469543,0.005953124724328518,-0.0008062230190262198
1783693628567011800,4.96201171875,-0.0067749349400401115,-0.003797795856371522,-0.014368610456585884
1783693628576973600,4.9719736328125,-0.004441473167389631,-0.010164881125092506,-0.02217859774827957
1783693628586936800,4.981936767578125,0.001165128080174327,-0.00962664745748043,-0.017080944031476974
1783693628596899800,4.99189990234375,0.00686109671369195,-0.0051496075466275215,-0.00638835271820426
1783693628606861800,5.00186181640625,0.004677638877183199,-0.004915233701467514,0.0004461523494683206
1783693628616824600,5.011824462890625,0.001175049226731062,-0.004877416417002678,0.01251400075852871
1783693628626786800,5.021786865234375,-0.004243021365255117,0.0011740527115762234,0.023081352934241295
1783693628636749800,5.031749755859375,-0.006522953510284424,0.0025125574320554733,0.02852964773774147
1783693628646711800,5.0417119140625,-0.0077591147273778915,-0.0012206347892060876,0.029114235192537308
1783693628656674600,5.051674560546875,-0.0074640363454818726,-0.004585804883390665,0.02623189426958561
1783693628666636800,5.06163671875,-0.0024621442425996065,-0.004368495661765337,0.02539694495499134
1783693628676599800,5.071599853515625,-0.0007579876109957695,-0.0074649532325565815,0.018442632630467415
1783693628686561800,5.081561767578125,-0.0015251399017870426,-0.010010138154029846,0.014636287465691566
1783693628696524500,5.091524658203125,-0.0028812214732170105,-0.009162453934550285,0.010166171006858349
1783693628706486800,5.10148681640625,0.0018931892700493336,-0.005969055462628603,0.004941205959767103
1783693628716449800,5.11144970703125,0.0011632167734205723,-0.000840073567815125,-0.000863686203956604
1783693628726412800,5.121412841796875,0.002788259880617261,-0.0026999851688742638,-0.006741917692124844
1783693628736374500,5.13137451171875,0.003413836471736431,-0.008770927786827087,-0.005765601992607117
1783693628746337500,5.141337646484375,0.004157361574470997,-0.006153339520096779,-0.004647832829505205
1783693628756299800,5.1512998046875,-0.0006608293624594808,-0.002623585518449545,0.0004308153293095529
1783693628766262800,5.1612626953125,-0.00806898158043623,-0.0010248724138364196,0.00453893281519413
1783693628776224500,5.171224609375,-0.012415261007845402,-0.002127687446773052,0.009968852624297142
1783693628786187800,5.181187744140625,-0.015292752534151077,-0.0061736200004816055,0.008302420377731323
1783693628796149800,5.191149658203125,-0.013245048001408577,-0.007079360540956259,0.009806574322283268
1783693628806112800,5.20111279296875,-0.008665806613862514,-0.0021463409066200256,0.015597722493112087
1783693628816074500,5.211074462890625,-0.0035738423466682434,-0.004504303447902203,0.01509811356663704
1783693628826037800,5.221037841796875,-0.0032788487151265144,-0.006426015868782997,0.009978050366044044
1783693628835999700,5.230999755859375,-0.0021275642793625593,-0.003985228948295116,0.010841713286936283
1783693628845962800,5.240962646484375,-0.003018186194822192,-0.0033930090721696615,0.008393548429012299
1783693628855925800,5.25092578125,-0.001917768269777298,-0.004922196269035339,0.003603320801630616
1783693628865887700,5.2608876953125,-0.00439299363642931,0.0002981571014970541,0.0006542677292600274
1783693628875850800,5.270850830078125,-0.001367109944112599,-0.00006403285078704357,0.002863359870389104
1783693628885812700,5.280812744140625,-0.000328884954797104,-0.0020523290149867535,0.006861645728349686
1783693628895775700,5.290775634765625,-0.0007723012822680175,-0.008126466535031796,0.00426959153264761
1783693628905737700,5.30073779296875,-0.0031551667489111423,-0.008015443570911884,0.0027083768509328365
1783693628915700700,5.31070068359375,-0.003719756845384836,-0.0037131074350327253,0.00039941613795235753
1783693628925662700,5.320662841796875,-0.003959582652896643,0.000958629883825779,0.00034383905585855246
1783693628935625700,5.330625732421875,-0.0005382195813581347,0.0038004890084266663,-0.0020876270718872547
1783693628945587700,5.340587646484375,0.0034676971845328808,0.006972835399210453,-0.002794416854158044
1783693628955550700,5.35055078125,0.005969204008579254,0.007190149277448654,-0.003990975208580494
1783693628965512700,5.3605126953125,0.007900141179561615,0.002747772727161646,-0.009447736665606499
1783693628975475700,5.370475830078125,0.01198889221996069,0.0010236420203000307,-0.009202726185321808
1783693628985438700,5.380438720703125,0.014885745011270046,0.002242867834866047,-0.005468374118208885
1783693628995400700,5.390400634765625,0.013956568203866482,0.0021161013282835484,-0.0014568547485396266
1783693629005363700,5.40036376953125,0.015240420587360859,0.006066568195819855,0.0046397363767027855
1783693629015325700,5.41032568359375,0.01149042323231697,0.009761971421539783,0.013252932578325272
1783693629025288700,5.420288818359375,0.00879488606005907,0.008940394036471844,0.014124946668744087
1783693629035250700,5.430250732421875,0.006198037415742874,0.008165680803358555,0.014695128425955772
1783693629045213700,5.440213623046875,0.003972301259636879,0.009212333709001541,0.018149584531784058
1783693629055175700,5.45017578125,-0.00040566903771832585,0.011766837909817696,0.016761012375354767
1783693629065139000,5.460138916015625,-0.0023358140606433153,0.003413842059671879,0.010832112282514572
1783693629075100700,5.4701005859375,-0.0051614283584058285,0.005200823303312063,0.008493323810398579
1783693629085063700,5.480063720703125,-0.009639192372560501,0.008005629293620586,0.004448398947715759
1783693629095025700,5.490025634765625,-0.006507313810288906,0.007032776717096567,0.0012046686606481671
1783693629104989000,5.499989013671875,-0.0040015834383666515,0.004847137723118067,-0.0020172984804958105
1783693629114950700,5.50995068359375,0.00037026184145361185,0.001082493457943201,-0.006505257450044155
1783693629124913700,5.51991357421875,0.005416704807430506,-0.0037316810339689255,-0.004329749383032322
1783693629134876700,5.529876708984375,0.00867934338748455,-0.0019518904155120254,0.00023331097327172756
1783693629144839000,5.5398388671875,0.008417468518018723,0.00035490235313773155,0.007083754055202007
1783693629154801700,5.5498017578125,0.008534381166100502,0.002629774622619152,0.01320769265294075
1783693629164763600,5.559763671875,0.004625051748007536,0.004338494036346674,0.0186153557151556
1783693629174726700,5.5697265625,0.001665214542299509,0.005571537185460329,0.023016495630145073
1783693629184689000,5.57968896484375,-0.0015244727255776525,0.007468751631677151,0.02958095073699951
1783693629194652000,5.58965185546875,-0.0007260570419020951,0.004398126620799303,0.030212918296456337
1783693629204613600,5.599613525390625,-0.001478666439652443,-0.0014017053181305528,0.025975562632083893
1783693629214576600,5.60957666015625,0.0020657347049564123,-0.009637264534831047,0.02228362299501896
1783693629224539000,5.619538818359375,0.0044370610266923904,-0.008260684087872505,0.016578126698732376
1783693629234502000,5.629501953125,0.005083942785859108,-0.0040395730175077915,0.013911505229771137
1783693629244463600,5.639463623046875,0.004366942215710878,-0.0008952053030952811,0.010129528120160103
1783693629254426600,5.649426513671875,0.0005711386911571026,0.0037679895758628845,0.006992324721068144
1783693629264389600,5.6593896484375,-0.003835126059129834,0.006334257777780294,-0.002398677170276642
1783693629274351900,5.669351806640625,-0.00438906392082572,0.0007381575996987522,-0.008247511461377144
1783693629284314600,5.679314697265625,-0.003708416596055031,0.0009504073532298207,-0.012095826677978039
1783693629294276600,5.689276611328125,-0.006485028192400932,0.007312965579330921,-0.006706387735903263
1783693629304239900,5.699239990234375,-0.006492478307336569,0.007002389524132013,-0.00464285584166646
1783693629314201900,5.709201904296875,-0.005448785610496998,0.003351994790136814,-0.00031948008108884096
1783693629324164600,5.71916455078125,-0.0027594889979809523,-0.0003708560252562165,0.0018649182748049498
1783693629334126600,5.729126708984375,-0.0009008687920868397,-0.004893968813121319,0.0007652990752831101
1783693629344089900,5.73908984375,0.0017752787098288536,-0.004573277197778225,0.003674641251564026
1783693629354051800,5.7490517578125,-0.0013933505397289991,0.00016448635142296553,0.007666720077395439
1783693629364014600,5.7590146484375,-0.0036485432647168636,-0.004127968102693558,0.012761790305376053
1783693629373976800,5.768976806640625,-0.003406195668503642,-0.009632721543312073,0.017692899331450462
1783693629383939800,5.77893994140625,-0.0053338296711444855,-0.003538859076797962,0.024669241160154343
1783693629393901800,5.78890185546875,-0.005765794310718775,-0.0006258935900405049,0.0262205321341753
1783693629403864600,5.798864501953125,-0.0062624490819871426,0.000583889486733824,0.021780194714665413
1783693629413827600,5.80882763671875,-0.007457409519702196,0.000024359324015676975,0.012046340852975845
1783693629423789800,5.818789794921875,-0.0021095317788422108,-0.0022241072729229927,-0.0022067315876483917
1783693629433752800,5.8287529296875,0.00032086900318972766,-0.012242918834090233,-0.014350480400025845
1783693629443714600,5.838714599609375,0.00013173732440918684,-0.008610893040895462,-0.017119163647294044
1783693629453677600,5.848677490234375,0.00022787746274843812,-0.0004975734045729041,-0.011982191354036331
1783693629463639600,5.8586396484375,-0.0031517213210463524,0.0022683925926685333,-0.007140093948692083
1783693629473602600,5.8686025390625,-0.007783491164445877,0.003137914463877678,-0.001590066240169108
1783693629483564500,5.878564453125,-0.01206209883093834,0.008159542456269264,-0.0017867856658995152
1783693629493527300,5.88852734375,-0.014945769682526588,0.00774036068469286,-0.003446734044700861
1783693629503489500,5.898489501953125,-0.014078842476010323,0.004626342095434666,-0.009202322922647
1783693629513452500,5.90845263671875,-0.00988489668816328,0.0025514732114970684,-0.015880199149250984
1783693629523414500,5.91841455078125,-0.003047136589884758,-0.0007434030994772911,-0.015441721305251122
1783693629533377500,5.92837744140625,-0.000272388948360458,-0.0012320929672569036,-0.013695485889911652
1783693629543340500,5.938340576171875,0.0015700431540608406,0.004107016604393721,-0.007101184688508511
1783693629553302500,5.948302490234375,0.0034536970779299736,0.000499765039421618,-0.004171174950897694
1783693629563265500,5.958265625,0.006142356898635626,-0.0003599191550165415,-0.0007594343042001128
1783693629573227500,5.9682275390625,0.0032469681464135647,0.0022643597330898046,0.003303217701613903
1783693629583190500,5.9781904296875,0.002261577406898141,0.002217199420556426,0.009321454912424088
1783693629593152500,5.988152587890625,0.0016772797098383307,0.0003620414063334465,0.01198408380150795
1783693629603115500,5.998115478515625,0.00020434692851267755,-0.00005813851021230221,0.008551722392439842
1783693629613077500,6.008077392578125,0.004896304104477167,-0.0004818473244085908,0.00805877149105072
1783693629623040500,6.01804052734375,0.005139504559338093,-0.004599152132868767,0.004267403855919838
1783693629633002500,6.02800244140625,0.009193900041282177,-0.00856087077409029,-0.0020091338083148003
1783693629642965500,6.037965576171875,0.014113875105977058,-0.0117337042465806,-0.008994671516120434
1783693629652927500,6.047927490234375,0.020426366478204727,-0.011098274029791355,-0.011666621081531048
1783693629662890500,6.057890380859375,0.023714303970336914,-0.009948321618139744,-0.013427237048745155
1783693629672852500,6.0678525390625,0.02133450284600258,-0.0066345506347715855,-0.0156717486679554
1783693629682815500,6.0778154296875,0.017524439841508865,0.00332749355584383,-0.0095902094617486
1783693629692778500,6.087778564453125,0.008370357565581799,0.013472539372742176,-0.004232729319483042
1783693629702740500,6.097740478515625,0.003213348099961877,0.01295460108667612,-0.0019345837645232677
1783693629712703500,6.107703369140625,0.002990175038576126,0.00758220674470067,-0.006081924773752689
1783693629722665500,6.11766552734375,0.0006295192870311439,0.00599359767511487,-0.009240925312042236
1783693629732628500,6.12762841796875,-0.0003009891661349684,0.004426593892276287,-0.01607246696949005
1783693629742590500,6.137590576171875,0.005289899650961161,0.0029677231796085835,-0.020294012501835823
1783693629752553500,6.147553466796875,0.007353050634264946,0.003037497866898775,-0.02574656903743744
1783693629762515500,6.157515380859375,0.01291811652481556,0.0017235141713172197,-0.0337868370115757
1783693629772478500,6.167478515625,0.013268321752548218,0.0033088941127061844,-0.03299960494041443
1783693629782440400,6.1774404296875,0.014872876927256584,0.005261790007352829,-0.037322450429201126
1783693629792403500,6.187403564453125,0.017057733610272408,0.00010591011960059404,-0.04313000291585922
1783693629802365400,6.197365478515625,0.014963174238801003,-0.002346368506550789,-0.036454156041145325
1783693629812328700,6.20732861328125,0.012602814473211765,-0.002076856791973114,-0.022428087890148163
1783693629822290400,6.21729052734375,0.012296696193516254,0.0022446969524025917,-0.0025712361093610525
1783693629832253400,6.22725341796875,0.011378704570233822,0.00923842377960682,0.01503625325858593
1783693629842216400,6.237216552734375,0.011084520258009434,0.0038657495751976967,0.024507641792297363
1783693629852178700,6.2471787109375,0.01165976282209158,0.0015107163926586509,0.027760693803429604
1783693629862141700,6.2571416015625,0.010791515000164509,-0.0010840058093890548,0.02936999499797821
1783693629872103400,6.267103515625,0.014880266040563583,-0.00834218505769968,0.025140628218650818
1783693629882066400,6.27706640625,0.017995260655879974,-0.007430583238601685,0.022321563214063644
1783693629892028700,6.287028564453125,0.01856517791748047,-0.004940261133015156,0.020744705572724342
1783693629901991700,6.29699169921875,0.020248286426067352,-0.008448188193142414,0.020266147330403328
1783693629911953400,6.306953369140625,0.021155891939997673,-0.012817902490496635,0.019115662202239037
1783693629921916400,6.31691650390625,0.01750808395445347,-0.01040717400610447,0.01942071132361889
1783693629931878700,6.326878662109375,0.016462793573737144,-0.0018381864065304399,0.01628936640918255
1783693629941841700,6.336841552734375,0.014525305479764938,0.005082054995000362,0.009538442827761173
1783693629951803400,6.346803466796875,0.01339053176343441,0.005685793701559305,0.006192447617650032
1783693629961766400,6.356766357421875,0.011501428671181202,0.001921395887620747,0.0008575222454965115
1783693629971728600,6.366728759765625,0.01157333329319954,-0.006009497679769993,-0.006702393293380737
1783693629981691600,6.376691650390625,0.00862526148557663,-0.011685233563184738,-0.01122650969773531
1783693629991654700,6.386654541015625,0.005071274004876614,-0.013727611862123013,-0.007475180551409721
1783693630001616400,6.396616455078125,0.00602526543661952,-0.009010893292725086,0.004125343635678291
1783693630011579400,6.406579345703125,0.003145589493215084,0.0006731590256094933,0.018517065793275833
1783693630021541600,6.416541748046875,-0.000576778082177043,0.011441368609666824,0.035417452454566956
1783693630031504600,6.426504638671875,-0.005685253534466028,0.009436541236937046,0.04498672112822533
1783693630041466400,6.43646630859375,-0.0056938230991363525,-0.000013412907719612122,0.043683044612407684
1783693630051429600,6.4464296875,-0.006451492663472891,-0.009673231281340122,0.03787868469953537
1783693630061391600,6.4563916015625,-0.005282982252538204,-0.014055971056222916,0.026982758194208145
1783693630071354600,6.466354736328125,-0.0019207412842661142,-0.017955105751752853,0.013062946498394012
1783693630081316400,6.47631640625,0.002873686607927084,-0.01802707649767399,0.0023083826526999474
1783693630091279600,6.486279541015625,0.006436463911086321,-0.01409758161753416,-0.004353248048573732
1783693630101241600,6.49624169921875,0.007959890179336071,-0.010282022878527641,-0.013123041950166225
1783693630111204600,6.50620458984375,0.007518870756030083,-0.006396204698830843,-0.01593933440744877
1783693630121167400,6.51616748046875,0.002038637176156044,0.003263103077188134,-0.014072753489017487
1783693630131129600,6.526129638671875,-0.00325146596878767,0.013250223360955715,-0.010648993775248528
1783693630141092600,6.536092529296875,-0.013025219552218914,0.017417265102267265,-0.011025502346456051
1783693630151054600,6.5460546875,-0.018292419612407684,0.010100762359797955,-0.012710483744740486
1783693630161017300,6.556017333984375,-0.022150028496980667,0.005113971419632435,-0.011986076831817627
1783693630170979600,6.5659794921875,-0.022440578788518906,0.00628682691603899,-0.008028886280953884
1783693630180942600,6.575942626953125,-0.021219927817583084,0.006325196474790573,0.000681862817145884
1783693630190904600,6.585904541015625,-0.015526887960731983,-0.0010962341912090778,0.009062297642230988
1783693630200867300,6.595867431640625,-0.00918746180832386,-0.007205277215689421,0.015154354274272919
1783693630210829600,6.60582958984375,-0.0029692472890019417,-0.010293478146195412,0.027937261387705803
1783693630220792600,6.61579248046875,-0.0001461349311284721,-0.007384239695966244,0.037784721702337265
1783693630230754600,6.625754638671875,-0.00017170127830468118,-0.009340330958366394,0.04881926253437996
1783693630240717300,6.63571728515625,-0.005173336714506149,-0.00791474711149931,0.05530305579304695
1783693630250679600,6.645679443359375,-0.008445030078291893,-0.0037812553346157074,0.055447932332754135
1783693630260642600,6.655642578125,-0.008547209203243256,-0.001716202707029879,0.04857698455452919
1783693630270605600,6.66560546875,-0.011258041486144066,0.0012774565257132053,0.04068204388022423
1783693630280567300,6.6755673828125,-0.009265520609915257,0.001028446713462472,0.02119830995798111
1783693630290530600,6.685530517578125,-0.00360097736120224,0.004425575025379658,0.00498178880661726
1783693630300492500,6.695492431640625,0.0000352163624484092,0.008173404261469841,-0.003410637378692627
1783693630310455600,6.70545556640625,0.002385988598689437,0.010473576374351978,-0.00657553831115365
1783693630320417300,6.715417236328125,0.0008788112900219858,0.013051530346274376,-0.007388724014163017
1783693630330380500,6.725380615234375,-0.0033822464756667614,0.017938697710633278,-0.005496548023074865
1783693630340342500,6.735342529296875,-0.007432476617395878,0.0211171917617321,-0.009234150871634483
1783693630350305500,6.745305419921875,-0.009261269122362137,0.020713724195957184,-0.015201495960354805
1783693630360267500,6.755267578125,-0.007689376827329397,0.014626523479819298,-0.020262977108359337
1783693630370230500,6.76523046875,-0.005135405343025923,0.011195039376616478,-0.024991685524582863
1783693630380192500,6.775192626953125,-0.004267309792339802,0.0037693611811846495,-0.020792003720998764
1783693630390155500,6.785155517578125,-0.0021474335808306932,0.0015402953140437603,-0.010640566237270832
1783693630400117500,6.795117431640625,0.002181599149480462,0.004816469270735979,0.0009661850053817034
1783693630410080500,6.80508056640625,0.0012809181353077292,0.010027476586401463,0.011435870081186295
1783693630420043500,6.81504345703125,-0.004874682053923607,0.012759380042552948,0.01453495118767023
1783693630430005500,6.825005615234375,-0.01154243852943182,0.014890708029270172,0.019928650930523872
1783693630439968500,6.834968505859375,-0.016040507704019547,0.015195384621620178,0.020560072734951973
1783693630449930500,6.844930419921875,-0.0173885989934206,0.014239310286939144,0.015477695502340794
1783693630459894300,6.854894287109375,-0.016465939581394196,0.012147377245128155,0.007710504811257124
1783693630469856000,6.86485595703125,-0.012933256104588509,0.010745489038527012,0.004537348635494709
1783693630479819000,6.874819091796875,-0.008057910948991776,0.004226073157042265,-0.00015152222476899624
1783693630489781200,6.88478125,-0.00811064150184393,0.002815929474309087,-0.006581990979611874
1783693630499744300,6.894744140625,-0.007730628829449415,0.010722832754254341,-0.010176166892051697
1783693630509706200,6.904706298828125,-0.011011643335223198,0.01312793418765068,-0.01299245934933424
1783693630519669000,6.9146689453125,-0.012413949705660343,0.011797427199780941,-0.01921004429459572
1783693630529631200,6.92463134765625,-0.013703452423214912,0.010202992707490921,-0.02547379955649376
1783693630539594200,6.93459423828125,-0.012988554313778877,0.009593126364052296,-0.02857254631817341
1783693630549556200,6.94455615234375,-0.007076071109622717,0.00989406369626522,-0.023427851498126984
1783693630559519000,6.95451904296875,-0.000661561090964824,0.007615218870341778,-0.016353456303477287
1783693630569481200,6.964481201171875,0.0035321186296641827,0.007578999735414982,-0.0035907896235585213
1783693630579444200,6.9744443359375,0.010510247200727463,0.0082772895693779,0.00983270350843668
1783693630589407200,6.9844072265625,0.017193716019392014,0.00436830148100853,0.017112186178565025
1783693630599369000,6.994368896484375,0.021959945559501648,0.0013599615776911378,0.02518373727798462
1783693630609332000,7.00433203125,0.019466161727905273,0.0010739380959421396,0.02765222080051899
1783693630619294200,7.014294189453125,0.014790612272918224,-0.005378899164497852,0.026032375171780586
1783693630629257200,7.02425732421875,0.00859450176358223,-0.0016294344095513225,0.026328252628445625
1783693630639219000,7.034218994140625,-0.001249226275831461,0.005707583390176296,0.02267875336110592
1783693630649182200,7.04418212890625,-0.00977320596575737,0.009934285655617714,0.015335353091359138
1783693630659144200,7.054144287109375,-0.013442117720842361,0.008489275351166725,0.0003719325177371502
1783693630669107200,7.064107177734375,-0.01693405583500862,0.0035341973416507244,-0.011601906269788742
1783693630679069000,7.07406884765625,-0.014930911362171173,0.0015810590703040361,-0.019789930433034897
1783693630689032200,7.0840322265625,-0.011529522016644478,0.005417076405137777,-0.021336697041988373
1783693630698994200,7.093994140625,-0.010835911147296429,0.006190682761371136,-0.02164274826645851
1783693630708957200,7.103957275390625,-0.008499253541231155,0.00991830974817276,-0.017641615122556686
1783693630718919000,7.1139189453125,-0.009529546834528446,0.012947630137205124,-0.012369484640657902
1783693630728882200,7.123882080078125,-0.0089516406878829,0.010479945689439774,-0.01042937207967043
1783693630738845200,7.13384521484375,-0.006082786712795496,0.008336949162185192,-0.011657094582915306
1783693630748807200,7.14380712890625,-0.003409771714359522,0.005384035408496857,-0.008921229280531406
1783693630758770200,7.153770263671875,0.0013269835617393255,-0.00140995008405298,-0.004158385097980499
1783693630768732200,7.163732177734375,0.005340100731700659,-0.004820394329726696,0.0003865659818984568
1783693630778695200,7.173695068359375,0.007327028084546328,-0.007305926643311977,0.004131189081817865
1783693630788657200,7.1836572265625,0.013834995217621326,-0.0028592466842383146,0.012884200550615788
1783693630798620200,7.1936201171875,0.016736356541514397,0.0022020996548235416,0.023555582389235497
1783693630808582100,7.20358203125,0.017210666090250015,-0.001068794634193182,0.02664458192884922
1783693630818545200,7.213545166015625,0.021771252155303955,-0.006672910880297422,0.019658824428915977
1783693630828507100,7.223507080078125,0.020548062399029732,-0.003367395605891943,0.014384167268872261
1783693630838470100,7.23347021484375,0.016291819512844086,0.0011932897614315152,0.009025594219565392
1783693630848432000,7.24343212890625,0.010465088300406933,0.0013466877862811089,-0.0004499328788369894
1783693630858395100,7.25339501953125,0.007259831298142672,-0.0003132408019155264,-0.010677454993128777
1783693630868357000,7.263357177734375,0.00550613971427083,-0.003447248600423336,-0.01961582340300083
1783693630878320000,7.273320068359375,0.004992634057998657,-0.000027210800908505917,-0.025445012375712395
1783693630888283100,7.283283203125,0.007451796904206276,0.0016947891563177109,-0.024733681231737137
1783693630898245000,7.2932451171875,0.010545381344854832,-0.0044531747698783875,-0.022464755922555923
1783693630908208000,7.3032080078125,0.011188535019755363,-0.001743675209581852,-0.017076116055250168
1783693630918170000,7.313170166015625,0.008800258859992027,0.003748288843780756,-0.006371478550136089
1783693630928133400,7.32313330078125,0.0045394678600132465,0.003620989853516221,-0.0025013729464262724
1783693630938095000,7.33309521484375,-0.003305034711956978,0.0035285758785903454,0.0003848038031719625
1783693630948058000,7.34305810546875,-0.006317070219665766,-0.0014379530912265182,-0.00380115257576108
1783693630958020000,7.35302001953125,-0.008691571652889252,-0.0026978659443557262,-0.005070769693702459
1783693630967983400,7.3629833984375,-0.007220441475510597,0.0043166340328752995,-0.0042451899498701096
1783693630977945000,7.372945068359375,-0.005417947191745043,0.005806421861052513,-0.0025577773340046406
1783693630987908000,7.382908203125,0.0015973515110090375,-0.00021738209761679173,-0.0036632553674280643
1783693630997870000,7.3928701171875,0.004799857269972563,-0.0031871311366558075,-0.006047407165169716
1783693631007833300,7.402833251953125,0.00813333597034216,-0.008097733370959759,-0.01007597055286169
1783693631017795000,7.412795166015625,0.004074041731655598,-0.01119258999824524,-0.01001456007361412
1783693631027758000,7.422758056640625,0.002781875664368272,-0.004844946321099997,-0.013113414868712425
1783693631037721000,7.43272119140625,-0.000647693348582834,0.004507065750658512,-0.01011955738067627
1783693631047683300,7.442683349609375,0.00037069947575218976,0.0020806596148759127,-0.0038866945542395115
1783693631057646000,7.45264599609375,0.00021832724451087415,-0.0037631592713296413,-0.0033588018268346786
1783693631067608000,7.462608154296875,0.00380427367053926,-0.006625258829444647,0.003287116764113307
1783693631077571000,7.472571044921875,0.003783217165619135,-0.0019449793035164475,0.007075094617903233
1783693631087533300,7.482533203125,0.003989079501479864,0.0005650500534102321,0.012837642803788185
1783693631097496000,7.49249609375,0.001136119943112135,0.000957043026573956,0.014337139204144478
1783693631107458000,7.5024580078125,-0.0000015824625734239817,-0.0034816476982086897,0.009129860438406467
1783693631117421000,7.512421142578125,0.0006338197272270918,-0.0026182217989116907,0.004665248095989227
1783693631127383300,7.52238330078125,-0.0015941807068884373,-0.0030994547996670008,-0.0037945490330457687
1783693631137346000,7.532345947265625,-0.002914481097832322,-0.006585279479622841,-0.015346952714025974
1783693631147308000,7.54230810546875,-0.0022313802037388086,-0.005851312540471554,-0.023365464061498642
1783693631157271000,7.55227099609375,-0.0019332778174430132,0.002248678356409073,-0.023856695741415024
1783693631167233300,7.5622333984375,-0.0023703023325651884,0.009046929888427258,-0.02485404908657074
1783693631177196000,7.572196044921875,-0.00448754383251071,0.011877631768584251,-0.025392893701791763
1783693631187158000,7.582157958984375,-0.0012265027035027742,0.005813081748783588,-0.027828354388475418
1783693631197121000,7.59212109375,-0.0001590032916283235,0.006017876788973808,-0.02937607653439045
1783693631207084300,7.602084228515625,0.0003232951567042619,0.003837014315649867,-0.025542188435792923
1783693631217046000,7.6120458984375,-0.001668047159910202,-0.0011884194100275636,-0.024692099541425705
1783693631227009000,7.622009033203125,0.0014875323977321386,-0.005511262454092503,-0.019164178520441055
1783693631236971300,7.63197119140625,0.0009341004770249128,-0.004603095352649689,-0.008585124276578426
1783693631246934300,7.641934326171875,0.0006611263961531222,-0.005434800870716572,0.0051743630319833755
1783693631256896300,7.651896240234375,-0.0005249883979558945,-0.0023937327787280083,0.022455928847193718
1783693631266859000,7.66185888671875,-0.0012086218921467662,0.0022367052733898163,0.035129647701978683
1783693631276821200,7.6718212890625,-0.00003723973350133747,0.002957110060378909,0.03850288689136505
1783693631286784300,7.6817841796875,0.002081038663163781,0.0029461910016834736,0.03613453730940819
1783693631296746200,7.691746337890625,-0.0009345063008368015,0.0013656115625053644,0.03105822578072548
1783693631306709000,7.701708984375,0.0018732644384726882,0.0001229805639013648,0.016047583892941475
1783693631316671200,7.711671142578125,0.0075647723861038685,-0.010790372267365456,-0.006599104963243008
1783693631326634200,7.72163427734375,0.014584598131477833,-0.011343777179718018,-0.018776940181851387
1783693631336596200,7.73159619140625,0.019411388784646988,-0.004254743456840515,-0.026170790195465088
1783693631346559000,7.74155908203125,0.021689722314476967,0.0018838430987671018,-0.026494629681110382
1783693631356522000,7.75152197265625,0.02130230702459812,0.005027669481933117,-0.026497410610318184
1783693631366484200,7.761484130859375,0.015988236293196678,0.005306235980242491,-0.02423984929919243
1783693631376447200,7.771447265625,0.006170283071696758,0.004436718299984932,-0.02135692909359932
1783693631386409000,7.781408935546875,-0.0030101656448096037,0.004594110883772373,-0.021878642961382866
1783693631396372000,7.7913720703125,-0.006423623766750097,-0.0023732264526188374,-0.019875815138220787
1783693631406334200,7.801334228515625,-0.007110186852514744,-0.005768490489572287,-0.014852827414870262
1783693631416297200,7.811297119140625,-0.005461794324219227,-0.004335175268352032,-0.009765765629708767
1783693631426259000,7.821259033203125,-0.0010697093093767762,-0.00739328283816576,-0.008409949950873852
1783693631436222000,7.831221923828125,0.00006827854667790234,-0.007457176689058542,-0.0035933852195739746
1783693631446184200,7.84118408203125,0.0018669774290174246,0.0002963501028716564,0.005118613597005606
1783693631456147200,7.851147216796875,0.005039601121097803,0.0010143383406102657,0.011287293396890163
1783693631466109400,7.861109375,0.005583418533205986,-0.0011830358998849988,0.00804249756038189
1783693631476072400,7.871072509765625,0.0050588990561664104,0.0006859902641735971,0.004628140013664961
1783693631486034700,7.88103466796875,0.0040700677782297134,0.0008923852583393455,0.0004954467294737697
1783693631495997400,7.89099755859375,0.001856800401583314,-0.0054923007264733315,-0.007799362763762474
1783693631505959400,7.90095947265625,0.005653402768075466,-0.010425806976854801,-0.015096424147486687
1783693631515922400,7.91092236328125,0.00738498056307435,-0.005494176410138607,-0.018904197961091995
1783693631525885700,7.9208857421875,0.0044373939745128155,-0.00890941359102726,-0.021206501871347427
1783693631535847400,7.930847412109375,0.004012771882116795,-0.010834354907274246,-0.01766006462275982
1783693631545810400,7.940810546875,0.004988287575542927,-0.007243881467729807,-0.01201443001627922
1783693631555772400,7.9507724609375,0.001799779711291194,-0.004298705607652664,-0.005344952456653118
1783693631565735700,7.960735595703125,-0.0010982721578329802,-0.006804473698139191,-0.000686551327817142
1783693631575697400,7.970697509765625,-0.0014130105264484882,-0.007811155170202255,0.0006224536336958408
1783693631585660400,7.980660400390625,0.0011926260776817799,-0.006509668193757534,0.003973775543272495
1783693631595622700,7.99062255859375,0.0019786017946898937,-0.009355229325592518,0.00835522823035717
1783693631605585700,8.000585693359374,0.005732327233999968,-0.0070550572127103806,0.012467682361602783
1783693631615547400,8.01054736328125,0.0065031033009290695,0.002525136573240161,0.019758399575948715
1783693631625510400,8.020510498046875,0.007942009717226028,0.005503882188349962,0.018648661673069
1783693631635472600,8.03047265625,0.0063710580579936504,0.004953400231897831,0.015177024528384209
1783693631645435600,8.040435546875,0.005687957163900137,0.0015959532465785742,0.0010140682570636272
1783693631655397400,8.0503974609375,0.0029693255200982094,0.003488901536911726,-0.012623733840882778
1783693631665360400,8.0603603515625,0.0029613361693918705,0.0028473460115492344,-0.024136580526828766
1783693631675323400,8.070323486328125,0.0025669513270258904,0.0016998229548335075,-0.031925301998853683
1783693631685285600,8.08028564453125,0.00276801991276443,0.0037861433811485767,-0.030891193076968193
1783693631695248600,8.09024853515625,-0.0012146327644586563,0.0031541730277240276,-0.026768779382109642
1783693631705210400,8.10021044921875,-0.005995273124426603,0.004215176682919264,-0.017625881358981133
1783693631715173400,8.11017333984375,-0.009272216819226742,0.0035653915256261826,-0.011462241411209106
1783693631725135600,8.120135498046874,-0.00898725911974907,-0.0022999546490609646,-0.0036828815937042236
1783693631735098600,8.1300986328125,-0.006651333998888731,-0.004480863455682993,0.002486762125045061
1783693631745060400,8.140060302734375,-0.006084346678107977,-0.0030331690795719624,0.005529423709958792
1783693631755023400,8.1500234375,-0.005109744146466255,-0.0035919088404625654,0.010188527405261993
1783693631764985600,8.159985595703125,-0.0077388170175254345,-0.0028283807914704084,0.014886343851685524
1783693631774948600,8.169948486328124,-0.008961417712271214,-0.013002184219658375,0.02562852017581463
1783693631784910300,8.179910400390625,-0.0007133409380912781,-0.003857155330479145,0.02647567167878151
1783693631794873600,8.18987353515625,0.0025730193592607975,0.0037954600993543863,0.029448263347148895
1783693631804835600,8.199835693359375,0.0038563967682421207,0.0018084757030010223,0.03068024106323719
1783693631814798600,8.209798583984375,-0.0005516484379768372,-0.010141639038920403,0.027524100616574287
1783693631824760300,8.21976025390625,-0.0029357101302593946,-0.009005268104374409,0.01923208311200142
1783693631834723600,8.2297236328125,-0.004252500366419554,-0.004980985075235367,0.007517289370298386
1783693631844686600,8.2396865234375,-0.0030383653938770294,-0.004731713328510523,-0.0035324322525411844
1783693631854648600,8.249648681640625,-0.002322365529835224,-0.004109086003154516,-0.013993410393595695
1783693631864611600,8.259611572265625,-0.003181767649948597,-0.000672809430398047,-0.024505706503987312
1783693631874573600,8.269573486328126,-0.004679652396589518,-0.003000902943313122,-0.037504278123378754
1783693631884536600,8.27953662109375,-0.005485525354743004,-0.0031204787082970142,-0.05265207216143608
1783693631894498600,8.28949853515625,-0.005369335412979126,-0.005955981556326151,-0.065538689494133
1783693631904461600,8.299461669921875,-0.005776532925665379,-0.005595655646175146,-0.07309860736131668
1783693631914423600,8.309423583984374,-0.008160527795553207,-0.003677898086607456,-0.07193449884653091
1783693631924386600,8.319386474609376,-0.013177922926843166,-0.002223279792815447,-0.060642700642347336
1783693631934348500,8.3293486328125,-0.015145999379456043,-0.00039715005550533533,-0.04128391668200493
1783693631944311600,8.3393115234375,-0.014274879358708858,0.0018225947860628366,-0.015917571261525154
1783693631954273500,8.3492734375,-0.010410775430500507,0.00405061524361372,0.005110828671604395
1783693631964236500,8.359236572265624,-0.0052748690359294415,0.0012697421479970217,0.01991853676736355
1783693631974198500,8.369198486328125,-0.00037702114786952734,-0.0021710903383791447,0.030940650030970573
1783693631984161500,8.37916162109375,0.00553066935390234,-0.008850564248859882,0.0338597446680069
1783693631994123500,8.38912353515625,0.011359472759068012,-0.02085130661725998,0.03158002719283104
1783693632004086500,8.39908642578125,0.0150506142526865,-0.026159783825278282,0.025642776861786842
1783693632014049500,8.409049560546874,0.015638116747140884,-0.024056408554315567,0.02360677532851696
1783693632024011500,8.419011474609375,0.016018949449062347,-0.019094940274953842,0.019181666895747185
1783693632033974500,8.428974609375,0.01051284372806549,-0.015757426619529724,0.013406232930719852
1783693632043936500,8.4389365234375,0.006118627730756998,-0.00631652120500803,0.0075432839803397655
1783693632053899500,8.4488994140625,0.0011122087016701698,-0.0009076978312805295,-0.003108115866780281
1783693632063861500,8.458861572265626,-0.003756315913051367,-0.003938907757401466,-0.013798044994473457
1783693632073824500,8.468824462890625,-0.0019322311272844672,-0.0036765490658581257,-0.022864770144224167
1783693632083786500,8.478786376953124,0.002769579878076911,-0.00774745736271143,-0.031110184267163277
1783693632093749500,8.48874951171875,0.00903594121336937,-0.010930472053587437,-0.029897693544626236
1783693632103711500,8.49871142578125,0.013810455799102783,-0.008696612901985645,-0.02384912222623825
1783693632113674500,8.508674560546876,0.016281839460134506,-0.0014128382317721844,-0.014414697885513306
1783693632123636500,8.518636474609375,0.015443744137883186,-0.00017233786638826132,-0.004325578920543194
1783693632133599500,8.528599609375,0.015136606059968472,-0.0014669266529381275,0.0031584175303578377
1783693632143561700,8.538561767578125,0.011782354675233364,0.002405043225735426,0.009536156430840492
1783693632153524500,8.5485244140625,0.0036835765931755304,0.00624026358127594,0.01683124341070652
1783693632163487500,8.558487548828126,-0.0027498216368258,0.005331593099981546,0.017776133492588997
1783693632173449500,8.568449462890625,-0.007989886216819286,0.0023520158138126135,0.015416614711284637
1783693632183412500,8.57841259765625,-0.009004284627735615,-0.004473665729165077,0.008903587237000465
1783693632193374700,8.588374755859375,-0.007368179969489574,-0.006338924169540405,0.009757477790117264
1783693632203337500,8.59833740234375,-0.005703171715140343,-0.0034398071002215147,0.011916769668459892
1783693632213299500,8.608299560546875,-0.002150458050891757,-0.0034951965790241957,0.012163425795733929
1783693632223262500,8.618262451171875,-0.00047612868365831673,-0.00611521489918232,0.01430434174835682
1783693632233224700,8.628224609375,0.0019952463917434216,-0.016099387779831886,0.014889894053339958
1783693632243187500,8.6381875,0.0010402369080111384,-0.014889247715473175,0.014700543135404587
1783693632253149400,8.6481494140625,0.0023883769754320383,-0.013024508953094482,0.01210801862180233
1783693632263112400,8.658112548828125,0.002443770645186305,-0.012069765478372574,0.022128960117697716
1783693632273074700,8.66807470703125,-0.0020990706980228424,-0.009838530793786049,0.03240732476115227
1783693632283037400,8.678037353515625,-0.005092730280011892,-0.014048721641302109,0.040628768503665924
1783693632292999400,8.68799951171875,-0.003865971229970455,-0.013977144844830036,0.04122982174158096
1783693632302962400,8.69796240234375,-0.004817518871277571,-0.01141118910163641,0.04299656301736832
1783693632312924700,8.707924560546875,-0.006235633511096239,-0.00871338602155447,0.0391962006688118
1783693632322887400,8.717887451171874,-0.0047392030246555805,-0.009660672396421432,0.028297217562794685
1783693632332849400,8.727849365234375,0.0009586488595232368,-0.011925197206437588,0.014986041933298111
1783693632342812400,8.7378125,0.002947497647255659,-0.01085167657583952,0.0028271141927689314
1783693632352775700,8.747775634765626,0.005290290340781212,-0.01052276510745287,-0.0011665757047012448
1783693632362737400,8.7577373046875,0.004610118921846151,-0.01013101451098919,-0.001995351165533066
1783693632372700400,8.767700439453124,0.0003256350173614919,-0.004287762101739645,0.0011120110284537077
1783693632382662700,8.77766259765625,-0.006737867370247841,0.005952891428023577,0.005248432978987694
1783693632392625700,8.787625732421875,-0.013169525191187859,0.007814421318471432,0.003982816822826862
1783693632402587400,8.79758740234375,-0.01810542680323124,0.006125976797193289,-0.0016929121920838952
1783693632412550400,8.80755029296875,-0.014185340143740177,0.008511127904057503,-0.005712291691452265
1783693632422512600,8.8175126953125,-0.0134785370901227,0.002818621462211013,-0.010494796559214592
1783693632432475600,8.8274755859375,-0.011478131636977196,-0.003977768123149872,-0.015116335824131966
1783693632442437400,8.837437255859374,-0.007303360849618912,0.0008193840621970594,-0.010048074647784233
1783693632452400400,8.847400390625,-0.0033323413226753473,0.0038453068118542433,-0.004797490779310465
1783693632462361900,8.85736181640625,-0.002181056886911392,0.008154035545885563,0.00009739911183714867
1783693632472324900,8.867324951171875,-0.005937796551734209,0.009954827837646008,-0.0023756169248372316
1783693632482286800,8.877286865234375,-0.007994555868208408,0.004687095060944557,-0.007507262285798788
1783693632492249900,8.887249755859376,-0.008886040188372135,-0.001957511529326439,-0.007782714907079935
1783693632502211800,8.8972119140625,-0.00812943559139967,-0.008395170792937279,-0.00995691865682602
1783693632512174800,8.9071748046875,-0.006693677976727486,-0.010519314557313919,-0.009834885597229004
1783693632522137900,8.917137939453125,-0.005815101321786642,-0.011639972217381,-0.0048124296590685844
1783693632532099800,8.927099853515625,-0.006203779485076666,-0.008476627990603447,0.0010835963767021894
1783693632542062800,8.937062744140626,-0.005681001115590334,0.0013997043715789914,0.007765467278659344
1783693632552024800,8.94702490234375,-0.010501369833946228,0.010856596753001213,0.011569997295737267
1783693632561987800,8.95698779296875,-0.012631632387638092,0.014239076524972916,0.010887961834669113
1783693632571950000,8.9669501953125,-0.015589311718940735,0.010931668803095818,0.002203750191256404
1783693632581912800,8.976912841796874,-0.016691060736775398,0.007777154445648193,-0.008502157405018806
1783693632591874800,8.986874755859375,-0.01580682396888733,0.004668994341045618,-0.021218184381723404
1783693632601837800,8.996837890625,-0.011577724479138851,-0.0011827695416286588,-0.03372306004166603
1783693632611800000,9.006800048828126,-0.009303394705057144,0.004332093521952629,-0.033646076917648315
1783693632621762800,9.0167626953125,-0.006300947163254023,0.008980374783277512,-0.029425766319036484
1783693632631724800,9.026724853515624,-0.006299701519310474,0.0140241589397192,-0.022686243057250977
1783693632641687800,9.036687744140625,-0.008364450186491013,0.018044734373688698,-0.013700205832719803
1783693632651650000,9.046650146484374,-0.014878351241350174,0.026441920548677444,-0.0023546256124973297
1783693632661612800,9.05661279296875,-0.020733309909701347,0.034447651356458664,0.008735042996704578
1783693632671574800,9.06657470703125,-0.02797454036772251,0.03474806621670723,0.01864587515592575
1783693632681537800,9.076537841796876,-0.028603313490748405,0.027995089069008827,0.027090758085250854
1783693632691500000,9.0865,-0.026782633736729622,0.016061978414654732,0.030339200049638748
1783693632701462800,9.096462890625,-0.01846265234053135,0.0042556519620120525,0.02697616070508957
1783693632711425800,9.10642578125,-0.012047620490193367,-0.0026352659333497286,0.019920367747545242
1783693632721387800,9.1163876953125,-0.004056805744767189,-0.0062979115173220634,0.013275779783725739
1783693632731350800,9.126350830078126,-0.000621661136392504,-0.002185473684221506,0.009895662777125835
1783693632741312800,9.136312744140625,0.0007136478088796139,0.0011943441350013018,0.006883361376821995
1783693632751275800,9.14627587890625,0.0015524390619248152,0.002165068406611681,0.005181492306292057
1783693632761237800,9.15623779296875,0.0006549537647515535,0.005577376578003168,0.003658164059743285
1783693632771200800,9.16620068359375,-0.0019401824101805687,0.014345310628414154,0.005200229585170746
1783693632781162800,9.176162841796875,-0.002937536220997572,0.014440917409956455,0.00955263338983059
1783693632791125800,9.186125732421875,-0.0051610954105854034,0.005809636786580086,0.010315225459635258
1783693632801087700,9.196087646484376,-0.0020579800475388765,-0.0014573304215446115,0.014416227117180824
1783693632811051000,9.206051025390625,0.00031713175121694803,-0.0064297206699848175,0.02291581593453884
1783693632821012700,9.2160126953125,0.0024473941884934902,-0.00552531098946929,0.03416181355714798
1783693632830975700,9.225975830078125,0.0064790681935846806,-0.006032680626958609,0.03963460400700569
1783693632840937700,9.235937744140625,0.009138766676187515,-0.0012922537280246615,0.04342055320739746
1783693632850901000,9.24590087890625,0.011266176588833332,-0.00004267238546162844,0.039292674511671066
1783693632860862700,9.25586279296875,0.00893990509212017,-0.0034938626922667027,0.03189441189169884
1783693632870825700,9.26582568359375,0.0077919489704072475,-0.006368509493768215,0.02157193049788475
1783693632880788700,9.275788818359375,0.009069201536476612,-0.006741086021065712,0.01368391327559948
1783693632890751000,9.2857509765625,0.008217066526412964,-0.0038307569921016693,0.010351520031690598
1783693632900714000,9.2957138671875,0.008255948312580585,-0.006098971236497164,0.007943224161863327
1783693632910675700,9.30567578125,0.008919293992221355,-0.005065658129751682,0.009023873135447502
1783693632920638700,9.315638671875,0.0034371772781014442,-0.0017084776191040874,0.010236676782369614
1783693632930601000,9.32560107421875,-0.0020979938562959433,0.0004121933598071337,0.009967650286853313
1783693632940564000,9.33556396484375,-0.005009095184504986,0.0003458806313574314,0.0044719502329826355
1783693632950525700,9.345525634765625,-0.008737445808947086,-0.0007295390823855996,-0.006170423235744238
1783693632960488700,9.35548876953125,-0.010497795417904854,0.0019179093651473522,-0.015536229126155376
1783693632970451000,9.365450927734376,-0.007664675824344158,-0.002412335714325309,-0.0229814313352108
1783693632980414000,9.3754140625,-0.0016691014170646667,-0.0073330579325556755,-0.02574659138917923
1783693632990375700,9.385375732421876,-0.00036739633651450276,-0.005080877803266048,-0.021975217387080193
1783693633000338700,9.395338623046875,-0.0029647774063050747,-0.003868606872856617,-0.018327485769987106
1783693633010301000,9.405301025390624,-0.00589800113812089,-0.002018469385802746,-0.01214106660336256
1783693633020264000,9.415263916015626,-0.008270611055195332,-0.0007870238041505218,-0.006055211182683706
1783693633030225700,9.4252255859375,-0.009038649499416351,0.0020912811160087585,-0.0006049493094906211
1783693633040188700,9.435188720703126,-0.010210173204541206,0.0058524636551737785,0.0008169123902916908
1783693633050151000,9.44515087890625,-0.006254543084651232,0.005599712021648884,0.0025656186044216156
1783693633060114000,9.455114013671874,-0.0031189373694360256,0.006795205175876617,0.0028170207515358925
1783693633070077000,9.465076904296875,0.0005545241292566061,0.0005789181450381875,0.007528978865593672
1783693633080039000,9.475038818359375,0.007350112311542034,-0.004313841462135315,0.006390211172401905
1783693633090002000,9.485001953125,0.011815529316663742,-0.007385011296719313,0.005957837216556072
1783693633099964000,9.4949638671875,0.014779893681406975,-0.007893942296504974,0.007645482197403908
1783693633109927000,9.504927001953124,0.014569827355444431,-0.0046190484426915646,0.004990092478692532
1783693633119889000,9.514888916015625,0.015632696449756622,-0.0013313760282471776,0.001047814846970141
1783693633129852000,9.524851806640624,0.00819597952067852,0.0008947624592110515,-0.0006665711989626288
1783693633139814000,9.53481396484375,0.00025603140238672495,0.009592645801603794,-0.0017608641646802425
1783693633149777000,9.54477685546875,-0.007084801327437162,0.01967139169573784,-0.003069132100790739
1783693633159739000,9.55473876953125,-0.01322258822619915,0.013469424098730087,-0.01046499703079462
1783693633169702000,9.564701904296875,-0.01603771187365055,0.008416011929512024,-0.020577844232320786
1783693633179664000,9.574663818359374,-0.012472539208829403,0.008706562221050262,-0.0227174274623394
1783693633189627000,9.584626953125,-0.010209470055997372,0.01278234925121069,-0.019806861877441406
1783693633199588900,9.5945888671875,-0.008100247010588646,0.009436620399355888,-0.016562866047024727
1783693633209552000,9.6045517578125,-0.0052006905898451805,0.007466898299753666,-0.014461622573435307
1783693633219513900,9.614513916015625,-0.0008445580024272203,0.009060001000761986,-0.012603268958628178
1783693633229476900,9.624476806640626,0.002604882465675473,0.009481588378548622,-0.012034853920340538
1783693633239438800,9.63443896484375,0.006687241606414318,0.014441193081438541,-0.009453718550503254
1783693633249401900,9.64440185546875,0.005959418602287769,0.012345041148364544,-0.004325031768530607
1783693633259364900,9.65436474609375,0.006458495277911425,0.007240293547511101,-0.002717547584325075
1783693633269326800,9.664326904296875,0.010343124158680439,0.006159829441457987,0.00047523516695946455
1783693633279289900,9.674289794921876,0.015135749243199825,0.010391060262918472,0.008832501247525215
1783693633289251800,9.684251953125,0.016172194853425026,0.008840030990540981,0.018598265945911407
1783693633299214800,9.69421484375,0.01674264296889305,0.008692758157849312,0.02576509863138199
1783693633309176800,9.7041767578125,0.014679616317152977,0.00908852368593216,0.029128218069672585
1783693633319139800,9.714139892578125,0.01340263057500124,0.013110695406794548,0.02904406189918518
1783693633329101800,9.724101806640626,0.013109853491187096,0.017158180475234985,0.025755468755960464
1783693633339064800,9.73406494140625,0.010151081718504429,0.009833954274654388,0.018174247816205025
1783693633349026800,9.74402685546875,0.01073533110320568,0.0039257388561964035,0.005817117169499397
1783693633358990000,9.753989990234375,0.006914494093507528,0.009686954319477081,-0.0014101690612733364
1783693633368951800,9.763951904296874,0.002244299976155162,0.015839897096157074,-0.004790271632373333
1783693633378914800,9.773914794921875,-0.0018532398389652371,0.010243795812129974,-0.00632265442982316
1783693633388876800,9.783876708984375,-0.004783820826560259,0.010319119319319725,-0.006575332954525948
1783693633398840000,9.793840087890626,-0.002701761433854699,0.016231071203947067,-0.005978252738714218
1783693633408801800,9.8038017578125,-0.004324853420257568,0.016764027997851372,-0.0065378048457205296
1783693633418764800,9.813764892578124,-0.004023916088044643,0.008938595652580261,-0.010691802948713303
1783693633428726800,9.823726806640625,-0.0018510615918785334,0.014224948361515999,-0.01006779633462429
1783693633438690000,9.83368994140625,0.001799865858629346,0.018640203401446342,-0.009093345142900944
1783693633448652800,9.84365283203125,0.005173814948648214,0.016084089875221252,-0.003405884373933077
1783693633458614800,9.85361474609375,0.004926673602312803,0.015904061496257782,-0.0025262427516281605
1783693633468578600,9.86357861328125,0.006520166527479887,0.016998905688524246,0.0012014650274068117
1783693633478540500,9.87354052734375,0.008809419348835945,0.012937852181494236,0.0035628899931907654
1783693633488503600,9.883503662109375,0.00774697121232748,0.005455159582197666,0.005797453224658966
1783693633498465500,9.893465576171875,0.004227869678288698,0.007323367055505514,0.009626545943319798
1783693633508428500,9.903428466796875,0.0021967338398098946,0.007585426326841116,0.012140617705881596
1783693633518390500,9.913390625,-0.000026473062462173402,0.0066344114020466805,0.016196079552173615
1783693633528353500,9.923353515625,-0.0014133721124380827,0.007272264454513788,0.023091021925210953
1783693633538315500,9.9333154296875,0.0027310391888022423,0.014119251631200314,0.0283742006868124
1783693633548278500,9.943278564453125,0.0029565999284386635,0.0144627895206213,0.029757728800177574
1783693633558240500,9.953240478515625,0.003064457792788744,0.008155890740454197,0.020983677357435226
1783693633568203500,9.96320361328125,-0.0005453137564472854,0.010492527857422829,0.01630309224128723
1783693633578165500,9.97316552734375,-0.00035409879637882113,0.009824074804782867,0.003851747838780284
1783693633588128500,9.98312841796875,0.00014011733583174646,0.001040155882947147,-0.004462674260139465
1783693633598090500,9.993090576171875,0.0021260366775095463,0.0015831744531169534,-0.011864397674798965
1783693633608053500,10.003053466796874,0.000820535293314606,0.003304947167634964,-0.01191243901848793
1783693633618016500,10.0130166015625,-0.001140083884820342,-0.00037847086787223816,-0.012541212141513824
1783693633627978500,10.022978515625,-0.002734023379161954,-0.00180250674020499,-0.004399871453642845
1783693633637941200,10.032941162109376,-0.0074898963794112206,0.003692926373332739,0.010625682771205902
1783693633647903500,10.042903564453125,-0.007962693460285664,0.001222069375216961,0.02068110927939415
1783693633657866500,10.052866455078124,-0.007915022782981396,0.0033952086232602596,0.02681303769350052
1783693633667828500,10.062828369140625,-0.008076496422290802,0.005447731353342533,0.02821558713912964
1783693633677791200,10.072791259765625,-0.01085896696895361,-0.0022248360328376293,0.02112225629389286
1783693633687753500,10.08275341796875,-0.009552971459925175,-0.010035110637545586,0.017601853236556053
1783693633697716500,10.092716552734375,-0.004698028322309256,-0.016393939033150673,0.0075992862693965435
1783693633707678500,10.102678466796876,0.0007646951708011329,-0.014274602755904198,0.007715195883065462
1783693633717641500,10.112641357421875,0.0014400728978216648,-0.00460173562169075,0.011563729494810104
1783693633727603500,10.122603515625,0.004476513247936964,-0.004560177214443684,0.010470910929143429
1783693633737566500,10.13256640625,0.008399616926908493,-0.0072576929815113544,0.007935049012303352
1783693633747528400,10.142528564453125,0.00714536290615797,-0.0028083627112209797,0.0017683570040389895
1783693633757491700,10.15249169921875,0.004275007639080286,0.0011930364416912198,-0.0057465508580207825
1783693633767453400,10.162453369140625,0.002224953845143318,-0.001961217960342765,-0.00843548309057951
1783693633777416400,10.17241650390625,0.0020803441293537617,0.004136355593800545,-0.009013921953737736
1783693633787379500,10.18237939453125,-0.000042215295252390206,0.008186263963580132,-0.007081370800733566
1783693633797341700,10.192341796875,-0.0037245680578052998,0.0029638048727065325,-0.004535388201475143
1783693633807304400,10.202304443359376,0.0010715865064412355,-0.009214610792696476,-0.00960987526923418
1783693633817266400,10.212266357421875,0.005377385299652815,-0.008881981484591961,-0.008188013918697834
1783693633827229400,10.2222294921875,0.0045430357567965984,-0.00039952504448592663,-0.003023107536137104
1783693633837191700,10.232191650390625,0.005451706238090992,-0.0003731596516445279,-0.002243600320070982
1783693633847154400,10.242154541015625,0.001723259687423706,-0.0008729961700737476,0.0006106701330281794
1783693633857116400,10.252116455078125,0.0023981048725545406,-0.0035742404870688915,-0.0034376010298728943
1783693633867079400,10.262079345703125,0.004969482775777578,-0.006187346763908863,-0.0024353289045393467
1783693633877041700,10.272041748046876,0.0022685048170387745,0.0002686880761757493,0.007993876002728939
1783693633887004400,10.28200439453125,0.005954358726739883,-0.0025614702608436346,0.009434189647436142
1783693633896966400,10.29196630859375,0.011423160322010517,-0.012389067560434341,0.009018470533192158
1783693633906929400,10.301929443359375,0.010135997086763382,-0.005718918517231941,0.020872686058282852
1783693633916891600,10.3118916015625,0.0015587543603032827,-0.0013731722719967365,0.029554856941103935
1783693633926854400,10.3218544921875,-0.00682020653039217,-0.009049754589796066,0.028347566723823547
1783693633936816400,10.33181640625,-0.009489758871495724,-0.01412227563560009,0.028746508061885834
1783693633946779400,10.341779296875,-0.006002911366522312,-0.004750584252178669,0.03261039778590202
1783693633956741600,10.35174169921875,-0.005396243184804916,0.00171849993057549,0.038333531469106674
1783693633966704400,10.361704345703124,0.0007897764444351196,-0.0009601355995982885,0.032006748020648956
1783693633976666400,10.371666259765625,0.002563974354416132,-0.0010594716295599937,0.013786465860903263
1783693633986629400,10.38162939453125,-0.00039176357677206397,0.0037904090713709593,0.004180286545306444
1783693633996592600,10.391592529296876,0.002843976952135563,-0.013564879074692726,-0.017687994986772537
1783693634006554400,10.401554443359375,0.012641137465834618,-0.02974940836429596,-0.036159031093120575
1783693634016517400,10.411517333984374,0.013915193267166615,-0.020219817757606506,-0.03647195175290108
1783693634026479400,10.421479248046875,0.014186940155923367,-0.006577572785317898,-0.02542012743651867
1783693634036442600,10.431442626953125,0.011881708167493343,-0.004181260243058205,-0.00604882650077343
1783693634046404400,10.441404296875,0.005770600866526365,-0.0005795459728688002,0.0006742542609572411
1783693634056367400,10.451367431640625,0.00046052367542870343,0.002460984978824854,0.006042654626071453
1783693634066329600,10.46132958984375,-0.002828397089615464,-0.002363561186939478,0.007530831731855869
1783693634076292600,10.471292724609375,-0.002568738767877221,-0.014719828963279724,-0.0015159263275563717
1783693634086254300,10.48125439453125,-0.001893510576337576,-0.01018931157886982,0.000056101358495652676
1783693634096217300,10.49121728515625,-0.005855761934071779,-0.0009563986677676439,0.018634580075740814
1783693634106179600,10.5011796875,0.0017056083306670189,-0.005737286061048508,0.023163365200161934
1783693634116142600,10.511142578125,0.0100120073184371,-0.0075154779478907585,0.023731417953968048
1783693634126104600,10.5211044921875,0.015361822210252285,-0.0005638248985633254,0.029245274141430855
1783693634136067300,10.5310673828125,0.015820153057575226,0.002608532551676035,0.023589519783854485
1783693634146029600,10.541029541015625,0.013205433264374733,0.004827179946005344,0.009409559890627861
1783693634155992600,10.55099267578125,0.008091631345450878,0.01023952104151249,-0.009015785530209541
1783693634165954600,10.56095458984375,-0.0002569708740338683,0.018747830763459206,-0.019667578861117363
1783693634175917300,10.570917236328125,-0.010500021278858185,0.03086521290242672,-0.009889783337712288
1783693634185880300,10.58088037109375,-0.0154840974137187,0.052969954907894135,-0.0019478799076750875
1783693634195842600,10.590842529296875,-0.003140079090371728,0.0647088959813118,-0.034802764654159546
1783693634205805600,10.6008056640625,-0.002014465630054474,0.29117345809936523,0.030644841492176056
1783693634215767300,10.610767333984375,0.03001883439719677,0.24576550722122192,-0.021452980116009712
1783693634225730300,10.620730224609375,0.051528509706258774,0.054779861122369766,-0.0981101244688034
1783693634235692500,10.630692626953126,0.0324203297495842,-0.0561613030731678,-0.11969611048698425
1783693634245655600,10.640655517578125,0.029884498566389084,0.014037461951375008,-0.08504829555749893
1783693634255617300,10.6506171875,-0.007084972225129604,0.012109866365790367,-0.03286152705550194
1783693634265580300,10.660580322265625,-0.03037373535335064,-0.026734741404652596,0.022685686126351357
1783693634275542500,10.67054248046875,-0.05108540505170822,-0.0424782857298851,0.08320149779319763
1783693634285505500,10.680505615234376,-0.06937598437070847,-0.08390401303768158,0.14125598967075348
1783693634295467300,10.69046728515625,-0.10376138985157013,-0.13227392733097076,0.2144140899181366
1783693634305430500,10.700430419921876,-0.09420372545719147,-0.09612604975700378,0.3050788342952728
