time,seconds_elapsed,z,y,x
1783693574312160300,0.06016015625,0.056309916242957114,-0.011401533283176831,-0.029325755466520786
1783693574322123300,0.070123291015625,0.14208382737934588,-0.009887201463780365,-0.007127513792365789
1783693574332085200,0.080085205078125,0.20642624343037605,-0.00698720113937743,-0.027614421503990887
1783693574342048500,0.090048583984375,0.22272914345562456,0.0028092076352564618,-0.03216097889244556
1783693574352010200,0.10001025390625,0.2356558450460434,0.027302985501219516,0.0495136802315712
1783693574361973200,0.10997314453125,0.21472528522014617,0.06382083986233919,0.11085413798764347
1783693574371936300,0.119936279296875,0.1816360855668783,0.11130807403391227,0.1159235502064228
1783693574381898500,0.1298984375,0.15887831031382083,0.08606453724657184,0.10165376344397664
1783693574391861200,0.139861328125,0.15914660586118698,0.023456753835268317,0.03677636373341083
1783693574401822700,0.14982275390625,0.10622808562219142,0.000029651927814120425,-0.013913228409737348
1783693574411785700,0.15978564453125,0.11354337707161903,0.01899908030666411,-0.05201850265935063
1783693574421749000,0.1697490234375,0.10898352181017398,0.020313291010656393,0.025130934125185012
1783693574431711000,0.1797109375,0.053338206955790515,0.052899852071143685,0.08406447687000036
1783693574441674000,0.189674072265625,-0.05384557195603847,0.050936406511068344,0.05611278623566031
1783693574451635700,0.1996357421875,-0.14150164357721803,0.05714873255412094,0.014392974750697611
1783693574461599000,0.209598876953125,-0.17684417511522768,0.022940913267619906,-0.012739216194301843
1783693574471562000,0.21956201171875,-0.14460428576767445,-0.008425047356192953,-0.0490964777328074
1783693574481524000,0.22952392578125,-0.15614976213276385,-0.006311169607914053,-0.06027312078550458
1783693574491487000,0.239487060546875,-0.1705997277677059,-0.0036364613727899267,-0.07355681912004947
1783693574501449000,0.249448974609375,-0.2171107190519571,0.03759102285085246,-0.04240019496455788
1783693574511412000,0.259411865234375,-0.22632103046774862,0.047757082355208695,-0.03048734659180045
1783693574521375000,0.269375,-0.2378156534284353,0.01759926911187358,-0.03513414948433637
1783693574531337000,0.2793369140625,-0.2234989587843418,0.03052045427695848,-0.011201631363481283
1783693574541299700,0.2892998046875,-0.21707798582613466,0.03808814958487637,0.012852321179956197
1783693574551262000,0.299261962890625,-0.22670798395872116,0.03546908052712679,0.04757701308056712
1783693574561225000,0.309224853515625,-0.23710779742002486,0.026892737899627536,0.09089140028059482
1783693574571188000,0.31918798828125,-0.2395014145582914,0.03209252589927055,0.0499316133826971
1783693574581149700,0.329149658203125,-0.16718085923492906,0.043510562792676497,0.032172377069294454
1783693574591113000,0.339113037109375,-0.09867664732933044,0.014766534470557235,0.027195757700502872
1783693574601075000,0.349074951171875,-0.02751344534754753,-0.010471860350784845,-0.0022485095791518685
1783693574611038000,0.359037841796875,0.006319850671291351,0.00784038390261121,-0.038410102415084836
1783693574621000000,0.369,0.0634469285160303,0.030965668160654602,-0.0272729145899415
1783693574630963000,0.378962890625,0.13576806836128233,0.014660051021934486,0.04743424360901117
1783693574640926000,0.388926025390625,0.16310907975137232,0.028609209261578505,0.057012219293415545
1783693574650888000,0.398887939453125,0.13863807083964347,0.0604215847789077,0.060224167077243325
1783693574660851000,0.408850830078125,0.09472995553016662,0.06478553844233974,0.07318009476214647
1783693574670813000,0.41881298828125,0.05051964240372181,0.05205057373146992,0.09137304631769656
1783693574680776000,0.42877587890625,0.04363046741187572,0.04542735163285397,0.10446502147242426
1783693574690739000,0.438739013671875,-0.06919453225731849,0.03064898059403058,0.06499634991511702
1783693574700701000,0.448700927734375,-0.2236333988189697,0.047498467951640484,-0.01171191897317767
1783693574710664000,0.458663818359375,-0.27150807967185975,0.03558390711240936,-0.04450272020176053
1783693574720626000,0.4686259765625,-0.21094576668143272,0.006372055782563984,-0.0392132354915142
1783693574730589000,0.4785888671875,-0.14915595772266388,-0.007664342349115759,-0.031741292175650596
1783693574740552000,0.488552001953125,-0.11770751101374625,-0.013178434162051417,0.0021364275068044662
1783693574750514000,0.498513916015625,-0.06071195059418678,0.0033735612364602274,0.014914076015353201
1783693574760477000,0.508476806640625,0.052532735791802405,0.014666715941450092,0.06816182820871472
1783693574770439000,0.51843896484375,0.09701602064073085,0.01858425699465442,0.10515636473745107
1783693574780402000,0.52840185546875,0.054984805119037625,0.0627478220696561,0.10039967172965407
1783693574790365000,0.538364990234375,0.04006079223155975,0.07623896174295805,0.09756912447884679
1783693574800327000,0.548326904296875,0.0413221904695034,0.08064520647842437,0.12403335303440689
1783693574810290000,0.5582900390625,-0.0019224924951791761,0.08497696120557374,0.0783770788833499
1783693574820252000,0.568251953125,-0.03102525286078453,0.08316568313306197,0.0447718925319612
1783693574830215000,0.57821484375,0.012385434320569037,0.040218663374125024,0.03266059897765517
1783693574840178000,0.588177978515625,0.07036416055858134,-0.007438810514530632,0.028495880513638255
1783693574850140000,0.598139892578125,0.003451601758599281,0.006271554550155997,-0.0030183249078691004
1783693574860103000,0.60810302734375,-0.12458616461157798,0.027556181660864966,-0.052805561383813614
1783693574870065000,0.61806494140625,-0.19688801523447036,0.024819242394086904,-0.09942381243482232
1783693574880028000,0.62802783203125,-0.14425181906819343,-0.009739931630331556,-0.09015563335195183
1783693574889991000,0.637990966796875,-0.14685294147729872,0.023718589959095697,-0.053042146618664264
1783693574899953000,0.647952880859375,-0.14608955588936806,0.047608915189327666,-0.029430384884774684
1783693574909916000,0.657916015625,-0.07489654329121112,0.031255113810615145,0.007840484367311001
1783693574919878000,0.6678779296875,-0.033193829071521755,0.016090209405927453,0.056982408677041525
1783693574929841000,0.6778408203125,-0.09708908587694168,0.05146794697134755,0.043117695584148165
1783693574939804000,0.687803955078125,-0.13595453084409237,0.04738504787215497,0.023927257423847912
1783693574949766000,0.697765869140625,-0.041187750434875485,-0.009274009460391244,0.019345774852484465
1783693574959729000,0.70772900390625,0.08077741802334786,-0.012252017199248075,0.03473886655643582
1783693574969691100,0.717691162109375,0.009950900650024413,0.025691591082094237,0.02285904367044568
1783693574979654000,0.72765380859375,0.032764205482602116,0.004827869964309502,-0.009600187516212463
1783693574989617000,0.737616943359375,0.06728723733127116,0.021558235870720817,0.0369314081646502
1783693574999579000,0.747578857421875,0.044136663368344306,0.014708900840563,0.0443688646890223
1783693575009542000,0.7575419921875,-0.014299158987402916,0.0571930100872647,0.026464959207922217
1783693575019503900,0.76750390625,-0.08739479033648967,0.04177853310198989,0.01855988517180085
1783693575029467000,0.777466796875,-0.17442016283869743,0.02675757862908067,-0.02366159222498536
1783693575039430000,0.787429931640625,-0.2641635621279478,0.03834236637454014,-0.06747194624841213
1783693575049391900,0.797391845703125,-0.2842652699142694,0.030205406111571936,-0.10553381974771618
1783693575059355100,0.807355224609375,-0.22419921600818632,0.005002721353605738,-0.09723930800259113
1783693575069316900,0.81731689453125,-0.08792144455909728,-0.024397932259074877,-0.07195406009852885
1783693575079279900,0.82727978515625,0.03604629589319229,-0.015020913373713847,-0.04180222907140851
1783693575089243000,0.837242919921875,0.06142915895283222,-0.00048399668274796563,0.004751724571734666
1783693575099205000,0.847205078125,0.01653320164978504,0.0660113447770942,0.04181596533581614
1783693575109167900,0.85716796875,-0.013303133687376975,0.09004088439848273,0.05517375181987881
1783693575119129900,0.8671298828125,0.043462709629535676,0.06966717300405725,0.03617182196900248
1783693575129092900,0.8770927734375,0.03630933074355125,0.044554683284438214,0.002081190188229084
1783693575139055900,0.887055908203125,-0.014862638089060782,0.033205763821199066,-0.0650359512731433
1783693575149017900,0.897017822265625,-0.04393734140396118,0.015488215791631954,-0.07748568300157785
1783693575158980900,0.90698095703125,-0.01122632741332054,-0.022666537322627845,-0.058560471648722884
1783693575168942800,0.91694287109375,0.025451836642622946,-0.023733926808834075,-0.06770882374420761
1783693575178905900,0.92690576171875,-0.03687690149843693,-0.039983069086540486,-0.07875394937172532
1783693575188869000,0.936869140625,-0.08929565552175045,-0.006578355477005243,-0.048004006320983166
1783693575198830800,0.946830810546875,-0.10079963083267211,0.030816085355821993,-0.0006476502537727355
1783693575208793900,0.9567939453125,-0.0454658661454916,-0.004157850331813096,0.034769553955644364
1783693575218755800,0.966755859375,-0.024622400081157684,-0.01127435867297463,0.05213087699264288
1783693575228719000,0.976718994140625,-0.021394085684418678,0.01174588974143844,0.05379632598683238
1783693575238682000,0.98668212890625,0.0300070157289505,-0.02832188935333397,0.06812807206958532
1783693575248643800,0.996643798828125,0.06131751527190208,-0.05774397676722146,0.0915939955919981
1783693575258606800,1.00660693359375,0.040840544432401656,-0.04233617611790541,0.07926613667756319
1783693575268569000,1.016569091796875,-0.023574936854839322,-0.017241879642102866,0.06671060648709536
1783693575278532000,1.026531982421875,-0.1007826796978712,0.002061814200901426,0.07065671376436948
1783693575288494800,1.036494873046875,-0.11934066517353058,0.006372233879077248,0.06654182579144835
1783693575298456800,1.046456787109375,-0.11818623444139957,0.02711776512742508,0.06836378052160143
1783693575308419800,1.056419921875,-0.08620937994420527,0.037101289405417626,0.04894362525865435
1783693575318382000,1.066382080078125,-0.05381459229588508,0.015807988081197252,0.07927431998401879
1783693575328344800,1.0763447265625,-0.009209726893901824,-0.002569914420088753,0.07441606629788876
1783693575338306800,1.086306884765625,-0.03717266957461834,0.005336383458739147,0.02464095865115523
1783693575348269800,1.096269775390625,-0.014054828837513923,0.02176412457320839,0.007571165906637907
1783693575358233000,1.106233154296875,-0.016043372306227682,-0.004982756848633289,-0.000590074847638607
1783693575368194800,1.11619482421875,-0.021182488760352135,-0.010601373048545791,-0.016331249336898324
1783693575378157800,1.12615771484375,-0.004601940837502479,-0.015512169772665946,-0.01891235187128186
1783693575388119800,1.136119873046875,-0.02444821255803108,-0.022065591737814246,-0.018039222298562526
1783693575398083300,1.146083251953125,-0.02351414657831192,-0.0428818318685051,-0.06160773039013147
1783693575408046600,1.156046630859375,0.010058452677726745,-0.060327737049572165,-0.041991906424611807
1783693575418008300,1.16600830078125,0.013685411003232001,-0.052051847806526344,0.005020312380045652
1783693575427971300,1.175971435546875,-0.023922142857313155,-0.04624771897187456,0.02213730526715517
1783693575437933600,1.18593359375,-0.02662497207522392,0.0013034016156103462,0.050657735700160265
1783693575447896600,1.195896484375,-0.014574468797445296,0.011778536202292888,0.07511676191315055
1783693575457859600,1.205859619140625,0.0022907412856817246,-0.0010670903753954917,0.10539324223324656
1783693575467821300,1.2158212890625,-0.03550970479846,0.004175258124340326,0.09904036607518792
1783693575477784300,1.225784423828125,-0.11227554909288882,0.029826663326518607,0.04384031077027321
1783693575487746600,1.23574658203125,-0.14122165759205818,0.033975955892540516,0.03664309274256229
1783693575497709600,1.24570947265625,-0.1259405018299818,0.019247529509244486,0.06711378046050667
1783693575507672300,1.25567236328125,-0.10984335350990294,-0.010367445561662315,0.07372574594616889
1783693575517634300,1.26563427734375,-0.09184884713590144,-0.013163241159496828,0.035004093363881106
1783693575527597300,1.275597412109375,-0.03596154021918774,-0.02638319920860231,0.022663959489762783
1783693575537559600,1.2855595703125,-0.013141805645823477,-0.05278784306403249,0.04232391485795378
1783693575547522300,1.295522216796875,-0.0894850406140089,-0.019475264717359095,0.016746844400465487
1783693575557485300,1.3054853515625,-0.17674480639398096,0.022666233645239845,0.004966682496666908
1783693575567447300,1.315447265625,-0.17938567629158494,0.03266672732434235,0.0257850141197443
1783693575577410600,1.32541064453125,-0.14243804764449597,0.01162254192298278,0.03727306120917201
1783693575587372300,1.335372314453125,-0.09211129746437072,0.0055967879605945195,0.028247020319104192
1783693575597335300,1.345335205078125,0.0004395604610443115,-0.0061926623613573605,0.016359452518075704
1783693575607298300,1.35529833984375,0.06086451080739498,-0.014633213247358797,0.04162628798261284
1783693575617260500,1.365260498046875,0.07892097650170325,-0.005636087924521416,0.05200798126533627
1783693575627223600,1.3752236328125,0.09046236121356487,0.00973076422647573,0.04597483858093619
1783693575637185300,1.385185302734375,0.06919862391054629,0.04182986599700525,0.013014672134816645
1783693575647148300,1.395148193359375,0.06683189477920531,0.049422229955298824,-0.0074549921810626975
1783693575657110500,1.405110595703125,0.07973287740647793,0.04278221655208617,-0.013055588667094708
1783693575667073500,1.415073486328125,0.057815060108900064,0.03195605830433778,-0.0000713116705417633
1783693575677036500,1.42503662109375,0.054047232007980346,0.015945428357087076,-0.009467354916781186
1783693575686998300,1.434998291015625,0.06237842250168323,0.00991958306315355,-0.029564532658457755
1783693575696961300,1.444961181640625,0.043002106380462646,-0.006299858196033165,-0.02835062682405114
1783693575706923500,1.454923583984375,-0.014988894817233084,-0.014379768209252505,-0.041022623001039024
1783693575716886500,1.464886474609375,-0.11620821236670016,0.02234366889367811,-0.021869009719789025
1783693575726849300,1.474849365234375,-0.15641688863635062,0.02180544296428561,0.008544979374855757
1783693575736811500,1.4848115234375,-0.17736849125027657,0.018827048208005726,0.02795549002662301
1783693575746774500,1.4947744140625,-0.19743162059187888,0.04530849275984801,0.04720072711408138
1783693575756736500,1.504736572265625,-0.16590426342785358,0.026761695398483425,0.07604717463105916
1783693575766699300,1.51469921875,-0.10698445694744586,0.020784666815493253,0.11200213897898792
1783693575776662300,1.524662353515625,-0.04519230990111828,0.016532662793667986,0.08310834518894553
1783693575786624500,1.53462451171875,0.0059773208439350125,0.01767785990657285,0.09674041856974362
1783693575796587500,1.54458740234375,0.06776829884648322,0.01910022085988894,0.10328370273336768
1783693575806549200,1.55454931640625,0.1221937165170908,0.014427105349162592,0.0855168676353991
1783693575816512300,1.56451220703125,0.11535130327641964,0.03099191684676334,0.07865005060583352
1783693575826475300,1.574475341796875,0.03740355572104454,0.042382184383831914,0.05359510432630777
1783693575836437500,1.5844375,-0.023451602736115455,0.04745877526206895,0.013171177870780228
1783693575846400500,1.594400390625,-0.047321138623356816,0.01602452147528529,-0.009778028301149606
1783693575856362200,1.6043623046875,-0.09570026186704635,-0.011047847307566553,-0.061707099111378186
1783693575866325500,1.614325439453125,-0.125016957244277,-0.030699454972520468,-0.0966214683651924
1783693575876288500,1.62428857421875,-0.11406477059721946,-0.05479169369973242,-0.07530147083029151
1783693575886250500,1.63425048828125,-0.0938946737498045,-0.05705404000799171,-0.05599632024914026
1783693575896213500,1.644213623046875,-0.11938859596848488,-0.03444919029432349,-0.03942366337180137
1783693575906175500,1.654175537109375,-0.1042857193827629,0.007589322617836296,-0.000015489830076694487
1783693575916138500,1.664138427734375,-0.06686579704880714,0.03875522605832666,0.036689708363264795
1783693575926101500,1.6741015625,-0.047131753531098365,0.042260859559103844,0.10861059684455394
1783693575936063500,1.6840634765625,-0.045516135028004646,0.05674095547082834,0.09860504339784383
1783693575946026200,1.694026123046875,0.012397124758362769,0.05239530008248985,0.09348828490599989
1783693575955988500,1.703988525390625,0.08837678711116313,-0.015896346784662455,0.08100012086331844
1783693575965951500,1.713951416015625,0.11710720703303813,-0.03089671284398064,0.049550066719204186
1783693575975913500,1.72391357421875,0.04182897094786167,-0.011977173180086537,0.022105594954639672
1783693575985876200,1.733876220703125,-0.01736848343014717,0.017099046238465233,-0.002081044057756662
1783693575995839200,1.743839111328125,-0.013320084822177886,0.02560568463061936,-0.03593260638564825
1783693576005801500,1.753801513671875,-0.04135492369532585,-0.00023840273260138927,-0.05067278713881969
1783693576015764500,1.763764404296875,-0.07666706009507179,0.028596801871154456,-0.04895283147841692
1783693576025726200,1.773726318359375,-0.0846095435321331,0.023700645593740046,-0.03745572429969907
1783693576035689500,1.783689453125,-0.0740828888207674,0.011641666748560965,-0.009658639705181122
1783693576045652500,1.793652587890625,-0.10447627351880073,0.034431088382052256,0.024433307249844074
1783693576055614500,1.803614501953125,-0.13148352290987966,0.04044042093260213,0.05916062949895858
1783693576065577500,1.813577392578125,-0.1418745685428381,0.04519695867677219,0.08032806682065129
1783693576075539500,1.82353955078125,-0.13759820639789103,0.04923236080585047,0.10067615058347583
1783693576085502500,1.83350244140625,-0.10460720642209052,0.04300910237682983,0.11735723627135157
1783693576095465500,1.843465576171875,-0.09132511552274226,0.029529114285204557,0.10858253979384898
1783693576105427500,1.853427490234375,-0.041811435291171074,0.007963170032063498,0.09445873737335204
1783693576115390500,1.863390380859375,0.04190203618407249,-0.008352087151259183,0.10888590665459633
1783693576125352400,1.8733525390625,0.08588613933920859,0.012036803545989095,0.11198737980127334
1783693576135315500,1.8833154296875,0.05486497813165187,0.03565613666498102,0.0977764836192131
1783693576145278500,1.893278564453125,0.02094341930747032,0.05278224444030784,0.07877703798636794
1783693576155240400,1.903240478515625,-0.061847092103958126,0.07748568300157785,0.06079699852913618
1783693576165203500,1.913203369140625,-0.12024901219010352,0.10044621428512036,-0.007835808192193507
1783693576175165400,1.92316552734375,-0.08474281452298164,0.05643894945010543,-0.031168752984702584
1783693576185128400,1.93312841796875,-0.03710720312297344,-0.009830196879804133,-0.03628112756237387
1783693576195091500,1.943091552734375,-0.039563364103436464,-0.03307402948359959,-0.07786693740412592
1783693576205053400,1.953053466796875,-0.017809212934970856,-0.029686542469775302,-0.062058396767079825
1783693576215016400,1.963016357421875,-0.01409808345735073,-0.012048786244727671,-0.01028261682242155
1783693576224978400,1.972978515625,-0.022712182545661926,0.004189578910637646,0.025905279498547314
1783693576234941400,1.98294140625,-0.028369185394048688,0.0411097076294478,0.05501563864871859
1783693576244904400,1.992904541015625,-0.1103898814767599,0.07412382361935452,0.08366393324509262
1783693576254866400,2.002866455078125,-0.12602116585075854,0.08498232236728072,0.12187632113099098
1783693576264829400,2.012829345703125,-0.09229717542529106,0.0685564261500258,0.11370850450545548
1783693576274791400,2.02279150390625,-0.09253039965927601,0.03356930218725465,0.07043824870809912
1783693576284754400,2.03275439453125,-0.13291677058339119,0.02741212213123217,0.00829582691937685
1783693576294716400,2.04271630859375,-0.11966741290986538,0.013268235903931782,-0.0261084008552134
1783693576304679400,2.052679443359375,-0.06813011789619922,0.01196351911406964,-0.005152268196642398
1783693576314642400,2.062642333984375,-0.015918284621834755,0.004731357637140899,-0.010852233403921127
1783693576324604400,2.0726044921875,0.010223872372508049,0.014947740822937339,-0.016262129623442888
1783693576334567400,2.0825673828125,0.02426525720655918,0.034487933135824274,0.01112520512640476
1783693576344529400,2.092529296875,-0.0038531682968139646,0.029499121005740016,0.026879239097237585
1783693576354492400,2.102492431640625,-0.007623919007182121,0.04087309499513358,0.0152671272367239
1783693576364455400,2.112455322265625,0.028801147070527076,0.0689534626435954,0.02039294581785798
1783693576374417400,2.12241748046875,0.04411620510220527,0.03978109850734472,0.034335984843969346
1783693576384380400,2.13238037109375,0.09855974295139312,0.03356653484143317,0.04488587430045008
1783693576394342400,2.14234228515625,0.1069739355534315,0.017315428935503585,0.04601064054667949
1783693576404305700,2.1523056640625,0.04266074559688568,0.024634245782578362,0.010082418075203894
1783693576414268700,2.1622685546875,-0.01772796439230442,0.017963526713848113,-0.009334814578294753
1783693576424231000,2.17223095703125,-0.058331777459383005,-0.004399002143926918,-0.0050888475716114046
1783693576434194000,2.18219384765625,-0.13125439032912253,-0.019678011614689603,-0.015603081192821264
1783693576444155600,2.19215576171875,-0.16702479189038275,0.023980658978363496,-0.010192746581882238
1783693576454118700,2.20211865234375,-0.14592939689159393,-0.001299127299292013,0.02117152897492051
1783693576464081700,2.21208154296875,-0.11096212840676307,0.010784255334781482,0.03339417394921183
1783693576474044000,2.2220439453125,-0.0471954664170742,-0.006923305590311065,0.05652165929749608
1783693576484007000,2.2320068359375,-0.04919043962657451,0.007566078739566728,0.08045271611362695
1783693576493968600,2.24196875,-0.09456862748861312,0.0563199627129361,0.07762377629801631
1783693576503931600,2.251931640625,-0.12005085926949977,0.048911111228540534,0.05876885370239615
1783693576513894000,2.261893798828125,-0.1432943722128868,0.02785188352167606,0.05635565508082509
1783693576523857000,2.27185693359375,-0.14876841970980167,0.006606786987045779,-0.006021890638023614
1783693576533820000,2.28181982421875,-0.05117255335450172,-0.04023098856615834,-0.019269640876352787
1783693576543781600,2.29178173828125,0.0369826999604702,-0.05090937237367034,-0.01977612909376621
1783693576553745000,2.301744873046875,0.0972188497364521,-0.04496893120771274,0.006615911008417606
1783693576563707000,2.311706787109375,0.11951076104342936,0.00967143525467254,0.041646307857334613
1783693576573670000,2.321669921875,0.09238894536197186,0.03830632238020189,0.052729865799099204
1783693576583632600,2.331632568359375,0.059414896520972246,0.03103419421906583,0.05243935841992497
1783693576593595000,2.341594970703125,0.011068506503105162,0.008289625507453456,0.03614610300585627
1783693576603558000,2.351557861328125,-0.06175473764538764,-0.008475841395091265,-0.01297331721112132
1783693576613520000,2.361519775390625,-0.15662147129774093,-0.021544042948586865,-0.050208092236518856
1783693576623482600,2.371482666015625,-0.2081751329243183,-0.04235327794975601,-0.044783144578337666
1783693576633445600,2.381445556640625,-0.18953297629654406,-0.050241272986913096,-0.03550181375294924
1783693576643408000,2.391407958984375,-0.15049451285004614,-0.012953151205927133,-0.012918518283963202
1783693576653371000,2.401370849609375,-0.14760463662743567,0.011237442462379113,0.025374533622711897
1783693576663332600,2.41133251953125,-0.13384206873476504,0.0243993867139332,0.042027416129410265
1783693576673295600,2.421295654296875,-0.10096680409312248,0.03382640048717148,0.059112698704004284
1783693576683259000,2.4312587890625,-0.08518179046213627,0.018696982954395935,0.03720321084335446
1783693576693220900,2.441220947265625,-0.07832710226178169,0.009732097667036577,0.040795390116423365
1783693576703184000,2.451183837890625,-0.06260287890732288,0.006957865447038784,0.019082301610708237
1783693576713145900,2.461145751953125,-0.03307166399657726,-0.020630891892733053,-0.008024754893034697
1783693576723108900,2.47110888671875,-0.0037111294776201245,-0.01737755265259184,-0.012351678181439637
1783693576733070800,2.48107080078125,-0.003485504028201103,-0.007611178256617859,0.0027745792798697945
1783693576743033900,2.491033935546875,0.03750233992040157,-0.025467472603172062,0.025891104842722414
1783693576752996600,2.50099658203125,0.08333528581261634,-0.030332420891569924,0.024026918406039474
1783693576762958800,2.510958740234375,0.10754852057099341,-0.04241388556319289,0.03264876240938902
1783693576772921900,2.520921875,0.07176350596249104,-0.033056146767036984,0.05968889115676283
1783693576782883800,2.5308837890625,0.035250177079439164,-0.007660077165951952,0.048747372034192084
1783693576792846600,2.5408466796875,-0.0223211374014616,0.01700524874147959,0.043201866736263035
1783693576802809600,2.5508095703125,-0.030111645147204397,0.010368130548251793,0.06721563339978456
1783693576812771800,2.560771728515625,-0.09895195713937283,0.022739499810850248,0.05555588300526142
1783693576822734800,2.57073486328125,-0.1729869151651859,0.00937782260295935,0.025846681179106233
1783693576832696800,2.58069677734375,-0.18686171126067638,-0.016878005632618442,-0.0062616907432675355
1783693576842659600,2.59065966796875,-0.1899672760605812,-0.013345657654851675,-0.01716156268119812
1783693576852622800,2.600622802734375,-0.16799159109592438,-0.015369318102719262,-0.006464958230406046
1783693576862584800,2.610584716796875,-0.12482406502068041,-0.0004910714525729417,0.018207564602792263
1783693576872547800,2.6205478515625,-0.09231938725709915,0.010382780128112062,0.01752118977382779
1783693576882509800,2.630509765625,-0.06058394030034542,0.008331592352502047,0.027282266940176485
1783693576892472800,2.640472900390625,-0.023797639694809913,0.02702221863134764,0.0326769655905664
1783693576902435800,2.650435791015625,-0.029343583384156224,0.038000142507860435,0.028263533062487838
1783693576912397800,2.660397705078125,-0.0374924030482769,0.05305469557298347,0.02437032501623034
1783693576922360800,2.67036083984375,-0.008600070562958717,0.04638037804136984,0.024253274507820603
1783693576932322800,2.68032275390625,0.04052665617763996,0.027453687117481602,0.03743044372797012
1783693576942285800,2.690285888671875,0.10001929410994052,0.013119155422598124,0.016316782420128583
1783693576952247800,2.700247802734375,0.14493103350400924,-0.013261486502736806,0.0051097442291677
1783693576962210800,2.7102109375,0.16763503274321556,-0.011481663014413787,0.034167642539739605
1783693576972173600,2.720173583984375,0.11339549303352832,0.005476778310118243,0.02089621916487813
1783693576982135800,2.7301357421875,-0.04281622841954231,0.025885898944642393,0.020146423710882662
1783693576992098800,2.740098876953125,-0.12759119164645671,0.04710243610506877,0.008240005078911782
1783693577002060800,2.750060791015625,-0.15639292323887347,0.029961249491618946,0.017569558960199357
1783693577012023800,2.76002392578125,-0.13759820639789103,-0.008144289619475602,0.014181962348520755
1783693577021986800,2.76998681640625,-0.10659691893458366,-0.030805764891207215,-0.026996581866592168
1783693577031948800,2.77994873046875,-0.05999941841065883,-0.018310979311494155,-0.015748773273825643
1783693577041911800,2.789911865234375,0.024629998865723608,-0.015904785819444805,0.07133841241821647
1783693577051873800,2.799873779296875,0.029076456880569455,0.04186833484387025,0.11646613265052437
1783693577061836800,2.8098369140625,-0.046722003686428065,0.08196959608313627,0.11052534442469478
1783693577071799800,2.8197998046875,-0.08776654625833034,0.06908630437618121,0.0991908804617822
1783693577081761800,2.82976171875,-0.08666706058382988,0.03072221479360014,0.04611673126965761
1783693577091724800,2.839724853515625,-0.07918401135206223,-0.020528527496801688,-0.015334347254037857
1783693577101686800,2.849686767578125,-0.007791092267632484,-0.04488719860785641,-0.018228461260348557
1783693577111649800,2.85964990234375,0.03496434587538242,-0.03989624018645845,0.00568593668192625
1783693577121612800,2.86961279296875,0.05748012906610966,0.011497180243954061,0.01857566726282239
1783693577131574800,2.87957470703125,0.02341302429139614,0.04856669997135177,0.05871829255893826
1783693577141537800,2.889537841796875,-0.030952187624573704,0.08972194550926797,0.0656948535732925
1783693577151499800,2.899499755859375,-0.07748655978441238,0.08326330742179415,0.045209261035919185
1783693577161462800,2.909462890625,-0.08727379430532455,0.03961229954538867,0.023158757269382477
1783693577171425800,2.91942578125,-0.047923196169734,-0.005600523420795798,-0.01861293053328991
1783693577181387800,2.9293876953125,0.011049801802635192,-0.047363260732032356,-0.059294923403114076
1783693577191350800,2.939350830078125,0.0637783524274826,-0.07603416901901364,-0.052851884743571276
1783693577201312800,2.949312744140625,0.07328618548512458,-0.06676878468142822,-0.03553542376160621
1783693577211275800,2.95927587890625,-0.0029576807618141173,-0.021136256732139737,0.002942483192682266
1783693577221238000,2.969238037109375,-0.07361468678712844,0.010758408507471904,0.042038960436731575
1783693577231200800,2.97920068359375,-0.093850834608078,0.026421951183257623,0.07814955373778938
1783693577241163800,2.989163818359375,-0.08774374990463256,0.02946279845018871,0.09472411031126976
1783693577251125800,2.999125732421875,-0.050798459345102305,-0.0043367962284479285,0.08694427009001374
1783693577261088800,3.0090888671875,-0.028224808487296103,-0.02474501268067397,0.062321870008856056
1783693577271050800,3.01905078125,-0.001021159741282463,-0.018781117573892697,0.08224310666173697
1783693577281013800,3.029013671875,-0.03489244968295097,-0.007945040720328688,0.10759762040972709
1783693577290976800,3.038976806640625,-0.052602293896675104,0.006901815277710556,0.13561740784421564
1783693577300938800,3.048938720703125,-0.07347147892415523,0.02736549737737514,0.14233794827088714
1783693577310901800,3.05890185546875,-0.06279226399958134,0.0426301860618405,0.1721495875582099
1783693577320863700,3.06886376953125,-0.06902326734364032,0.04520693208151497,0.14284852814152835
1783693577330826800,3.07882666015625,-0.08199322355389595,0.04123153477767482,0.0882671892568469
1783693577340789800,3.088789794921875,-0.09273673588633537,0.047065419429773464,0.045177842984348536
1783693577350752000,3.098751953125,-0.13358487910330294,0.04289235326251946,0.010481938786804675
1783693577360715000,3.108715087890625,-0.14786767147779464,0.041842807676969095,0.0014103051893413067
1783693577370676700,3.1186767578125,-0.16669336797893047,0.03687762301764451,-0.04531783597692847
1783693577380639700,3.1286396484375,-0.22609014432132243,0.03389182127304375,-0.12402166259661317
1783693577390602000,3.13860205078125,-0.2752747387290001,0.02636232995050959,-0.12817249866575
1783693577400564500,3.148564453125,-0.24380115757882595,0.013166839622380211,-0.11063611132279037
1783693577410527500,3.158527587890625,-0.16530454396903513,-0.01124005454457365,-0.11276844717636704
1783693577420489500,3.168489501953125,-0.0554781415939331,-0.015854023746587335,-0.10456848184689879
1783693577430452200,3.1784521484375,0.023795886129140853,0.0018659674018155783,-0.06654241031333803
1783693577440414500,3.18841455078125,0.09442717319130897,0.014359684402449056,-0.0012745499804615974
1783693577450377500,3.19837744140625,0.11281097114384174,0.06515270952060818,0.051531742055714126
1783693577460340500,3.208340576171875,0.07485504223704338,0.04346460019252263,-0.017375936084240675
1783693577470302500,3.218302490234375,0.06944178501665592,0.02954721619747579,-0.0286716754719615
1783693577480265500,3.228265380859375,0.052075639674067496,0.06320406880402006,0.00637391894608736
1783693577490227500,3.2382275390625,0.01590016444325447,0.05796778471888974,0.0007141396187245845
1783693577500190500,3.2481904296875,0.01875321578681469,0.03926510267606936,-0.012030775664001703
1783693577510153500,3.258153564453125,0.024693711751699446,0.016916739340964704,-0.034670477495342494
1783693577520115500,3.268115478515625,-0.002766542103886604,0.012296093802992254,-0.06067220310568809
1783693577530078500,3.278078369140625,-0.049935120514035224,0.01630257123168558,-0.09479469132944941
1783693577540040400,3.28804052734375,-0.09481880285739898,0.06994496703213081,-0.07092106378898023
1783693577550003500,3.29800341796875,-0.1097404776573181,0.08785448027011007,-0.05306158197149634
1783693577559966500,3.307966552734375,-0.1365063195079565,0.09387158513516188,-0.04466375598236918
1783693577569928400,3.317928466796875,-0.0868143601000309,0.08293119852375239,-0.029341245296597478
1783693577579891500,3.327891357421875,-0.03982406086623668,0.06837461244286969,-0.02829202850461006
1783693577589853400,3.337853515625,0.015227379748225212,0.05078855900559574,0.005151391413807869
1783693577599816400,3.34781640625,0.10318857179582118,0.024028343178145586,0.0434744000673294
1783693577609778400,3.3577783203125,0.1590057360857725,0.005168598276935518,0.0930251974388957
1783693577619741400,3.367741455078125,0.1663736345052719,0.018146701261028648,0.1253133098423481
1783693577629704400,3.377704345703125,0.1650280651152134,0.015242029328085481,0.12209960849285124
1783693577639666400,3.38766650390625,0.10857026483416557,0.003902971388446167,0.09251374078541993
1783693577649629400,3.39762939453125,-0.018325930285453797,0.00041429815562441945,0.03969853479042649
1783693577659591400,3.40759130859375,-0.1175964518547058,0.010257345383847132,-0.00788666159659624
1783693577669554400,3.417554443359375,-0.14942366874814034,0.001533794571692124,-0.021874854938685892
1783693577679517400,3.427517333984375,-0.20923545563220977,0.010278945294301955,0.023184330102056262
1783693577689479400,3.4374794921875,-0.2837655036985874,0.04245018071928061,0.0469058358207345
1783693577699442400,3.4474423828125,-0.3390829017728567,0.0583780094875954,0.05094298238232731
1783693577709404400,3.457404296875,-0.32803485353589057,0.023240745597565546,0.03879501007944345
1783693577719367400,3.467367431640625,-0.2681500014156103,0.023600171760795638,0.04999357270300388
1783693577729330400,3.477330322265625,-0.21449498359560965,0.015608542819228022,0.06366057126671075
1783693577739292400,3.48729248046875,-0.12721885120272636,-0.018921713354671372,0.07252396894097328
1783693577749255400,3.49725537109375,-0.043919221225380896,-0.03452348850639537,0.0764868812225759
1783693577759217400,3.507217529296875,0.03423369351327419,-0.005824541435018181,0.10805310909226536
1783693577769180400,3.517180419921875,0.09868483063578605,0.004904960638377815,0.1680849684678018
1783693577779142400,3.527142333984375,0.13915595723390578,0.054040674403030425,0.18354338049292562
1783693577789105400,3.53710546875,0.12867372618615627,0.08801491326251998,0.15311185574159025
1783693577799068400,3.547068359375,0.11557985133528709,0.08354279108345508,0.11769392087981104
1783693577809030700,3.55703076171875,0.09059855481386184,0.0900645758013241,0.09465455220639706
1783693577818993700,3.56699365234375,0.07645663221478462,0.07898441539304331,0.034540567505359644
1783693577828955400,3.576955322265625,-0.008488426882028579,0.03440444697029888,-0.03817570913732052
1783693577838918400,3.58691845703125,-0.03914075477719307,-0.01611274774800986,-0.10344210816547274
1783693577848881400,3.59688134765625,-0.01822714608609676,-0.03243647136557847,-0.09378975207060575
1783693577858843600,3.60684375,0.0039162966609001156,-0.0427037627547048,-0.06442074198424816
1783693577868806400,3.616806396484375,0.04145429241657257,-0.04842414969550445,-0.00745426152870059
1783693577878768400,3.626768310546875,0.03578033843338489,-0.029468451872840522,0.05163973247483372
1783693577888731400,3.6367314453125,0.030469372543692586,-0.004124879643972963,0.11846651268750429
1783693577898694400,3.6466943359375,-0.03637012102007866,0.023287881808076054,0.13801555502712726
1783693577908656400,3.656656494140625,-0.10148469048738479,0.049021321004210035,0.15132555684670804
1783693577918619400,3.666619384765625,-0.12612579526901244,0.09748166539110242,0.21241817732155321
1783693577928581400,3.676581298828125,-0.17332886047065257,0.09856976202190854,0.18484379556700586
1783693577938544400,3.68654443359375,-0.16838497432768343,0.05087006327658891,0.13703604247048495
1783693577948506400,3.69650634765625,-0.14099603214263914,0.021982580496324226,0.0679193977549672
1783693577958469400,3.706469482421875,-0.12539163577556608,0.005896154499659315,0.026947482027858495
1783693577968432400,3.716432373046875,-0.113444592872262,-0.005012896258570254,-0.01124488598331809
1783693577978394600,3.72639453125,-0.07231880175769329,-0.0033057909465860572,-0.01488981835693121
1783693577988357600,3.736357666015625,-0.035222704550623894,0.016869374801591036,0.005663578719645739
1783693577998319400,3.7463193359375,-0.035384032592177386,0.04485583535521291,0.015903379313647745
1783693578008282400,3.756282470703125,0.016732523614168167,0.057295995537703856,0.007407792038470506
1783693578018245400,3.766245361328125,0.025258359897136685,0.06386375655545852,0.014744856928288936
1783693578028207600,3.77620751953125,0.013440496331453323,0.051790009399410336,0.0008646540053188801
1783693578038170600,3.786170654296875,-0.01148293252289295,0.03745740480013191,-0.04411445153653622
1783693578048132400,3.79613232421875,-0.03650923722982406,-0.019173505291808394,-0.09618453825265169
1783693578058095400,3.806095458984375,-0.03264145588576794,-0.05903432710501365,-0.14718056599646806
1783693578068058400,3.816058349609375,-0.00047755438387393946,-0.10328973061535507,-0.18449717408642172
1783693578078020600,3.8260205078125,0.06519289540052414,-0.14153453206666744,-0.18183467687889932
1783693578087983400,3.8359833984375,0.06785013191103935,-0.1473678961289581,-0.15535203588381408
1783693578097945300,3.8459453125,-0.017004326292872428,-0.09705456255283205,-0.1055615845374763
1783693578107908600,3.85590869140625,-0.08922083671987056,-0.0340017022551503,-0.03183423115611076
1783693578117870600,3.86587060546875,-0.15491758998930452,0.032583131560962646,0.045920916436612606
1783693578127833300,3.875833251953125,-0.15278993031084537,0.032114244540734214,0.12436930699050426
1783693578137796400,3.88579638671875,-0.09559095627367496,0.009115792399598284,0.13838950290605426
1783693578147758600,3.895758544921875,-0.0460667546480894,-0.0013871709089260547,0.1379685010150075
1783693578157721600,3.9057216796875,-0.04297697193920612,-0.0036456995585933327,0.12878566212803125
1783693578167683300,3.915683349609375,-0.051043374016880985,-0.025615840698452665,0.12321940630301832
1783693578177646300,3.925646240234375,-0.07981178786158562,-0.029078310910938307,0.11772051662579178
1783693578187609300,3.935609375,-0.12824234903156756,-0.0025038451802451163,0.06993848249241709
1783693578197571600,3.945571533203125,-0.1681166787803173,-0.005750855144299566,0.04608779743611812
1783693578207534600,3.95553466796875,-0.19157646482288837,0.006876552972290665,0.003677081077545881
1783693578217496300,3.965496337890625,-0.1393611244171858,-0.01888014836842194,-0.02408697803020477
1783693578227459300,3.975459228515625,-0.0695949297517538,-0.027509901683591305,-0.03259747061356902
1783693578237422600,3.985422607421875,0.012848960179090499,-0.03817565433839336,-0.015318565163016318
1783693578247384600,3.995384521484375,0.08564590084254742,-0.021643110275734213,0.006497253064811229
1783693578257347300,4.005347412109375,0.15387889459133147,0.008001191354356705,0.03728139064610004
1783693578267309300,4.015309326171875,0.13049918804764746,0.020013335383124647,0.06474354419782757
1783693578277272600,4.0252724609375,0.1155529633283615,0.03412959381798282,0.07394231130629778
1783693578287234600,4.035234619140625,0.09604162265062331,0.006162486418802291,0.052333852218836546
1783693578297197600,4.045197509765625,0.11336743598282337,-0.020702979881409553,0.06611249446347356
1783693578307160300,4.055160400390625,0.07743103020489216,-0.03222337660416961,0.06018237376213073
1783693578317122600,4.06512255859375,0.008315992924571037,-0.03742982267346233,0.030172727684676645
1783693578327085600,4.07508544921875,-0.03804769884347915,-0.05231174998488277,0.007130436401814222
1783693578337047600,4.085047607421875,-0.09983166258335113,-0.06049648121260106,0.0017445055797696112
1783693578347010300,4.09501025390625,-0.1545931803405285,-0.03952968102954328,0.004539396995306015
1783693578356973300,4.104973388671875,-0.1903898853868246,-0.012783877319935709,0.017961188626289367
1783693578366935600,4.114935546875,-0.21073650784492493,0.03292536912737414,0.052915451499074694
1783693578376898600,4.124898681640625,-0.23039339447319507,0.06168094175681472,0.08187675756737589
1783693578386860300,4.1348603515625,-0.22710779693126676,0.04394859345033764,0.08952727232053875
1783693578396823300,4.1448232421875,-0.1494511412769556,-0.012151808227784932,0.08095628172159194
1783693578406786600,4.15478662109375,-0.06330605874061584,-0.03130196917662397,0.055037996610999104
1783693578416748800,4.164748779296875,-0.02549216865301132,-0.05772272391663864,0.0207677704796195
1783693578426711800,4.1747119140625,0.015161913296580313,-0.0683432857228443,-0.007303454881161451
1783693578436673500,4.184673583984375,0.05758651205003261,-0.06519565361319109,-0.0035293431699275966
1783693578446636800,4.19463671875,0.041918987318873405,-0.04656332425968721,0.0012694354139268398
1783693578456598800,4.204598876953125,0.0029313772767782208,-0.021671112527512013,0.015341507647186517
1783693578466561800,4.214561767578125,-0.0438186834603548,-0.009283833309728652,0.034070758036524054
1783693578476524800,4.22452490234375,-0.04151742078065872,0.004859605392999947,0.027591186758875844
1783693578486486800,4.23448681640625,-0.04865560209751129,-0.004109188884496688,0.020313304710388183
1783693578496449800,4.24444970703125,-0.0422808063685894,0.004129354889690876,0.021049363899976015
1783693578506411800,4.254411865234375,-0.014765607455372809,-0.014264672195911406,0.01669905973598361
1783693578516374800,4.264374755859375,0.026935353198647496,-0.019787655134778467,0.03193973735719919
1783693578526337500,4.274337646484375,0.0287041164368391,-0.014551855106838046,0.040588615497946734
1783693578536299800,4.2842998046875,0.0008382043898105621,-0.001191639203671366,0.016060615701973438
1783693578546262800,4.2942626953125,0.00511865818798542,-0.004106485470756888,0.07857961571812629
1783693578556224800,4.304224853515625,0.019133155015110967,0.0012674626525491475,0.0669384238936007
1783693578566187500,4.3141875,0.06127075352072715,0.00641611411999911,0.04355097243487835
1783693578576150500,4.324150634765625,0.0975935282677412,-0.020559169230237602,0.026895897971093652
1783693578586112800,4.33411279296875,0.09279927972853183,-0.015652034901082516,0.0054614802762866016
1783693578596075800,4.34407568359375,0.08957330341935157,-0.013845789196714758,-0.019596242482215163
1783693578606037500,4.35403759765625,0.1146948851943016,-0.03169107809206471,-0.03669453066885471
1783693578616000800,4.364000732421875,0.117504681918025,-0.03267771450923756,-0.03284340819865465
1783693578625962800,4.373962646484375,0.1127034191161394,-0.022942511569662018,-0.05277224363610148
1783693578635925800,4.38392578125,0.1356172617137432,-0.01236539617953822,0.01298135438710451
1783693578645888800,4.393888671875,0.04473112213015556,-0.005555286906426772,0.04165799829512834
1783693578655850800,4.403850830078125,-0.12116846512258052,0.007950465814117342,0.012744769152253865
1783693578665813800,4.413813720703125,-0.2515589320987463,0.02878253370160237,0.03743848090395331
1783693578675775700,4.423775634765625,-0.292030058696866,0.026944659883109852,0.030476240675896403
1783693578685738800,4.43373876953125,-0.30561376289129255,-0.0026177721498068423,0.055448915499448775
1783693578695701500,4.443701416015625,-0.2965104189813137,-0.00908302264115773,0.05258548889234662
1783693578705663700,4.453663818359375,-0.2904454198539257,-0.018316011679638176,0.028550825571268795
1783693578715626800,4.463626708984375,-0.22833237029016015,-0.0288055218515452,0.036343379143625495
1783693578725588700,4.473588623046875,-0.1875742434442043,-0.024986420221114528,0.034080402647703886
1783693578735551500,4.483551513671875,-0.2080839475095272,0.01861142356279306,0.022303017222881315
1783693578745513700,4.493513671875,-0.22106091798245905,0.01837860118760727,0.016260083796828983
1783693578755476700,4.503476806640625,-0.17125906845927238,-0.01174307216326706,-0.014145283599942922
1783693578765439700,4.513439697265625,-0.056146250113844866,-0.037207247697655106,-0.009921382294595242
1783693578775401700,4.523401611328125,0.06467676257193088,-0.04522062268014997,0.017870149341970683
1783693578785364700,4.53336474609375,0.19045768992602824,-0.03376857848586515,0.06309183146804571
1783693578795326700,4.54332666015625,0.26310148585438725,-0.013294639853667467,0.07635141827464104
1783693578805289700,4.553289794921875,0.28387188668251034,0.01553755080909468,0.08100947321355342
1783693578815252700,4.563252685546875,0.19820435853004453,0.02908060333272442,0.09480258237496018
1783693578825214700,4.573214599609375,0.05365794042944908,0.05379601545957848,0.05250482487156987
1783693578835177700,4.583177734375,-0.03091360917985439,0.061600853124773126,0.025758710634708405
1783693578845139700,4.5931396484375,-0.05570727417469024,0.023291325007332487,0.0189585291005671
1783693578855102700,4.603102783203125,-0.03752805888354778,-0.03885201009684242,-0.02590469497665763
1783693578865064700,4.613064697265625,-0.013617606464028358,-0.07622232113541104,-0.06118921271711587
1783693578875027700,4.62302783203125,0.02842003879845142,-0.08293578336732461,-0.05692118000909686
1783693578884990700,4.63299072265625,0.01921849521100521,-0.03871520457519218,-0.0226795954503119
1783693578894952700,4.64295263671875,-0.035838206100463864,0.02441520533757284,0.02295855852216482
1783693578904915700,4.652915771484375,-0.09376198728084564,0.0660522065104451,0.03083542937710881
1783693578914877700,4.662877685546875,-0.17752572763860225,0.09456510209096596,0.05049523861482739
1783693578924840700,4.6728408203125,-0.23772972871065137,0.0604457556723617,0.03209682761505246
1783693578934803700,4.6828037109375,-0.2292985849738121,0.041789533986616875,0.009989479094743728
1783693578944765700,4.692765625,-0.12668401367366314,-0.019305159714305773,-0.0054340077474713325
1783693578954728700,4.702728759765625,-0.05419686961174011,-0.06644429283426143,-0.015204145003110169
1783693578964690700,4.712690673828125,-0.00338671982884407,-0.059387716253101824,0.001482347512245178
1783693578974653700,4.72265380859375,0.005728899040818214,-0.05138926484510302,0.04690773551687598
1783693578984616700,4.73261669921875,-0.014227847316861152,-0.027379288440709932,0.08668781111091375
1783693578994578700,4.74257861328125,-0.03923135567009449,0.0041651294559706,0.10086465889289975
1783693579004541700,4.752541748046875,-0.06327917073369026,0.0159297375976108,0.10380115073621272
1783693579014503700,4.762503662109375,-0.027178514304757116,0.002097684665303677,0.10171060819774866
1783693579024466700,4.772466796875,-0.0053355158090591425,-0.017344125307025386,0.08067965673729777
1783693579034428700,4.7824287109375,0.02903495582640171,-0.01198941160715185,0.006432955656945705
1783693579044391700,4.7923916015625,-0.0014478607207536697,-0.0037642296380363404,0.004151128330081701
1783693579054354700,4.802354736328125,-0.08428221127390861,-0.018136426462186498,-0.018374007210880516
1783693579064316700,4.812316650390625,-0.14534078334867953,0.0033930491049308327,-0.08843143990784882
1783693579074279700,4.82227978515625,-0.17007482711076735,-0.027696766025200485,-0.10303937258347869
1783693579084241700,4.83224169921875,-0.14582359842956066,-0.04599735180684365,-0.059332186673581595
1783693579094204700,4.84220458984375,-0.07098375376164913,-0.052024777136510235,-0.033075024997442956
1783693579104167700,4.852167724609375,0.030181787773966788,-0.02769477499751374,0.016369973912090063
1783693579114129700,4.862129638671875,0.12126900288760661,0.004690349773317575,0.0763897044584155
1783693579124093000,4.872093017578125,0.16726035421192645,0.023916105842171236,0.11260858043953775
1783693579134054700,4.8820546875,0.14392857846319673,0.05596850066045299,0.11917714517489075
1783693579144017700,4.892017578125,0.08617664671838283,0.07991363166770897,0.13153013853058218
1783693579153980000,4.90197998046875,0.025784429597854614,0.06587776325899176,0.11655366480350493
1783693579163943000,4.91194287109375,-0.013025485789775847,0.022251889823842793,0.08547156718894838
1783693579173905700,4.92190576171875,-0.016779285365343094,-0.033235156595753504,0.013225392276048659
1783693579183867600,4.93186767578125,-0.021417466560006142,-0.06716173865492456,-0.05567950938493013
1783693579193830700,4.94183056640625,0.00003799392282962799,-0.07491551285316236,-0.06206351133361458
1783693579203793000,4.95179296875,-0.024195699101686476,-0.052962277182331305,-0.045192456031590694
1783693579213755600,4.961755615234375,-0.05680442176163196,-0.013381066894950345,-0.02629720142558217
1783693579223718700,4.97171875,-0.11182897436916828,0.022746651070844382,-0.017406477352976797
1783693579233680600,4.9816806640625,-0.15230653070807457,0.045365173116838554,-0.029637744025140998
1783693579243643600,4.9916435546875,-0.16477613618075845,0.058159042107826096,0.011279080513864755
1783693579253605600,5.001605712890625,-0.16650222932100295,0.04080699835582636,-0.01915989689156413
1783693579263568600,5.011568603515625,-0.14238134902119637,0.017112718570791184,-0.018052666302025316
1783693579273531600,5.02153173828125,-0.11514964322447777,-0.024860693215904756,-0.012839607828855513
1783693579283493600,5.03149365234375,-0.07851707187592982,-0.04959118418088183,-0.028820874684304
1783693579293457000,5.041456787109375,-0.03806406545639038,-0.0774554796595592,-0.019415186826884746
1783693579303418600,5.051418701171875,-0.03742576755285263,-0.07026975114024243,0.018219547301530838
1783693579313381600,5.061381591796875,-0.026413375151157378,-0.02184057820974849,0.051434857552498575
1783693579323344000,5.07134375,0.014819383469223976,0.008556952940439806,0.10672492922842503
1783693579333307000,5.081306884765625,0.03461304821968078,0.017561887110397217,0.1620684846572578
1783693579343270000,5.091269775390625,0.044213235735893246,0.022136693345801903,0.1472491011880338
1783693579353231600,5.101231689453125,0.010539514192938804,0.03662448850679211,0.1244371115297079
1783693579363194600,5.111194580078125,-0.0572907439738512,0.054719185585947704,0.07915332395285367
1783693579373156900,5.121156982421875,-0.14484803139567373,0.041483125785412266,0.03212166979536414
1783693579383120000,5.131119873046875,-0.14304478136599064,0.030831310324417424,-0.0036561844199895855
1783693579393082600,5.14108251953125,-0.10987725577950477,-0.02003973019970581,-0.02045607418194413
1783693579403044000,5.151044189453125,-0.08735562736988067,-0.02852544453484006,-0.0299327814489603
1783693579413007400,5.16100732421875,-0.07151917581260205,-0.06281523388321511,-0.05177417250946164
1783693579422969000,5.170968994140625,-0.06072597911953926,-0.0583133376203943,-0.02261515191197395
1783693579432932000,5.18093212890625,-0.007590601259469985,-0.028085993671650065,0.03997881303653121
1783693579442894300,5.190894287109375,0.030805472630262374,-0.0052143553811125455,0.08402662907764315
1783693579452857300,5.200857421875,0.026075521498918532,0.0759092183319386,0.1340140643008053
1783693579462820400,5.2108203125,0.0230225636690855,0.11063995638084598,0.17346403115764258
1783693579472782000,5.220781982421875,0.03299275354146957,0.10408066179733723,0.1702569056794047
1783693579482745000,5.2307451171875,0.07379062787592411,0.06957920245965943,0.1443555717036128
1783693579492707300,5.240707275390625,0.1005868648648262,0.01037327251425013,0.055207507959008216
1783693579502670300,5.25067041015625,0.12109949153959751,-0.038247130405716596,-0.040838790866732595
1783693579512633300,5.26063330078125,0.09177110572457313,-0.048747047807206394,-0.06919760099723934
1783693579522595000,5.270594970703125,0.058597150397300714,-0.036230091494880615,-0.0790454796642065
1783693579532558000,5.28055810546875,-0.0021527941197156905,-0.048875971416500394,-0.09427636654376984
1783693579542520300,5.290520263671875,-0.08073533244729042,-0.026056652401667088,-0.041438802586495876
1783693579552483300,5.3004833984375,-0.13092296641767023,-0.007265762352431193,0.0019058336213231086
1783693579562446000,5.310446044921875,-0.16050328116714954,-0.005684607807942665,0.045376726557314395
1783693579572408300,5.320408203125,-0.21760288648307322,0.012157347486005164,0.0807514067992568
1783693579582371300,5.330371337890625,-0.22828210140764713,0.023994655537675134,0.10206073680967091
1783693579592333300,5.340333251953125,-0.19227964465618133,0.027903581742872482,0.1166512799590826
1783693579602296000,5.350296142578125,-0.15485504614710807,0.034281035219761544,0.14404679801538586
1783693579612258300,5.36025830078125,-0.13067512913644314,0.026617601619521154,0.12396671753898263
1783693579622221300,5.37022119140625,-0.1312123047530651,0.031915758259990254,0.10631167225241661
1783693579632184300,5.380184326171875,-0.1117190842539072,0.008923649094672872,0.08879822739362717
1783693579642146000,5.39014599609375,-0.06678630207180976,0.004197702851588838,0.03220788677409291
1783693579652109000,5.400109130859375,-0.029115035325288773,0.022816076744976453,-0.013241028236597776
1783693579662071300,5.4100712890625,0.018666122025251388,0.007055097010126337,-0.05451221917122602
1783693579672034300,5.420034423828125,0.09130056560337543,-0.00624566662365105,-0.08283420442268252
1783693579681997300,5.429997314453125,0.128411275857687,-0.000825778733077459,-0.06397109852060676
1783693579691959000,5.439958984375,0.1362806940585375,0.019355940053472295,-0.021094225955009458
1783693579701922300,5.44992236328125,0.09420447035133839,0.056183412919612596,0.024189415491372344
1783693579711884300,5.45988427734375,0.021701544198393822,0.06215261438917368,0.06402107514217495
1783693579721847300,5.469847412109375,-0.06414660121798516,0.06025361236743629,0.052481297865509986
1783693579731809000,5.47980908203125,-0.12463000375330448,0.060472588880360126,0.06564604599550367
1783693579741772300,5.489772216796875,-0.12971183706223963,0.018036934443353674,0.041557606660574675
1783693579751735300,5.4997353515625,-0.12132920864224433,-0.016151641286560332,0.006254384219646454
1783693579761697300,5.509697265625,-0.09561141453981399,-0.027141725958324966,-0.017966303192824124
1783693579771660300,5.519660400390625,-0.08715279827415942,-0.00034297735192812977,-0.018765490746498106
1783693579781622300,5.529622314453125,-0.09123159202039241,0.028476225965097544,0.041607875543087716
1783693579791585300,5.539585205078125,-0.14430851769149303,0.08442409482947551,0.08135185691043734
1783693579801548300,5.54954833984375,-0.1774713671028614,0.10364597844080999,0.06364990374222397
1783693579811510300,5.55951025390625,-0.18678572341501712,0.07250181190809235,0.014355126958340406
1783693579821473000,5.56947314453125,-0.1410556533753872,0.010794233306101523,-0.02447729252204299
1783693579831435300,5.579435302734375,-0.08094225319623946,-0.017890972934290764,-0.04998641230985522
1783693579841398300,5.589398193359375,-0.001311082598567009,-0.017711949405842458,-0.0406565661676228
1783693579851360300,5.5993603515625,0.052902153626084324,-0.021195544604747554,-0.035491292358934876
1783693579861323000,5.609322998046875,0.13345569976568222,-0.021555957148666493,-0.0268503052636981
1783693579871286300,5.619286376953125,0.1568009195178747,0.015176179283950477,0.019472323841601608
1783693579881248300,5.629248291015625,0.12259703662097453,0.06156101887130644,0.08085925108790397
1783693579891211300,5.639211181640625,0.03489420324862003,0.09159618754908443,0.102273210516572
1783693579901173000,5.649173095703125,-0.02095335617959499,0.08527820004131645,0.06858341462165117
1783693579911136300,5.65913623046875,-0.07952829474508762,0.06862725832995492,0.03811185012087226
1783693579921099300,5.669099365234375,-0.13479367037117482,0.043510745455767025,0.027068331928551195
1783693579931061200,5.679061279296875,-0.1602384927511215,0.010489610636606812,0.002358984216302633
1783693579941024300,5.689024169921875,-0.15110066204965114,0.011036892088712192,-0.004387859695404768
1783693579950986200,5.698986328125,-0.1449246037632227,0.012292650603735819,-0.013643325427174568
1783693579960949200,5.70894921875,-0.13338497261703014,-0.0008396976605756208,0.0053708793833851815
1783693579970911200,5.7189111328125,-0.11320143176615237,0.012134108174312859,0.03209580470174551
1783693579980874200,5.728874267578125,-0.12417407667934893,0.04535240040023345,0.05617679138258099
1783693579990837000,5.7388369140625,-0.12571487638056278,0.07368739583031274,0.04381546858996153
1783693580000799200,5.74879931640625,-0.09361293419897555,0.08288530442225746,0.021124913354218004
1783693580010762200,5.75876220703125,-0.034920506733655925,0.08453669749163091,0.02134177097529173
1783693580020724200,5.76872412109375,-0.01247545069158077,0.10204310982143505,0.027488310906291006
1783693580030687200,5.778687255859375,-0.0239244809448719,0.09129630955336615,0.006005816286057233
1783693580040650200,5.788650146484375,-0.00021627309918403624,0.07911870016404426,-0.02022796451449394
1783693580050612200,5.7986123046875,0.048132455006241796,0.059751087939087295,-0.02274535416290164
1783693580060575200,5.8085751953125,0.11340659894943236,0.027252538522193205,-0.035479748051613566
1783693580070537200,5.818537109375,0.1574421400308609,-0.008771061482001095,-0.05148308060839772
1783693580080500200,5.828500244140625,0.178251703825593,-0.01845060697789304,-0.046632133445888756
1783693580090462200,5.838462158203125,0.1525450156390667,-0.03592297090762295,-0.020134587142616508
1783693580100425200,5.84842529296875,0.029814708027243612,0.0025972316852770744,0.0036332419358193874
1783693580110388200,5.85838818359375,-0.1005079544097185,0.02874188203080557,0.01478694250434637
1783693580120350200,5.86835009765625,-0.14912673162817955,0.08880562524879351,0.012383388493955134
1783693580130313200,5.878313232421875,-0.17732406758666036,0.05294102433174848,0.08319792316854
1783693580140275200,5.888275146484375,-0.18493278902471064,0.05956299062161706,0.058605625964701175
1783693580150238200,5.89823828125,-0.182712774887681,0.050732472303649405,0.044735944435745474
1783693580160201200,5.908201171875,-0.12156009478867054,0.026809498329274355,0.08295344688817859
1783693580170163200,5.9181630859375,-0.0378016151279211,0.022844247960112987,0.11858327093496918
1783693580180126200,5.928126220703125,-0.05092354702949524,0.05767647362211719,0.13565890889838336
1783693580190088200,5.938088134765625,-0.0630026918798685,0.09391440136358141,0.12312559053972363
1783693580200051200,5.94805126953125,-0.05640519331097602,0.07094334868602455,0.10659136597663163
1783693580210014200,5.95801416015625,-0.05857435404360294,0.058068660410633306,0.0765922412931919
1783693580219976200,5.96797607421875,-0.032225276300311086,0.058282997281057757,0.04163008737489581
1783693580229939200,5.977939208984375,0.03207096252143383,0.05580876178778708,0.020739859559386967
1783693580239901200,5.987901123046875,0.011012392401695251,0.060671043195063244,-0.03742912855371833
1783693580249864200,5.9978642578125,-0.0017459668844938276,0.05193266013995744,-0.0709349461838603
1783693580259826200,6.007826171875,0.02252805815041065,0.07224437568145804,-0.056714989912509915
1783693580269789200,6.0177890625,0.004721183302998542,0.08276386999967507,-0.016504560077190398
1783693580279752200,6.027752197265625,-0.015817162334918974,0.07169232215611264,-0.024639643476903436
1783693580289714200,6.037714111328125,0.017302432456612588,0.02318862268468365,-0.042340865992754696
1783693580299677200,6.04767724609375,0.025552958929538724,-0.0043501215009018775,-0.047638241748511785
1783693580309639200,6.05763916015625,-0.010506780967116356,-0.017019176802132278,-0.047561669380962845
1783693580319602200,6.067602294921875,-0.061033437633514404,0.0333424528951291,-0.034221126292645926
1783693580329565200,6.077565185546875,-0.10201777445077896,0.061786703686229884,0.02092544525936246
1783693580339527200,6.087527099609375,-0.14321896888911723,0.08852256139055825,0.07260112583041191
1783693580349490200,6.097490234375,-0.17238602666258812,0.0902585183376912,0.10308087363764643
1783693580359452200,6.1074521484375,-0.16046879437565803,0.056718652307474984,0.07753317540511488
1783693580369415200,6.117415283203125,-0.10283376700878143,0.02694098835499026,0.062182169277220964
1783693580379377200,6.127377197265625,-0.07785714666247368,0.023632311331573872,0.05275266215279698
1783693580389340200,6.137340087890625,-0.04535480698645115,0.010856014529895036,0.045388563125580546
1783693580399303200,6.14730322265625,0.0009603694647550582,-0.014686943595437332,0.02921367339417338
1783693580409265200,6.15726513671875,0.03574409807622433,0.025482030851487068,0.07033785707354545
1783693580419228200,6.167228271484375,0.0486550175756216,0.05597862019566819,0.10977160344794391
1783693580429190100,6.177190185546875,0.06867021612226963,0.062473845700174564,0.10361980281993746
1783693580439153200,6.187153076171875,0.06226911690831184,0.06741962240613066,0.07819529257565737
1783693580449116200,6.1971162109375,-0.023973580783605574,0.07518207310116849,0.015168196906894445
1783693580459078100,6.207078125,-0.0783569128781557,0.05267815387817099,-0.025257775375247
1783693580469041200,6.217041259765625,-0.12248890007138251,0.01320065056043677,-0.05221534040570259
1783693580479003100,6.227003173828125,-0.11899345917105673,0.012177444992540403,-0.0653188598677516
1783693580488966100,6.236966064453125,-0.07003390569090842,-0.034523187112295996,-0.07556421341970562
1783693580498928000,6.24692822265625,-0.012160393393039703,-0.0034815585054457187,-0.01241319911032915
1783693580508891100,6.25689111328125,0.015113397979736327,0.016500002633081746,0.029929274317622184
1783693580518854100,6.266854248046875,0.028532851523160933,0.015854535203240813,0.044684506509453055
1783693580528816000,6.276816162109375,-0.004877835169434547,0.054511735114036126,0.06576251198202371
1783693580538779100,6.286779052734375,-0.12206512170135975,0.10357726971930824,0.05148308060839772
1783693580548741000,6.2967412109375,-0.1803559826284647,0.09624107247916981,0.03149477006867528
1783693580558704000,6.3067041015625,-0.1939145523816347,0.05765555869825184,0.020326602583378553
1783693580568667100,6.316667236328125,-0.147604052105546,0.0407206809123978,-0.003143120331317186
1783693580578629400,6.32662939453125,-0.11064473302066326,-0.008831121106166392,-0.04292436496913433
1783693580588592400,6.33659228515625,-0.027760698106884956,-0.042580675231153144,-0.06774637927561998
1783693580598554000,6.34655419921875,0.04781038344502449,-0.04757557004215195,-0.05549246238023042
1783693580608517000,6.35651708984375,0.049263504862785336,-0.02678053709627129,-0.03145663001537323
1783693580618479400,6.366479248046875,0.02871814496219158,-0.01073512809658423,-0.026056232276558875
1783693580628442400,6.3764423828125,-0.034758009648323054,0.01795706957359798,-0.05310132945999503
1783693580638405000,6.386405029296875,-0.07973112384080887,0.04320304491319693,-0.030619302408397196
1783693580648367000,6.3963671875,-0.09313713338077068,0.015955164299812166,0.003132745067775249
1783693580658330000,6.406330078125,-0.024286299994587895,0.00492227709935978,0.010572393549233674
1783693580668292400,6.416292236328125,0.0026689269483089447,-0.004635806574486196,0.006636077013611793
1783693580678255000,6.426255126953125,0.009378653720021248,-0.023139020522451027,0.012045973233133554
1783693580688218000,6.436218017578125,-0.017764789271354674,-0.012874459946528076,0.0411959337413311
1783693580698180000,6.44618017578125,-0.05815583637058735,-0.0016061200223863124,0.03940554319322109
1783693580708143400,6.456143310546875,-0.0756207659125328,-0.025194108155043794,0.029720892263948917
1783693580718105000,6.46610498046875,-0.0480278255879879,-0.002285581053374335,0.040268882024288175
1783693580728068000,6.476068115234375,-0.03325988004505634,-0.005616360310744494,0.04225801001489162
1783693580738031000,6.486031005859375,-0.005810147583484649,-0.024562285658065227,0.05951660332977771
1783693580747993300,6.495993408203125,0.025911855369806287,-0.00042710283827036616,0.062499564663320774
1783693580757956400,6.505956298828125,-0.011640753433108329,0.015183905932679771,0.07411576817706227
1783693580767918000,6.51591796875,-0.024071195939183235,0.039018699300102884,0.07389101951047777
1783693580777881000,6.525881103515625,-0.03699497492015361,0.02396274886233732,0.10422770558521151
1783693580787843300,6.53584326171875,-0.07342880882620811,0.025050041775545102,0.06419935431852937
1783693580797806300,6.545806396484375,-0.10434943226873875,0.027452271478530018,0.025043401972204445
1783693580807769000,6.55576904296875,-0.13365034555494784,0.031234493430983272,0.02192877708300948
1783693580817731000,6.56573095703125,-0.13763269318938254,-0.008820115654962137,-0.031461452320963146
1783693580827694000,6.575694091796875,-0.10579378585815429,-0.02687185950838029,-0.07725815785601735
1783693580837656300,6.58565625,-0.0593821632951498,-0.06275850786045194,-0.08670461611524224
1783693580847619000,6.595619140625,0.024305589216947553,-0.06878122048238292,-0.0278480841293931
1783693580857582000,6.60558203125,0.0927875892907381,-0.05080401230305433,0.0046424189783632755
1783693580867544000,6.6155439453125,0.13860650665760038,-0.038799941982887685,0.0640638913705945
1783693580877507300,6.62550732421875,0.20269524020850657,-0.00864150768504478,0.13152253974601624
1783693580887469000,6.635468994140625,0.21164543938338756,0.033961379377916455,0.17186273344084618
1783693580897432000,6.64543212890625,0.1691185492992401,0.041719674487644805,0.16264701519757507
1783693580907394000,6.65539404296875,0.09447042781114577,0.02224871148606762,0.1028571478843689
1783693580917357300,6.665357421875,0.012411737805604934,-0.0029850710922386496,0.026693653397262096
1783693580927320300,6.6753203125,-0.03313303879499435,-0.007415884013380855,-0.018692425510287283
1783693580937282000,6.685281982421875,-0.10522095440626143,0.017280640749912708,-0.018673866940289736
1783693580947245000,6.6952451171875,-0.18754735543727874,0.048504457523254677,-0.017591770792007445
1783693580957207300,6.705207275390625,-0.28213351858258245,0.02611255644052289,-0.04952040223330259
1783693580967170300,6.71517041015625,-0.33355449374020096,0.022081967483879996,-0.07450184488520026
1783693580977133300,6.72513330078125,-0.3034323271989822,-0.005627959416992962,-0.04405936034843325
1783693580987095000,6.735094970703125,-0.23187808007299898,-0.03639613224416971,0.007188157938420772
1783693580997058000,6.74505810546875,-0.1422135912388563,-0.003456159202707931,0.06088496907353401
1783693581007020300,6.755020263671875,-0.04631225384175777,-0.010559278339333832,0.12258037774711847
1783693581016983300,6.7649833984375,0.03346154009699821,-0.006877922945469617,0.16319894999191165
1783693581026945000,6.774945068359375,0.0540881485402584,0.026130110363522543,0.17096169294789432
1783693581036908000,6.784907958984375,0.0368821621954441,0.029893709813896566,0.17663213979974388
1783693581046871300,6.794871337890625,0.06218319219052791,0.03466449527912773,0.13322642105445265
1783693581056833300,6.804833251953125,0.03515373096764087,0.02430800036974251,0.05409735476002097
1783693581066796000,6.814796142578125,0.027152795341610907,-0.0010686156122013926,0.0010423486597836017
1783693581076758300,6.82475830078125,0.037657822743058206,-0.007185016133263707,-0.030645752023905515
1783693581086721300,6.83472119140625,0.002301262679696083,-0.01382309330771677,-0.05069835997149348
1783693581096684300,6.844684326171875,-0.07283201197683811,0.0026715298973489553,-0.06636515405029059
1783693581106646000,6.85464599609375,-0.12708324212431907,0.026821371430158614,-0.08080240633413195
1783693581116609000,6.864609130859375,-0.13338380357325078,0.037637300544837486,-0.06753142135068774
1783693581126571300,6.8745712890625,-0.1360878018349409,0.013266683267662302,-0.03596504735052585
1783693581136534300,6.8845341796875,-0.10532558382451533,-0.008977763035241514,0.0029857378125190733
1783693581146497300,6.894497314453125,-0.08884148201346397,-0.009977094537205994,0.011978022563457489
1783693581156459000,6.904458984375,-0.09109539842009544,0.009538977114576845,0.048246290644258255
1783693581166422000,6.914422119140625,-0.06003039807081222,0.015459334473730995,0.06647679773122071
1783693581176384300,6.92438427734375,-0.0003232406049966812,0.03225125099178403,0.09559767827540636
1783693581186347300,6.93434716796875,0.011335048484802246,0.03353038581581786,0.10604790674969554
1783693581196309000,6.94430908203125,0.0007914426386356353,0.033728438271721825,0.06570932049006223
1783693581206272000,6.95427197265625,-0.012213584885001181,0.03661680752383545,0.059320642366260286
1783693581216235300,6.9642353515625,-0.007050503033399581,0.032704986108653245,0.05892901270017027
1783693581226197200,6.974197265625,0.019511925199627876,-0.006251352012343704,0.029685382559150455
1783693581236160300,6.98416015625,0.05823240873813629,-0.020071714506857095,0.027149142079800365
1783693581246122200,6.994122314453125,0.09322948783934115,-0.02183311642250046,0.030430063446611165
1783693581256085200,7.004085205078125,0.1069306809335947,0.0037342637580353765,0.02306947155073285
1783693581266047200,7.014047119140625,0.0789537097275257,0.02292630022037774,0.05486527039259672
1783693581276010200,7.02401025390625,0.005427870267629623,0.050272508375393224,0.08473726156502961
1783693581285973000,7.033972900390625,-0.1244680911898613,0.09621858665272592,0.037735271893441676
1783693581295935200,7.043935302734375,-0.21188976953327654,0.05777313892962411,-0.005546820472180843
1783693581305898200,7.053898193359375,-0.22741700901091097,0.04288466314640827,-0.05665493028834462
1783693581315860200,7.063860107421875,-0.1990337950915098,-0.015612616206146776,-0.06056172846853733
1783693581325823000,7.073822998046875,-0.13440554783642292,-0.051302783004892986,-0.03818929927125573
1783693581335786000,7.083785888671875,-0.11549158852994441,-0.006635446825949475,-0.03280278392732143
1783693581345748200,7.093748291015625,-0.1136316398769617,0.006653932330710813,-0.007603606871515512
1783693581355711200,7.103711181640625,-0.07890460988879203,0.0428463769626338,0.05745090297162533
1783693581365673000,7.1136728515625,-0.04563479297161102,0.05108345029894262,0.07230959553793072
1783693581375636200,7.12363623046875,-0.03191723326444626,0.06077127956598997,0.11062354410216212
1783693581385598200,7.13359814453125,-0.018531681990623473,0.07143416441027074,0.05084171396493911
1783693581395561200,7.143561279296875,-0.004216156390309334,0.013976356773823499,-0.009328677098453045
1783693581405524700,7.153524658203125,0.02412614099681377,-0.008479019732866435,-0.012025368836522101
1783693581415486700,7.16348681640625,0.016086042404174803,-0.007131130521558225,-0.028330168557912108
1783693581425449700,7.17344970703125,0.005144961673021317,-0.02787312723910436,-0.07163432662487029
1783693581435411700,7.18341162109375,0.017028291690349577,-0.017597798673994837,-0.09109262194111943
1783693581445374700,7.193374755859375,0.02623334240913391,-0.01621759636197239,-0.06733458360433578
1783693581455337700,7.203337646484375,0.022533903369307516,-0.012488858162425457,-0.01120484623387456
1783693581465300000,7.213300048828125,0.0012175590962171553,0.02747820963738486,0.04332783120349049
1783693581475263000,7.223262939453125,-0.01932838532626629,0.03644992652432993,0.060585839996486895
1783693581485224700,7.233224609375,-0.04829261400401592,0.039689474701136346,0.08559826230853795
1783693581495187700,7.243187744140625,-0.038494273567199706,0.04186873670266941,0.06979220588952302
1783693581505150000,7.25314990234375,-0.02660802094042301,0.02327624616920948,0.06703384709209204
1783693581515113000,7.263113037109375,-0.02673135505914688,0.008489011403918266,0.04691211943104863
1783693581525076000,7.273075927734375,-0.07803659488260746,-0.0031540801167488095,0.04565276701971888
1783693581535037700,7.28303759765625,-0.1673018552660942,0.01642672733431682,0.008876695547252893
1783693581545000700,7.293000732421875,-0.231486450406909,0.03714326081704348,-0.0025756957069039345
1783693581554963000,7.302962890625,-0.22979250597059725,0.02724524113172665,0.0044049569606781
1783693581564926000,7.312926025390625,-0.1725602141857147,0.02549609590945765,0.028087884234637022
1783693581574888700,7.322888671875,-0.12106383570432662,0.037346418706327676,0.05161766677349806
1783693581584850700,7.3328505859375,-0.06477262416183949,0.053692902144975956,0.05130582434535026
1783693581594813700,7.342813720703125,0.04277472736537456,0.031995997589081525,0.06585106704831123
1783693581604776000,7.35277587890625,0.09411913015544414,0.04473738747416064,0.09468743156269192
1783693581614738700,7.36273876953125,0.034927520996332166,0.04517607115237042,0.09616159576848149
1783693581624700700,7.37270068359375,-0.03958674497902393,0.05860219189859926,0.04967340083792805
1783693581634664000,7.382663818359375,-0.06293547186255455,0.019259156014956532,0.047399756817519664
1783693581644627000,7.392626953125,-0.06964344506859779,-0.004849193596839905,0.01015124552771449
1783693581654588700,7.402588623046875,-0.045939913398027415,-0.029629268457740544,-0.03951879430934786
1783693581664551700,7.4125517578125,-0.0008703530937433242,-0.04587592651741579,-0.01573591379225254
1783693581674514000,7.422513916015625,0.01829261253774166,-0.02627025861972943,0.008546440679579973
1783693581684477000,7.432476806640625,0.022336334970593452,-0.020455087801255285,0.06644041124358772
1783693581694438700,7.442438720703125,0.02948328411579132,0.015624014382995665,0.07109802779108286
1783693581704401700,7.452401611328125,0.01738601908683777,0.027058157594408837,0.1025378528021276
1783693581714364700,7.46236474609375,-0.005642974323034286,0.05318539101425558,0.12285583368763327
1783693581724327000,7.472326904296875,-0.044160044243931766,0.058275298031792044,0.04492123787477612
1783693581734290000,7.4822900390625,-0.05607844557464122,0.012209621095936745,-0.0190469380363822
1783693581744251600,7.492251708984375,-0.03323006942868233,-0.05275132871223613,-0.06830152894034981
1783693581754214700,7.502214599609375,0.02987491378188133,-0.05040894857086241,-0.0737878513969481
1783693581764178000,7.512177978515625,0.08967208761870861,-0.02719553850479424,-0.05400397738814353
1783693581774140000,7.522139892578125,0.10553718074858189,-0.03406555213844403,-0.009887187764048577
1783693581784102700,7.5321025390625,0.09319149391651153,-0.0043214981946162875,0.04574760569632053
1783693581794064600,7.542064697265625,0.00457096117734909,0.06232484741723165,0.06265022518038749
1783693581804028000,7.55202783203125,-0.08338263208568096,0.0919663543020375,0.06682400373369456
1783693581813990000,7.561989990234375,-0.12391630252599715,0.06341783028570935,0.0569660420641303
1783693581823953000,7.571952880859375,-0.1432066939294338,0.05515669108722358,0.015787790109962223
1783693581833915600,7.58191552734375,-0.13477847280204294,0.015240294028725475,-0.028880057525634766
1783693581843878000,7.5918779296875,-0.09274024301767349,-0.050685975413955746,-0.06089622111991048
1783693581853841000,7.6018408203125,-0.10165946253240107,-0.05223652932420372,-0.05557093444392085
1783693581863803000,7.611802978515625,-0.1531330446600914,-0.033636732267122715,-0.05683481689989566
1783693581873765600,7.621765625,-0.14552432322204112,-0.008220441861916334,-0.02200330362394452
1783693581883728600,7.631728759765625,-0.13607260426580906,0.0008539682145230472,0.0028984979204833504
1783693581893691000,7.64169091796875,-0.13212182081341742,-0.002901036937441677,-0.0053417994193732735
1783693581903654000,7.65165380859375,-0.08193886301815509,0.02048970245691016,0.002127805808931589
1783693581913615600,7.66161572265625,-0.004724105912446976,0.00528040635464713,0.040437516589462756
1783693581923578600,7.67157861328125,0.03699789752960205,-0.0030976554880850016,0.06035086219683289
1783693581933540900,7.681540771484375,0.05453647682964802,0.013638174328021705,0.07562588047906756
1783693581943504000,7.69150390625,0.08510989426970482,0.029132278721034525,0.08240721118226647
1783693581953467000,7.701466796875,0.09175415458977222,0.002759473042283207,0.07744535099118947
1783693581963428600,7.7114287109375,0.07197101123332977,-0.019285970956645904,0.04748495088294148
1783693581973392000,7.721391845703125,0.04927461077868938,-0.026444245213456452,-0.02053586141988635
1783693581983353900,7.731353759765625,0.031392332607507706,-0.03593435995131731,-0.015540245089679956
1783693581993316900,7.74131689453125,0.02546995682120323,-0.040378315481822934,-0.018790040665864944
1783693582003278800,7.75127880859375,-0.00921732567846775,-0.01362694054795429,-0.007552607336640357
1783693582013241900,7.761241943359375,-0.07186404372751712,0.02400028612744063,0.01169949788302183
1783693582023204900,7.771204833984375,-0.10563011972904204,0.04314146005222574,0.009264233560115099
1783693582033166800,7.781166748046875,-0.13077157524824143,0.03620972456028685,0.04260127049461007
1783693582043129600,7.791129638671875,-0.12781681709587572,0.02910469659436494,0.05563990802690386
1783693582053091800,7.801091796875,-0.09684124859571457,0.00041020650239661333,0.060016515675932164
1783693582063054800,7.811054931640625,-0.061954644131660457,-0.01787352860914543,0.058265288094431156
1783693582073017900,7.821017822265625,-0.0907137056261301,-0.005832688208855688,0.036797844912856814
1783693582082979600,7.8309794921875,-0.09991641825735569,0.03171465989705175,0.03204465903639793
1783693582092942600,7.840942626953125,-0.13561959980130195,0.04428743348326534,0.042819589420408005
1783693582102904800,7.85090478515625,-0.12062135263383388,0.03581484349118545,0.03676642686128616
1783693582112867800,7.860867919921875,-0.07867255469858646,-0.002119202377367765,0.017995529287308454
1783693582122829800,7.870829833984375,-0.055925885361433024,-0.02016523800920695,0.01510828341320157
1783693582132792800,7.880792724609375,0.026778116810321807,-0.0383534951233305,-0.024681290661543606
1783693582142755800,7.890755859375,0.09176584502756595,-0.06945110083427279,-0.002375204698741436
1783693582152717800,7.9007177734375,0.1348281571626663,-0.05695826061647385,0.06831774942278862
1783693582162680800,7.910680908203125,0.10156593903005122,-0.011093166020326315,0.07939604666754603
1783693582172642800,7.920642822265625,0.02520341483950615,0.033547574412636456,0.06347220908775925
1783693582182605800,7.930605712890625,-0.04024783923625946,0.031229598060157147,0.07497092370167374
1783693582192567800,7.94056787109375,-0.11837035883665084,0.03157457557292655,0.05666735137850046
1783693582202530800,7.95053076171875,-0.10279343499839305,-0.001055737864319235,0.01742532818391919
1783693582212493800,7.960493896484375,-0.08036883722245693,-0.03421845941152423,0.00208440505862236
1783693582222455800,7.970455810546875,-0.07233458384871483,-0.019147786328662184,-0.0026548984229564664
1783693582232418800,7.980418701171875,-0.1298094522178173,-0.002675868145748973,-0.017635171542316676
1783693582242380800,7.990380859375,-0.12559504939317703,0.002713405410852283,-0.011280980210006236
1783693582252343800,8.00034375,-0.07594283747375011,-0.003472224421519786,0.01806727934926748
1783693582262306800,8.010306884765624,-0.08215513611733913,0.02259494937416166,0.058492228718101974
1783693582272268800,8.020268798828125,-0.13680208758413792,0.06970821740049868,0.07839110740870237
1783693582282231800,8.030231689453124,-0.08191314405500888,0.054320514257717875,0.11124094534814358
1783693582292193800,8.04019384765625,0.013746785801649094,0.056007718425989145,0.11544804164916277
1783693582302156800,8.05015673828125,0.04966507140100002,0.03315042832121253,0.08291296874731778
1783693582312118800,8.060118896484376,0.04657470417022705,0.014253913339879363,0.046256578131765126
1783693582322081800,8.070081787109375,0.07266425419449805,-0.003574734947923571,0.02311667169332504
1783693582332044800,8.080044921875,0.10004735116064548,-0.018479714341368525,0.026023060659319162
1783693582342006800,8.0900068359375,0.01675531996786594,0.002202624610811472,0.024193799405544995
1783693582351969800,8.0999697265625,-0.11459727003872394,0.024902367800008506,-0.013149550560861825
1783693582361931800,8.109931884765626,-0.16001520538926123,-0.00880761236641556,-0.01656695778891444
1783693582371894800,8.119894775390625,-0.11987374913692474,-0.029759854301158337,-0.03932677886858582
1783693582381856800,8.129856689453124,-0.0965957494020462,-0.023638065218925475,-0.022241350163519382
1783693582391819800,8.13981982421875,-0.05911503679156303,-0.04234340500971302,-0.0031502807244658468
1783693582401782800,8.14978271484375,0.02119008754491806,-0.014820132387895136,0.06829553759098053
1783693582411744800,8.159744873046876,-0.001665302863717079,0.04969170367959887,0.12499956771805881
1783693582421707800,8.169707763671875,-0.07279635614156722,0.07259683324778451,0.15746011407896876
1783693582431670000,8.179669921875,-0.06156184542179107,0.056629996776487675,0.130304249997437
1783693582441632800,8.1896328125,-0.009267594560980797,0.03355579425171017,0.06611249446347356
1783693582451595800,8.199595703125,0.0125613754093647,0.011631547213345765,0.022504238883405924
1783693582461557800,8.209557861328125,0.09110884242355823,-0.0003742401398718357,0.004613046753406525
1783693582471521000,8.21952099609375,0.1490285319507122,-0.0022761647710576654,-0.03498290444537997
1783693582481482800,8.229482666015626,0.12089607792198657,-0.006301438231766224,-0.04329202923774719
1783693582491445800,8.23944580078125,0.019256489133834837,-0.0062342547470703715,-0.04026420584917068
1783693582501407700,8.24940771484375,-0.1220405717819929,0.03202043791059404,-0.07187032733783126
1783693582511371000,8.25937109375,-0.2324526650905609,0.025149803222436456,-0.08961991904005408
1783693582521334000,8.269333984375,-0.2317114913344383,-0.017931140547897666,-0.0740782126456499
1783693582531295700,8.279295654296876,-0.13313245916068553,-0.05531652129143476,-0.0365796721175313
1783693582541258800,8.2892587890625,-0.06609773528575896,-0.07053316044993699,0.0367167425006628
1783693582551221000,8.299220947265624,-0.06792144358158111,-0.01910224842019379,0.09080489104092121
1783693582561184000,8.30918408203125,-0.10505436566770077,0.023171671549882738,0.1363166421547532
1783693582571145700,8.319145751953124,-0.1485229205161333,0.07601710828635841,0.1554275853380561
1783693582581108700,8.329108642578126,-0.15936989322304726,0.09598773703891783,0.13444237271547316
1783693582591071700,8.33907177734375,-0.12979893082380295,0.06919261429486796,0.09620908817201852
1783693582601034000,8.349033935546874,-0.07853636109828949,0.0464177600428462,0.0503609447106719
1783693582610996700,8.358996826171875,-0.02024842278063297,0.0028892551681026814,0.008216478072851896
1783693582620958700,8.368958740234374,0.037162732702493664,-0.014008450678829103,-0.009918021293729543
1783693582630921700,8.378921630859375,0.06726385645568371,-0.021754443429410457,-0.0270703777551651
1783693582640885000,8.388885009765625,0.06924772374927997,-0.03310996844666079,-0.03299830649942159
1783693582650846700,8.3988466796875,0.05943126313388347,-0.020505776808876542,-0.03571414132937789
1783693582660809700,8.408809814453125,0.06623977410495281,-0.01949616137491539,-0.02926496518999338
1783693582670771700,8.418771728515624,0.066793316334486,-0.01752188389357179,-0.016306261026114224
1783693582680735000,8.42873486328125,0.037141105392575265,-0.00716930710747838,-0.018084961136430502
1783693582690697000,8.438697021484375,0.028718729484081267,0.01831212095580995,0.000099514851719141
1783693582700659700,8.44865966796875,0.0002028290957212448,0.023515790546126663,0.05314356116652488
1783693582710622700,8.458622802734375,-0.06918167277574538,0.034503760892618446,0.06881079363673925
1783693582720585000,8.4685849609375,-0.11864157699346542,0.016701653551869092,0.037651977524161336
1783693582730548000,8.4785478515625,-0.10900164198875427,0.0023845570489764213,0.04848302200958132
1783693582740509700,8.488509765625,-0.12737199593782425,-0.01690367892999202,0.03831701730415225
1783693582750472700,8.49847265625,-0.1050789155870676,-0.019729294277355074,0.027935762412846087
1783693582760435000,8.50843505859375,-0.07491232538223266,0.00022922391230240463,0.056864189124852416
1783693582770398000,8.51839794921875,-0.1001157402217388,0.01579485917156562,0.06124006612151861
1783693582780361000,8.52836083984375,-0.12238660874068737,0.06039904872011393,0.058148822107911106
1783693582790322700,8.53832275390625,-0.09253624487817287,0.04981043468844145,0.07490633403286337
1783693582800285700,8.54828564453125,-0.03410159156620502,0.03988768242066726,0.06700754360705613
1783693582810248000,8.558248046875,0.030622517278790472,0.019623733277339486,0.046442748353630305
1783693582820211000,8.5682109375,0.04909107090532779,0.012669694622047244,0.027729572316259145
1783693582830172700,8.578172607421875,0.03899637787044048,0.01848671033773571,-0.010313158091157675
1783693582840136000,8.588135986328124,0.04168167143166065,-0.004439754279423505,-0.03555442072302103
1783693582850099000,8.598098876953125,0.0670113429993391,-0.025622644898574798,-0.05861819318532943
1783693582860061000,8.60806103515625,0.04731178627312183,-0.010132559093553572,-0.06550634526386857
1783693582870023700,8.618023681640626,-0.0016834230422973632,-0.003590151712764054,-0.07369315885081887
1783693582879986000,8.62798583984375,-0.017269699230790136,-0.015915398545004428,-0.06646086950972675
1783693582889949000,8.637948974609374,-0.013306056296825408,-0.027004929569829254,-0.055365621130168435
1783693582899912000,8.647911865234375,-0.050564650589227676,-0.01227609219457954,-0.00816898566931486
1783693582909873700,8.657873779296875,-0.11450199297070503,0.017152539124526082,-0.008950491435825825
1783693582919836700,8.667836669921876,-0.1955143887937069,0.06971789854429662,0.021022914284467696
1783693582929799000,8.677798828125,-0.2134989582955837,0.0803638687863946,0.029900778875499964
1783693582939762000,8.687761962890624,-0.21543723288178443,0.04724796378929168,-0.005982289279997348
1783693582949723600,8.6977236328125,-0.14654139131009578,0.011181556689832358,-0.01661912636756897
1783693582959686700,8.707686767578124,-0.05913841766715049,0.0041783268642611796,0.02535436761751771
1783693582969649700,8.717649658203126,0.019359949508309365,0.0066233636625111095,0.052173547090589995
1783693582979612000,8.72761181640625,0.04725274956226349,0.007169197509624064,0.028888240832090375
1783693582989575000,8.737574951171876,0.06616963147819042,0.02162133683534339,0.024541882190853355
1783693582999536600,8.74753662109375,0.10197802696228027,0.004766301086358725,0.08196721232980489
1783693583009500000,8.7575,0.06297755743861198,-0.0012667320001870392,0.07745733368992805
1783693583019463000,8.767462890625,0.016612112104892728,0.010347809279430657,0.05973273029848933
1783693583029425000,8.7774248046875,0.020771569871902464,-0.002092551832459867,0.07084419916048645
1783693583039388000,8.787387939453126,0.008634557354450225,-0.031133352877758442,0.07533931862264871
1783693583049350000,8.797349853515625,0.001409282276034355,-0.04128110954044387,0.08890066485479474
1783693583059313000,8.80731298828125,-0.026925416326522827,-0.016692337734252213,0.07920739222764968
1783693583069275000,8.81727490234375,-0.0635036271393299,0.026779724245518444,0.08037555922418832
1783693583079238000,8.82723779296875,-0.08930734595954418,0.06140532141951844,0.06081497257724404
1783693583089200600,8.83720068359375,-0.11570026284456253,0.0642677433796227,0.04114055029228329
1783693583099163000,8.847162841796875,-0.09408639692962169,0.05105586817227303,0.021926877386868
1783693583109126000,8.8571259765625,-0.12560323269963264,0.03483651824463159,-0.027871611135452983
1783693583119087900,8.867087890625,-0.1518511881560087,0.016769933015108106,-0.046304216665774584
1783693583129050600,8.877050537109374,-0.14290098898112774,0.00473163163177669,-0.07795461568757892
1783693583139012900,8.887012939453125,-0.10727496432662009,0.0006634688774123787,-0.07137070725262165
1783693583148975900,8.896975830078125,-0.03532090422809124,-0.012179262490291148,-0.0607600275196135
1783693583158939000,8.90693896484375,0.038677813440561294,-0.009044270666502416,-0.031128567104786634
1783693583168900600,8.916900634765625,0.030091186881065365,-0.03693933574277907,-0.01301598730906844
1783693583178863900,8.92686376953125,0.043024902734160424,-0.02249753514798358,0.01496361424550414
1783693583188825900,8.936825927734375,0.06248071383237838,-0.008496902449429035,0.0695591277860105
1783693583198788900,8.946788818359375,0.015483400335907935,0.009206219762563705,0.0932001156143844
1783693583208751900,8.956751953125,-0.04495499401390552,0.061244961492344735,0.08982786270231008
1783693583218713900,8.9667138671875,-0.09177402833402157,0.03614926307732239,0.08321253621578216
1783693583228676900,8.9766767578125,-0.1547223596781492,0.002727123408950865,0.05182677947953343
1783693583238638800,8.986638916015625,-0.18153730136752128,-0.011686474004667251,0.00552256281375885
1783693583248601900,8.996601806640625,-0.1489455298423767,-0.03358346770992502,0.010723638588190079
1783693583258563800,9.006563720703125,-0.09086568131744861,-0.04337329604672268,0.026169629523158072
1783693583268526800,9.01652685546875,-0.0796639038234949,-0.010252148618921637,0.04922551093995571
1783693583278489900,9.02648974609375,-0.08729600613713263,0.033339155826345085,0.04679989122822881
1783693583288451800,9.036451904296875,-0.06860942584574223,0.048888479271624236,0.07159092587456106
1783693583298414800,9.046414794921875,-0.035898411855101585,0.04423172124065459,0.08268953525498508
1783693583308376800,9.056376953125,-0.04612053066194057,0.052585762886982405,0.06538958701640367
1783693583318339800,9.06633984375,-0.04465922593772411,0.042493225276563316,0.03840528010949492
1783693583328302800,9.076302734375,0.020614333483576774,0.0013791428660973905,0.03400383028015494
1783693583338264800,9.086264892578125,0.04679565344452858,-0.008097473069373518,0.031362521991133686
1783693583348227800,9.096227783203124,-0.02342003855407238,0.013743223871383815,-0.01224178806617856
1783693583358189800,9.10618994140625,-0.049045478197932244,0.01343541829753667,-0.04242109162211418
1783693583368152800,9.11615283203125,0.012839607828855513,-0.02702171630784869,-0.0482465829052031
1783693583378115800,9.12611572265625,0.018086276310682294,-0.047767567216604946,-0.042862113387882705
1783693583388077800,9.136077880859375,-0.03720189566910267,-0.008418613048829137,-0.0771025289028883
1783693583398040800,9.146040771484374,-0.03065583502650261,0.0015237389685586094,-0.04548559375926852
1783693583408002000,9.156001953125,0.0048538697719573975,-0.01185563829280436,0.03863017490655184
1783693583417965000,9.165965087890624,0.04631400740742683,-0.010708550616912543,0.06198050922527909
1783693583427927000,9.175927001953125,-0.0003419453054666519,0.03332647900786251,0.0525840275876224
1783693583437890000,9.18589013671875,-0.08141863853633403,0.040564303040597584,0.05618716664612293
1783693583447853000,9.19585302734375,-0.10690262388288974,0.027143917915411292,0.07713935378193855
1783693583457815300,9.205815185546875,-0.15435527993142603,0.021802429023291915,0.015410773491114377
1783693583467778300,9.2157783203125,-0.16700024197101593,0.018827377001568675,-0.024238223069161176
1783693583477740000,9.225739990234375,-0.11984218495488166,0.003870393426250666,-0.0012815642431378365
1783693583487703000,9.235703125,-0.06666998221576213,0.0019844518154859543,0.035128742656856775
1783693583497666000,9.245666015625,-0.058606502747535705,-0.006729710113815963,0.02683803030401468
1783693583507628300,9.255628173828125,-0.05759060370326042,-0.0017804536759853363,0.026995120561867952
1783693583517591000,9.265591064453124,-0.0747013129800558,0.012311766296159475,0.018274200098216533
1783693583527553000,9.275552978515625,-0.07572422628700733,0.02770131433615461,0.05520414695814251
1783693583537516000,9.28551611328125,-0.079529463788867,0.07012629668209701,0.08654913329258561
1783693583547479000,9.29547900390625,-0.06249941853284836,0.07473715147841721,0.03991071623638272
1783693583557441000,9.30544091796875,-0.05158347224295139,0.036561716335732485,0.0024099837511777876
1783693583567404000,9.315404052734374,-0.001035188266634941,0.01474542318386957,-0.018938363095372914
1783693583577366000,9.325365966796875,-0.0810369457423687,0.016609993213042615,-0.049368426541984076
1783693583587329000,9.3353291015625,-0.02181318787932396,0.013694507625140248,-0.02406739654690027
1783693583597291000,9.345291015625,0.008449263915419577,0.02831645055981353,-0.006036649815738201
1783693583607254000,9.35525390625,-0.013130115208029746,0.03795760940723121,0.009480068267881869
1783693583617217000,9.365217041015624,0.02072071646749973,0.05105583163965493,0.00038709962144494055
1783693583627179300,9.37517919921875,0.06202537128031253,0.040889644271135325,0.017990853112190962
1783693583637142300,9.385142333984374,0.07804886984229087,0.014356734393537044,0.02614025729820132
1783693583647104000,9.39510400390625,0.07901274643838405,0.029420831605140117,0.03885229322463274
1783693583657067000,9.40506689453125,0.05885843168199062,0.05273240481605753,0.06381561569795012
1783693583667030000,9.415030029296876,0.012483633998036384,0.028520302568841725,0.07407265968769788
1783693583676992300,9.4249921875,-0.02952595421373844,0.03409667792906985,0.07007204574421048
1783693583686955000,9.434955078125,-0.03788169462680816,0.015113123985100537,0.04807502573058009
1783693583696917000,9.4449169921875,-0.06390753176510333,-0.012893767435196787,0.038748102197796105
1783693583706880000,9.4548798828125,-0.07600187418460845,-0.01711938577359542,0.012794161251932381
1783693583716843000,9.464843017578126,-0.08942951103448868,-0.015393493562750517,0.022757190731167793
1783693583726805000,9.474804931640625,-0.06878244432508945,-0.008423179626092315,0.029110943672060966
1783693583736768000,9.48476806640625,-0.1095271271675825,-0.006314133316557854,0.020224749644100665
1783693583746730000,9.49472998046875,-0.17702829951047896,0.03315523236049339,0.022451924174278975
1783693583756693200,9.504693359375,-0.19064532145261764,0.040667270224727686,0.052653585692495106
1783693583766656300,9.51465625,-0.15833119782507418,0.012374456268828361,0.05212576242610812
1783693583776618000,9.524617919921875,-0.07546294500231743,0.01715116915134713,0.07765607113242148
1783693583786581000,9.5345810546875,-0.0026268413722515104,0.006539082912541926,0.06562851033881306
1783693583796543200,9.544543212890625,0.05314005403518676,0.00993528295578435,0.07447524913921952
1783693583806506200,9.55450634765625,0.08854220680594443,0.022829233054071665,0.07764613426029682
1783693583816468000,9.564468017578125,0.08328267884254455,0.027601635087653995,0.06944426923468709
1783693583826431000,9.574430908203125,0.056985623547434805,0.04635035736244172,0.038749855763465166
1783693583836394000,9.58439404296875,0.01261456690132618,0.021823965001665054,0.007727817773073911
1783693583846356200,9.594356201171875,-0.00781739575266838,0.02062112855054438,-0.01686082616895437
1783693583856319200,9.6043193359375,-0.029451719933748243,0.0038110644544474778,-0.01599865638166666
1783693583866281000,9.614281005859375,-0.07500877149403094,-0.036645650025829674,-0.02655468331798911
1783693583876244000,9.624243896484375,-0.10288228232562541,-0.02461597034037113,-0.044709787081182
1783693583886207000,9.63420703125,-0.09634382046759128,0.009312255686614661,-0.02425736616104841
1783693583896169200,9.644169189453125,-0.057059857827425,0.01879442458003759,0.011474603085964917
1783693583906132000,9.654132080078124,-0.021225158858299255,0.05510865069441497,0.05610372614637017
1783693583916094000,9.664093994140625,-0.02081833162307739,0.06438921433482318,0.0824343914501369
1783693583926057200,9.67405712890625,-0.054227849271893495,0.07017095780773087,0.0869406168282032
1783693583936020200,9.684020263671876,-0.11851064409017562,0.14345316123748197,0.11897548512294888
1783693583945982000,9.69398193359375,-0.1575467694491148,0.12891959070600567,0.09878770648837089
1783693583955945000,9.703945068359374,-0.17237901239991188,0.07683971324823796,0.04659077852219343
1783693583965907200,9.7139072265625,-0.13767010259032247,0.020783552570641038,-0.03934270709007978
1783693583975870200,9.7238701171875,-0.08840192155241966,-0.04935328377177939,-0.10246727178394793
1783693583985833200,9.733833251953126,-0.011431494596600532,-0.04772535377638414,-0.08369228255674242
1783693583995795000,9.743794921875,0.05067980140149593,-0.05120946956509724,-0.036022768887132406
1783693584005758000,9.753758056640624,0.0624713614821434,-0.003837112211156636,0.013533289181441067
1783693584015720200,9.76372021484375,0.0071294134885072705,0.03707390364157036,0.04449819015711546
1783693584025683200,9.77368310546875,-0.0411520945996046,0.06012905440600588,0.07542159007862209
1783693584035645000,9.78364501953125,-0.04063187011778355,0.057134841026086354,0.0879417566947639
1783693584045608000,9.79360791015625,-0.021077859342098236,0.038990404787380244,0.07047361228242516
1783693584055571200,9.8035712890625,0.0031517420291900635,0.006754278299491852,0.03947159416675567
1783693584065533200,9.813533203125,0.01165244387090206,-0.017538378370646385,0.0028102351151406764
1783693584075496200,9.82349609375,0.014915245059132574,-0.02554914127094671,-0.016128712502121924
1783693584085458000,9.8334580078125,0.013826280778646468,-0.02924647968523204,-0.02053776111602783
1783693584095421200,9.843421142578125,0.0022340426623821256,-0.003189242761675268,-0.015869623174518347
1783693584105384200,9.85338427734375,-0.05421382074654102,0.027757410171255468,-0.03471343985423445
1783693584115346200,9.86334619140625,-0.09607143326699732,0.02303787083607167,-0.028791940850764513
1783693584125309000,9.873308837890624,-0.12035714873969554,0.0367676872366108,-0.01912088005542755
1783693584135271200,9.883271240234375,-0.10210954438745976,0.043369587985984975,-0.021903496511280537
1783693584145234200,9.893234130859375,-0.06939093161225318,0.025292791889701037,-0.008777765217423439
1783693584155197200,9.903197265625,-0.04119651826322079,0.025775734834745524,-0.009708470196276903
1783693584165159000,9.913158935546875,-0.017107202145457266,0.008504738696012645,-0.014104805459082126
1783693584175122000,9.923121826171876,0.009733458507061005,-0.031511958665493875,-0.00691182521507144
1783693584185084200,9.933084228515625,-0.02855097170174122,-0.029485896197985854,-0.010404343505948781
1783693584195047200,9.943047119140624,-0.06969371395111083,-0.002381287379655987,0.0027862697176635263
1783693584205009000,9.9530087890625,-0.08515490245521068,0.05080271539511159,0.05391629910469055
1783693584214972000,9.962971923828125,-0.10891863988041878,0.05095828954931348,0.08740794207900762
1783693584224935200,9.97293505859375,-0.10502513957321644,0.05918658592412248,0.09897650705873966
1783693584234897200,9.982897216796875,-0.13209201019704342,0.03487434777067974,0.08395224866718054
1783693584244860200,9.992860107421874,-0.11813830364644527,0.008438304129987955,0.0427992772847414
1783693584254822000,10.00282177734375,-0.06107493868768215,-0.030264077496249226,0.022760990123450755
1783693584264785200,10.01278515625,-0.006865209594368934,-0.047960477706510574,0.03052124886140227
1783693584274748200,10.022748046875,0.00796118813753128,-0.03482263584975153,0.026899989624321458
1783693584284710100,10.032710205078125,-0.001281271982192993,-0.0018346132823266088,0.01359393332749605
1783693584294673200,10.042673095703124,0.012115385207533835,-0.010500753085128963,-0.007784370265901088
1783693584304635100,10.05263525390625,0.028835049340128895,-0.004236011868249625,-0.044771308010071516
1783693584314598100,10.06259814453125,0.03393091117441654,-0.010207597091142087,-0.08905278667658567
1783693584324561200,10.07256103515625,0.0477402408182621,-0.014691062648128717,-0.03978212142065167
1783693584334523100,10.082523193359375,0.06308861659765243,0.011696009017992764,0.014309095859527587
1783693584344486000,10.09248583984375,0.060196986809372896,0.05723667569905519,0.001512596520036459
1783693584354448100,10.1024482421875,0.024251813203096387,0.03353104340294376,0.021405776122212408
1783693584364411100,10.1124111328125,0.00627893413901329,0.0064253020734526215,0.00033770752176642414
1783693584374373000,10.122373046875,-0.04836451019644737,-0.028000279016420243,-0.030270342840254306
1783693584384336000,10.1323359375,-0.09135317257344722,-0.04339099610019475,-0.030138825415074823
1783693584394299100,10.142299072265626,-0.1328857909232378,-0.026330610504839567,-0.02130100057348609
1783693584404261000,10.15226123046875,-0.1980459530979395,-0.009063614687789231,0.0028321546860039233
1783693584414224400,10.162224365234374,-0.19153379472494125,-0.01949919358221814,0.05140285497903824
1783693584424186400,10.172186279296875,-0.18326923972666262,-0.00394798870710656,0.05287658079341054
1783693584434149400,10.1821494140625,-0.1525397549420595,-0.012903466845303774,0.09392506888806819
1783693584444112600,10.192112548828124,-0.12667875297665596,0.005706303616520017,0.17710691770464182
1783693584454074400,10.202074462890625,-0.07497545374631881,0.0233908307258971,0.15106880560666322
1783693584464037400,10.212037353515624,-0.07502572262883186,0.01791340396180749,0.07813435616865753
1783693584473999600,10.22199951171875,-0.09017711453139782,-0.004185487257409841,0.040941082197427744
1783693584483962600,10.231962646484375,-0.06187924080789089,-0.01173986642602831,-0.0012992460303008556
1783693584493925400,10.24192529296875,-0.03200140441656112,-0.03952378101171925,-0.010339753837138414
1783693584503887400,10.251887451171875,0.03260872265994549,-0.04438267401866615,0.002189034476876259
1783693584513850400,10.261850341796874,0.09431377594470977,-0.0377820336446166,0.04693170091435313
1783693584523812600,10.2718125,0.09521277061104774,0.0010484496070072055,0.07709259203076362
1783693584533775400,10.281775390625,0.029370471391081808,0.01792091141482815,0.06544438594356179
1783693584543737300,10.2917373046875,-0.05572130270004272,0.04458026068368926,0.06306582024395466
1783693584553700400,10.301700439453125,-0.09214929138720035,0.018801731103658674,0.047924803604930635
1783693584563663400,10.311663330078124,-0.08861468752026558,0.013361110952310263,0.029793372978270054
1783693584573625300,10.321625244140625,-0.09115677321851252,-0.0074699340218678115,0.0008553016550838947
1783693584583588400,10.33158837890625,-0.07343699213266372,-0.04729176639840007,-0.012527180878818035
1783693584593550300,10.34155029296875,-0.06840659675002098,-0.05498084132997319,-0.007015139459073543
1783693584603513600,10.351513671875,-0.0701397041529417,-0.0363015492958948,0.003618921149522066
1783693584613476600,10.3614765625,-0.05565291363894939,-0.02249369922308251,0.028822482119500635
1783693584623438300,10.371438232421875,-0.04926116677522659,0.024310119261592624,0.05711304931938648
1783693584633401300,10.3814013671875,-0.019366963770985603,0.048305327355116605,0.059453036574274296
1783693584643363600,10.391363525390625,0.039002807611227035,0.03717692562462762,0.05383490443155169
1783693584653326600,10.40132666015625,0.0978852046906948,0.016790866205282508,0.03825812672376633
1783693584663289300,10.411289306640626,0.1533937414228916,0.016626231961790472,0.02725070275813341
1783693584673251300,10.421251220703125,0.13655892647802828,-0.001412953804153949,0.012966887470334768
1783693584683214300,10.43121435546875,0.05272212088406086,-0.013354041890706866,-0.04255976944044232
1783693584693176600,10.441176513671875,0.012304185777902602,-0.012417509959265589,-0.02839592727050185
1783693584703139300,10.451139404296875,-0.030206922215223312,-0.013350534759368747,-0.01144829960092902
1783693584713101300,10.461101318359376,-0.044915831047296524,-0.03367315528737381,0.014859569349139928
1783693584723064300,10.471064208984375,-0.031658874589204786,-0.057326673803757874,0.03325345030426979
1783693584733027600,10.481027587890624,-0.011684592574834823,-0.05109177973587065,0.02634878548234701
1783693584742989600,10.490989501953125,-0.04149462442696094,-0.0320491525484249,0.04381926798224449
1783693584752952300,10.500952392578125,-0.12183306651115416,-0.007348572664521634,0.11057473652437329
1783693584762914300,10.510914306640625,-0.1753840394347906,0.07498292466672137,0.13351239838898182
1783693584772877600,10.520877685546875,-0.22086451862752438,0.10364563138093799,0.13566285442113876
1783693584782840600,10.530840576171874,-0.3051695262551308,0.11003768877191468,0.08663023570477962
1783693584792802300,10.54080224609375,-0.2703898892968893,0.0884721555107273,-0.015324410381913183
1783693584802765300,10.550765380859374,-0.13643325427174569,0.04110712294671684,0.0005282616578042507
1783693584812727600,10.5607275390625,-0.05491700057983398,0.0357763563780114,0.10865443598628044
1783693584822690600,10.570690673828125,0.021450784307718275,0.05838997392002493,0.11929404955282806
1783693584832652300,10.58065234375,0.07502104645371437,0.02274277861332521,0.05194193029180169
1783693584842615300,10.590615234375,-0.007466098096966743,-0.0243403317367658,-0.06168941732421517
1783693584852578300,10.600578369140624,-0.0436924267321825,-0.023706326415855437,-0.11829203290343283
1783693584862540500,10.61054052734375,-0.04372340639233589,-0.03495261890497058,-0.15555413432717322
1783693584872503600,10.620503662109375,-0.06193067873418331,-0.05413103783391416,-0.17785510572344063
1783693584882465300,10.63046533203125,-0.14308803598582745,-0.022519107658974826,-0.10282061526626347
1783693584892428300,10.64042822265625,-0.08724749082028865,0.08326704288199543,0.03273454099670052
1783693584902391600,10.6503916015625,0.09592822540402411,0.20727527974145485,0.22338921479955315
1783693584912353500,10.660353515625,0.20780571509003637,0.11427079629702493,0.26825433857291936
1783693584922316300,10.67031640625,0.29457740509212016,0.04069766536299139,0.1887163992166519
1783693584932278300,10.6802783203125,0.35862580663263793,-0.07251602309653535,-0.052163756348937745
1783693584942241500,10.690241455078125,0.34530163015723225,-0.15215205253241582,-0.1110264258146286
1783693584952203500,10.70020361328125,-0.049097500646114345,0.010503091172687709,-0.04223579818308353
1783693584962166300,10.710166259765625,-0.23262042287290094,0.029040052126627414,0.07879910368770361
1783693584972129300,10.72012939453125,-0.45571723059713837,-0.028077582036331296,-0.21631372345536945
1783693584982091500,10.730091552734375,-0.5295189643889665,-0.07845589800691231,-0.2809185898348689
1783693584992054500,10.740054443359375,-0.4768213934242725,-0.1040295709309168,-0.1479768309406936
1783693585002016300,10.750016357421876,-0.23683365665376185,-0.11118004547376185,-0.12389935139119625
1783693585011979300,10.759979248046875,-0.05029693956375122,-0.040097178719192744,-0.03912964886128902
1783693585021942300,10.7699423828125,0.07502280001938343,0.012056165833584964,0.042320261596143244
1783693585031904500,10.779904541015625,0.09182897339165211,0.0599873809129931,0.07581058939620852
1783693585041867500,10.789867431640625,-0.1372808110117912,0.19164702757475896,0.06360314199104905
