time,seconds_elapsed,z,y,x
1783693635700228400,0.057228271484375,-0.01379928644746542,0.019792813807725906,-0.006696438416838646
1783693635710190600,0.067190673828125,-0.013490092940628529,0.01253383606672287,0.0026805512607097626
1783693635720153600,0.077153564453125,-0.009353569708764553,0.003103639930486679,0.0067634182050824165
1783693635730115600,0.087115478515625,-0.0022101723589003086,-0.0060483128763735294,0.010839919559657574
1783693635740078600,0.09707861328125,0.008035723119974136,-0.011493714526295662,0.015434401109814644
1783693635750040600,0.10704052734375,0.018753083422780037,-0.015525740571320057,0.014320401474833488
1783693635760003600,0.117003662109375,0.030018310993909836,-0.017715387046337128,0.01141201052814722
1783693635769965600,0.126965576171875,0.03605276718735695,-0.013013577088713646,0.005952263716608286
1783693635779928600,0.136928466796875,0.03511030972003937,-0.008505335077643394,-0.006273302715271711
1783693635789890600,0.146890625,0.03483307734131813,-0.012242015451192856,-0.015768270939588547
1783693635799853600,0.156853515625,0.03363271430134773,-0.005582274869084358,-0.02173323556780815
1783693635809815600,0.166815673828125,0.03018951416015625,0.002674323506653309,-0.019417617470026016
1783693635819778600,0.176778564453125,0.024489950388669968,0.00513132568448782,-0.012430880218744278
1783693635829740500,0.186740478515625,0.02078043296933174,0.006377951242029667,-0.004299983847886324
1783693635839703600,0.19670361328125,0.01744595542550087,0.010297341272234917,0.005800087936222553
1783693635849665500,0.20666552734375,0.014817415736615658,0.015255347825586796,0.00468448968604207
1783693635859628800,0.21662890625,0.010822223499417305,0.010705373249948025,-0.005862690508365631
1783693635869590500,0.226590576171875,0.0068594408221542835,0.006084256339818239,-0.015436753630638123
1783693635879553500,0.236553466796875,0.004393222741782665,0.004395782016217709,-0.02526841126382351
1783693635889515500,0.246515625,0.0006256485939957201,0.00410123635083437,-0.027716655284166336
1783693635899478800,0.256478759765625,-0.003320470917969942,0.009025945328176022,-0.02599474973976612
1783693635909441500,0.266441650390625,-0.010525120422244072,0.010342080146074295,-0.028835011646151543
1783693635919403500,0.276403564453125,-0.01348954252898693,0.006829366087913513,-0.033295053988695145
1783693635929366500,0.286366455078125,-0.017115436494350433,0.003691629506647587,-0.037639468908309937
1783693635939328800,0.296328857421875,-0.01645371876657009,-0.0016570286825299263,-0.041083887219429016
1783693635949291500,0.30629150390625,-0.016001248732209206,-0.009002826176583767,-0.040421292185783386
1783693635959253500,0.31625341796875,-0.01289479248225689,-0.011903827078640461,-0.031592994928359985
1783693635969216500,0.326216552734375,-0.007637179922312498,-0.012481732293963432,-0.017036423087120056
1783693635979178800,0.3361787109375,-0.007190804462879896,-0.009415130130946636,0.0005186923663131893
1783693635989141500,0.3461416015625,-0.004268784075975418,-0.003938872367143631,0.019163217395544052
1783693635999103500,0.356103515625,0.00025679185637272894,-0.0034775978419929743,0.028630254790186882
1783693636009066500,0.36606640625,0.0006155195878818631,-0.0075815292075276375,0.032323528081178665
1783693636019028700,0.37602880859375,0.0019450363470241427,-0.009845261462032795,0.0343913733959198
1783693636028991500,0.385991455078125,0.0035740919411182404,-0.014376364648342133,0.024553919211030006
1783693636038953500,0.395953369140625,0.0056324303150177,-0.01780327968299389,0.010806845501065254
1783693636048916500,0.40591650390625,0.012029609642922878,-0.017553476616740227,-0.0015438304981216788
1783693636058878700,0.415878662109375,0.015548234805464745,-0.014553154818713665,-0.00432518869638443
1783693636068841500,0.425841552734375,0.016494454815983772,-0.014270327053964138,-0.0026210318319499493
1783693636078803500,0.435803466796875,0.015417312271893024,-0.008944272994995117,-0.005359717179089785
1783693636088766500,0.445766357421875,0.011588752269744873,-0.006563939619809389,-0.011972612701356411
1783693636098728700,0.455728759765625,0.005997920408844948,-0.0037556402385234833,-0.012277591973543167
1783693636108691500,0.46569140625,0.0027344829868525267,-0.004014765843749046,-0.012213409878313541
1783693636118653400,0.4756533203125,-0.0030784746631979942,-0.008600222878158092,-0.014018253423273563
1783693636128616400,0.485616455078125,-0.00048162630992010236,-0.01286074798554182,-0.014836642891168594
1783693636138579700,0.495579833984375,0.0016244298312813044,-0.00919940136373043,-0.011952215805649757
1783693636148541700,0.505541748046875,0.004867361392825842,-0.01043244544416666,-0.004349157214164734
1783693636158504400,0.51550439453125,0.0010048168478533626,-0.01762165129184723,-0.005441742483526468
1783693636168466700,0.525466796875,0.0036911475472152233,-0.021882709115743637,-0.007507822941988707
1783693636178429700,0.5354296875,0.00367165869101882,-0.011761358007788658,-0.007368601858615875
1783693636188391700,0.5453916015625,0.0020218300633132458,-0.0037151495926082134,-0.001288604806177318
1783693636198354400,0.5553544921875,0.002346307970583439,-0.006207603961229324,0.00851593166589737
1783693636208316700,0.565316650390625,0.0043814959935843945,-0.014440500177443027,0.02019575797021389
1783693636218279700,0.57527978515625,0.0034167938865721226,-0.013764854520559311,0.02514779567718506
1783693636228241700,0.58524169921875,0.0012026418698951602,-0.010421521961688995,0.029588883742690086
1783693636238204400,0.595204345703125,0.00030045854509808123,-0.013710804283618927,0.024212351068854332
1783693636248166700,0.605166748046875,0.0013801039895042777,-0.015249844640493393,0.02192043513059616
1783693636258129700,0.615129638671875,0.00020901652169413865,-0.004504777025431395,0.01865367777645588
1783693636268091600,0.625091552734375,-0.0008309478871524334,-0.0024067386984825134,0.01218645740300417
1783693636278054400,0.635054443359375,0.004585627466440201,-0.008624454028904438,-0.00042543187737464905
1783693636288016600,0.6450166015625,0.009110604412853718,-0.016272254288196564,-0.014248036779463291
1783693636297979600,0.654979736328125,0.01309713814407587,-0.01842382736504078,-0.0291635412722826
1783693636307941600,0.664941650390625,0.013928043656051159,-0.02154718153178692,-0.043401867151260376
1783693636317904400,0.674904296875,0.014756476506590843,-0.019943926483392715,-0.05596175044775009
1783693636327867400,0.684867431640625,0.012044047005474567,-0.011068142019212246,-0.05613831803202629
1783693636337829600,0.69482958984375,0.00517922593280673,0.0010311424266546965,-0.049280691891908646
1783693636347792600,0.704792724609375,0.001002590637654066,0.008239254355430603,-0.0403018444776535
1783693636357754400,0.71475439453125,-0.001972208032384515,0.005937490612268448,-0.032826412469148636
1783693636367717600,0.724717529296875,0.0007239761762320995,0.008122880011796951,-0.020142311230301857
1783693636377679600,0.7346796875,0.003646083176136017,0.012216135859489441,-0.011971594765782356
1783693636387642600,0.744642578125,0.0058647627010941505,0.008720469661056995,-0.00548040634021163
1783693636397604400,0.754604248046875,0.009845787659287453,0.0053199101239442825,-0.0024438039399683475
1783693636407567600,0.764567626953125,0.014148123562335968,0.007173470221459866,-0.0043791234493255615
1783693636417529600,0.774529541015625,0.014842230826616287,0.011602549813687801,-0.005504968576133251
1783693636427492600,0.78449267578125,0.016981547698378563,0.012050759978592396,-0.009756705723702908
1783693636437454300,0.794454345703125,0.017551884055137634,0.0065566496923565865,-0.014411740005016327
1783693636447417600,0.80441748046875,0.017270654439926147,0.0006795856752432883,-0.023382598534226418
1783693636457379600,0.814379638671875,0.018670782446861267,-0.0008642509346827865,-0.02354174479842186
1783693636467343000,0.824343017578125,0.01874375157058239,0.006551320664584637,-0.01776348426938057
1783693636477305000,0.83430517578125,0.01544013898819685,0.010921550914645195,-0.014990526251494884
1783693636487268000,0.84426806640625,0.010586794465780258,0.018077731132507324,-0.009182970970869064
1783693636497230000,0.85422998046875,0.003444814123213291,0.02067887783050537,-0.004253987222909927
1783693636507193000,0.864193115234375,0.00045914429938420653,0.017467904835939407,-0.006198094692081213
1783693636517155000,0.874155029296875,0.002865480724722147,0.009790556505322456,-0.005417380481958389
1783693636527118000,0.8841181640625,0.004680424928665161,0.0070589520037174225,-0.0009983968921005726
1783693636537081000,0.8940810546875,0.00934494286775589,-0.0022677150554955006,0.0012352108024060726
1783693636547043000,0.90404296875,0.011314350180327892,-0.006291218567639589,0.0037939760368317366
1783693636557006000,0.914006103515625,0.008327758871018887,-0.0005425389390438795,0.005948659032583237
1783693636566968000,0.923968017578125,0.0033074337989091873,0.00466953357681632,0.004579527769237757
1783693636576931000,0.93393115234375,0.0017375955358147621,0.0063406541012227535,0.0033332922030240297
1783693636586893000,0.94389306640625,0.003159457119181752,0.005551026668399572,0.0001313736429437995
1783693636596856000,0.95385595703125,0.003260637167841196,0.004281004425138235,0.002417325973510742
1783693636606818000,0.963818115234375,0.007223154418170452,-0.0019153725588694215,0.0009113084524869919
1783693636616781000,0.973781005859375,0.012469354085624218,-0.007643583230674267,0.00018354301573708653
1783693636626743000,0.983742919921875,0.016950922086834908,-0.006742369383573532,0.00650482252240181
1783693636636706000,0.9937060546875,0.016901491209864616,0.0033307690173387527,0.0181575920432806
1783693636646668000,1.00366796875,0.015594412572681904,0.009557772427797318,0.02857055328786373
1783693636656631000,1.013631103515625,0.01243847981095314,0.011852108873426914,0.03183811157941818
1783693636666593000,1.023593017578125,0.0067222705110907555,0.009858733043074608,0.03346344083547592
1783693636676556000,1.03355615234375,0.005401778966188431,0.0038599756080657244,0.02400323376059532
1783693636686518000,1.04351806640625,0.005558639299124479,-0.0016620887909084558,0.012052299454808235
1783693636696481000,1.05348095703125,0.0037943345960229635,-0.00319502130150795,-0.0007851251866668463
1783693636706443000,1.063443115234375,0.004888094495981932,-0.004419809207320213,-0.007025443948805332
1783693636716406000,1.073406005859375,0.006912411190569401,-0.0028813076205551624,-0.008125267922878265
1783693636726368300,1.0833681640625,0.007538520731031895,-0.0015811523189768195,-0.008836864493787289
1783693636736331000,1.0933310546875,0.0029393071308732033,-0.0007057561306282878,-0.007501788903027773
1783693636746293000,1.10329296875,-0.0018953955732285976,0.001030624844133854,-0.008687428198754787
1783693636756256000,1.113256103515625,-0.004583276342600584,-0.0006018993444740772,-0.011245066300034523
1783693636766218200,1.12321826171875,-0.006796096917241812,-0.008893384598195553,-0.012408334761857986
1783693636776181000,1.133180908203125,-0.006624903529882431,-0.012541109696030617,-0.0057337163016200066
1783693636786144000,1.14314404296875,-0.005583341233432293,-0.011180766858160496,0.0009492200915701687
1783693636796106000,1.15310595703125,-0.004627017769962549,-0.008412433788180351,0.00864125695079565
1783693636806069200,1.1630693359375,-0.002509005833417177,-0.0010983275715261698,0.017907725647091866
1783693636816031000,1.173031005859375,-0.002843310823664069,0.0039017917588353157,0.02104504406452179
1783693636825994000,1.182993896484375,0.0013599564554169774,-0.0029784850776195526,0.016202084720134735
1783693636835956200,1.192956298828125,0.0007035920862108469,-0.006883746944367886,0.011435668915510178
1783693636845919200,1.202919189453125,-0.00016672896163072437,-0.01048940047621727,0.005308001302182674
1783693636855881000,1.212880859375,-0.0026293627452105284,-0.015677249059081078,0.0027836053632199764
1783693636865844000,1.222843994140625,-0.00443764915689826,-0.016911357641220093,0.0036296918988227844
1783693636875806200,1.23280615234375,-0.008729645051062107,-0.013043703511357307,0.005576800554990768
1783693636885769200,1.242769287109375,-0.010462031699717045,-0.012082834728062153,0.006511836312711239
1783693636895731000,1.25273095703125,-0.012442216277122498,-0.008042511530220509,0.006316412705928087
1783693636905694000,1.26269384765625,-0.013697629794478416,-0.006804407574236393,0.0033895988017320633
1783693636915656200,1.27265625,-0.01747109554708004,-0.012813536450266838,-0.004550441633909941
1783693636925619200,1.282619140625,-0.019108407199382782,-0.013409019447863102,-0.00412460183724761
1783693636935581000,1.292580810546875,-0.019031399860978127,-0.012847908772528172,0.0017986117163673043
1783693636945544000,1.3025439453125,-0.015310431830585003,-0.015113726258277893,0.0037541708443313837
1783693636955506200,1.312506103515625,-0.013586558401584625,-0.01281141210347414,0.008863430470228195
1783693636965469200,1.32246923828125,-0.01295379176735878,-0.01118715014308691,0.015012669377028942
1783693636975431000,1.332430908203125,-0.013310284353792667,-0.01440824568271637,0.0146676329895854
1783693636985394000,1.342393798828125,-0.012398950755596161,-0.014262570068240166,0.014329145662486553
1783693636995356200,1.352356201171875,-0.01665189303457737,-0.01216217689216137,0.008490379899740219
1783693637005319200,1.362319091796875,-0.020792575553059578,-0.013931581750512123,0.002629561349749565
1783693637015281000,1.372281005859375,-0.025080788880586624,-0.012720897793769836,0.0011288558598607779
1783693637025244000,1.382243896484375,-0.02318568341434002,-0.00889340229332447,0.0024140975438058376
1783693637035207000,1.39220703125,-0.01870720647275448,-0.0050667086616158485,0.004675763193517923
1783693637045169200,1.402169189453125,-0.014403272420167923,-0.004318892955780029,0.004650463350117207
1783693637055132200,1.412132080078125,-0.008659261278808117,-0.00793866254389286,0.0016278848052024841
1783693637065094000,1.422093994140625,-0.00716123403981328,-0.012926498427987099,-0.004214824177324772
1783693637075057200,1.43205712890625,-0.005421486683189869,-0.012701980769634247,-0.007897035218775272
1783693637085019100,1.44201904296875,-0.009062560275197029,-0.009181547909975052,-0.013309377245604992
1783693637094982100,1.451982177734375,-0.010041757486760616,-0.005688552279025316,-0.023307088762521744
1783693637104943900,1.46194384765625,-0.010377847589552402,-0.004649919457733631,-0.03080255538225174
1783693637114907100,1.4719072265625,-0.012661006301641464,-0.002867703791707754,-0.03224474936723709
1783693637124869000,1.481869140625,-0.012170718051493168,-0.002837609965354204,-0.03164873272180557
1783693637134832000,1.49183203125,-0.011056211777031422,-0.0025654674973338842,-0.02750188112258911
1783693637144794000,1.501794189453125,-0.014624581672251225,-0.0017010055016726255,-0.020250625908374786
1783693637154757000,1.511757080078125,-0.016308393329381943,0.0006012952653691173,-0.0051365443505346775
1783693637164719000,1.521718994140625,-0.019918309524655342,0.0028402148745954037,0.007700424641370773
1783693637174682000,1.53168212890625,-0.02169289067387581,0.0026314742863178253,0.02184903435409069
1783693637184644000,1.54164404296875,-0.024998139590024948,0.0057734716683626175,0.03251126781105995
1783693637194607000,1.551607177734375,-0.024892188608646393,0.004479654598981142,0.034040793776512146
1783693637204569000,1.561569091796875,-0.021470826119184494,-0.00008713407441973686,0.029692651703953743
1783693637214532000,1.571531982421875,-0.015250243246555328,-0.0013772022211924195,0.015528139658272266
1783693637224494000,1.581494140625,-0.008167833089828491,-0.0015859940322116017,-0.00025002495385706425
1783693637234457000,1.59145703125,0.001626530196517706,-0.0007720667636021972,-0.013706797733902931
1783693637244419000,1.601419189453125,0.006953917443752289,0.006921006832271814,-0.017461854964494705
1783693637254382000,1.611382080078125,0.010867471806704998,0.008880010806024075,-0.02157023549079895
1783693637264344000,1.621343994140625,0.009742818772792816,0.008055496029555798,-0.02265281043946743
1783693637274307000,1.63130712890625,0.007067939732223749,0.007484247907996178,-0.02084026299417019
1783693637284270000,1.64127001953125,0.002379977609962225,0.007399559486657381,-0.02308104746043682
1783693637294232000,1.651232177734375,-0.004474208690226078,0.005022677592933178,-0.025475481525063515
1783693637304195000,1.661195068359375,-0.011565675027668476,0.0032034721225500107,-0.026758858934044838
1783693637314157000,1.671156982421875,-0.01697142794728279,0.0050466908141970634,-0.021824723109602928
1783693637324120000,1.6811201171875,-0.014690963551402092,0.010105631314218044,-0.012316704727709293
1783693637334082000,1.69108203125,-0.013962186872959137,0.01714407093822956,0.0037234495393931866
1783693637344045000,1.701045166015625,-0.01578085869550705,0.02177797071635723,0.013302573002874851
1783693637354007000,1.711007080078125,-0.009485222399234772,0.017644187435507774,0.016805410385131836
1783693637363970000,1.720969970703125,-0.005562918726354837,0.008597161620855331,0.016846423968672752
1783693637373932000,1.73093212890625,-0.003953656647354364,-0.001516168937087059,0.010556165128946304
1783693637383895000,1.74089501953125,-0.005298020783811808,-0.008115215227007866,0.0005394837935455143
1783693637393857000,1.75085693359375,-0.006980073172599077,-0.006070973351597786,-0.009455093182623386
1783693637403820000,1.760820068359375,-0.006640786305069923,0.0011659004958346486,-0.01661260426044464
1783693637413782000,1.770781982421875,-0.008845321834087372,0.00476886285468936,-0.019340921193361282
1783693637423745300,1.780745361328125,-0.009960386902093887,0.0061574350111186504,-0.019953448325395584
1783693637433707000,1.79070703125,-0.009984350763261318,0.010446259751915932,-0.013905028812587261
1783693637443670000,1.800669921875,-0.008928406983613968,0.013107024133205414,-0.011180881410837173
1783693637453632000,1.810632080078125,-0.007564755622297525,0.007449413649737835,-0.011067602783441544
1783693637463595300,1.82059521484375,-0.002102079801261425,-0.002090561669319868,-0.005413978826254606
1783693637473556000,1.830555908203125,0.002199956914409995,-0.005128472112119198,0.00042346480768173933
1783693637483519000,1.84051904296875,0.007896458730101585,-0.008162344805896282,0.005024075508117676
1783693637493481000,1.85048095703125,0.011145483702421188,-0.011438804678618908,0.005165130831301212
1783693637503444000,1.86044384765625,0.01241874136030674,-0.009579917415976524,0.0017299193423241377
1783693637513406000,1.870406005859375,0.0132007896900177,-0.005745784379541874,0.00022968131816014647
1783693637523369000,1.880368896484375,0.013442871160805225,0.00003647117409855127,-0.007857274264097214
1783693637533331000,1.8903310546875,0.009665900841355324,0.0038085465785115957,-0.017374364659190178
1783693637543294000,1.9002939453125,0.00446874275803566,0.004384588450193405,-0.026506077498197556
1783693637553257000,1.910257080078125,-0.0011246560607105494,0.0027605751529335976,-0.03331117704510689
1783693637563219000,1.920218994140625,-0.006331668701022863,-0.0039071813225746155,-0.03675384446978569
1783693637573182200,1.93018212890625,-0.008033505640923977,-0.00932268425822258,-0.032108910381793976
1783693637583144000,1.94014404296875,-0.005768220871686935,-0.014470309019088745,-0.01672276481986046
1783693637593107000,1.95010693359375,-0.003432611469179392,-0.012086757458746433,0.009185501374304295
1783693637603069200,1.960069091796875,-0.0014472249895334244,-0.005134043283760548,0.03734949603676796
1783693637613032200,1.9700322265625,0.0012784373247995973,-0.0015550577081739902,0.04811425507068634
1783693637622994000,1.979993896484375,0.0030542330350726843,-0.001842678990215063,0.050494324415922165
1783693637632957000,1.98995703125,0.0055051096715033054,0.0009371564374305308,0.04651893302798271
1783693637642919200,1.999919189453125,0.00706572225317359,-0.007818784564733505,0.029915452003479004
1783693637652882200,2.009882080078125,0.015143643133342266,-0.015018412843346596,0.01589294895529747
1783693637662844000,2.019843994140625,0.01989845186471939,-0.012314505875110626,0.006335131358355284
1783693637672807000,2.029806884765625,0.022441094741225243,-0.010603670962154865,-0.0027229981496930122
1783693637682769200,2.03976904296875,0.024075476452708244,-0.00942921731621027,-0.006649296265095472
1783693637692732200,2.049732177734375,0.023189691826701164,-0.007338657043874264,-0.006007445976138115
1783693637702694000,2.05969384765625,0.02112547494471073,-0.0005220304010435939,-0.004640711471438408
1783693637712657000,2.069656982421875,0.016475670039653778,0.007669612765312195,-0.003907524514943361
1783693637722619100,2.079619140625,0.009051309898495674,0.00824698619544506,-0.008738765493035316
1783693637732582100,2.08958203125,0.0050305649638175964,0.005708714015781879,-0.017629338428378105
1783693637742544000,2.0995439453125,0.001602277741767466,0.003869535168632865,-0.02378816530108452
1783693637752507000,2.1095068359375,0.0012652610894292593,0.003002983285114169,-0.028353039175271988
1783693637762469000,2.11946923828125,0.003469293238595128,0.004122043494135141,-0.021651726216077805
1783693637772432100,2.12943212890625,0.009468579664826393,-0.0001811133697628975,-0.017486246302723885
1783693637782393900,2.139393798828125,0.013240414671599865,-0.003476242534816265,-0.014206829480826855
1783693637792356900,2.14935693359375,0.015910005196928978,-0.006359931081533432,-0.010503094643354416
1783693637802319000,2.159319091796875,0.011546683497726917,-0.0024456167593598366,-0.006084910593926907
1783693637812282000,2.1692822265625,0.00840006209909916,-0.0019396028947085142,-0.006814474239945412
1783693637822243800,2.179243896484375,0.006218933500349522,-0.00944012962281704,-0.016720367595553398
1783693637832206800,2.189206787109375,0.002608704147860408,-0.012937120161950588,-0.018435508012771606
1783693637842169000,2.199169189453125,0.0024952534586191177,-0.004162004217505455,-0.014054606668651104
1783693637852132000,2.209132080078125,-0.0023665085900574923,0.009498145431280136,-0.007967309094965458
1783693637862094800,2.2190947265625,-0.006141806021332741,0.010060072876513004,-0.00561866769567132
1783693637872057000,2.22905712890625,-0.004601337481290102,0.01162546593695879,-0.0008770514978095889
1783693637882020000,2.23902001953125,-0.004702005069702864,0.015575733035802841,0.0038910722360014915
1783693637891982000,2.248982177734375,-0.0062805479392409325,0.007657911628484726,-0.0010798571165651083
1783693637901944800,2.25894482421875,-0.007277369033545256,-0.006970299407839775,-0.01054606307297945
1783693637911907000,2.268906982421875,-0.006942465901374817,-0.00900737103074789,-0.012815688736736774
1783693637921870000,2.2788701171875,-0.0059493728913366795,-0.007289099041372538,-0.014254062436521053
1783693637931832000,2.28883203125,-0.005210402421653271,-0.006377236917614937,-0.017712490633130074
1783693637941794800,2.298794921875,-0.002368543529883027,-0.0029422917868942022,-0.017643248662352562
1783693637951757000,2.308757080078125,-0.0023378601763397455,0.0019941478967666626,-0.01685543917119503
1783693637961720000,2.318719970703125,0.0017684679478406906,0.003006948158144951,-0.013300650753080845
1783693637971682000,2.32868212890625,0.0023419770877808332,0.0016658101230859756,-0.007342028897255659
1783693637981644800,2.338644775390625,0.002882598899304867,0.0014306529192253947,-0.001630347571335733
1783693637991607000,2.34860693359375,0.0017219582805410028,-0.0029745246283710003,-0.0016867475351318717
1783693638001570000,2.358570068359375,0.002808528020977974,-0.009532293304800987,-0.0008201547898352146
1783693638011532000,2.368531982421875,0.002724809106439352,-0.007968205027282238,0.005258652381598949
1783693638021495000,2.3784951171875,0.0009229143033735454,-0.003692766185849905,0.008194787427783012
1783693638031457000,2.38845703125,0.003131853649392724,-0.0016128289280459285,0.006661434192210436
1783693638041420000,2.398419921875,0.002382173901423812,0.007205962669104338,0.008580508641898632
1783693638051382000,2.408382080078125,-0.0008969111368060112,0.015333679504692554,0.01517559215426445
1783693638061345000,2.418344970703125,-0.0027153175324201584,0.010716023854911327,0.013543341308832169
1783693638071307000,2.42830712890625,-0.006431597284972668,0.002684731036424637,0.003463166765868664
1783693638081270000,2.43827001953125,-0.008543483912944794,-0.00779320951551199,-0.00711916945874691
1783693638091232000,2.44823193359375,-0.007773533463478088,-0.009466768242418766,-0.0076482477597892284
1783693638101195000,2.458195068359375,-0.004887465853244066,-0.01087877620011568,-0.007922288030385971
1783693638111157000,2.468156982421875,0.00039099357672967017,-0.012068916112184525,-0.006076166406273842
1783693638121120000,2.4781201171875,0.006025976035743952,-0.010515494272112846,0.004295780323445797
1783693638131082000,2.48808203125,0.005255221854895353,-0.006521861534565687,0.011186235584318638
1783693638141045000,2.498044921875,0.003270368091762066,-0.0037700175307691097,0.017173554748296738
1783693638151007000,2.508007080078125,-0.002116171643137932,0.002497227629646659,0.019749805331230164
1783693638160970000,2.517969970703125,-0.006863256450742483,0.006438972428441048,0.017780130729079247
1783693638170933000,2.52793310546875,-0.00772082107141614,0.006050118710845709,0.012750795111060143
1783693638180895000,2.53789501953125,-0.011907044798135757,0.0003142021596431732,0.0066825165413320065
1783693638190858000,2.54785791015625,-0.01418749988079071,0.002911860356107354,0.003818272612988949
1783693638200820000,2.557820068359375,-0.015153428539633751,0.0019515244057402015,-0.0005306692328304052
1783693638210783000,2.567782958984375,-0.014266490936279297,-0.0024014145601540804,-0.00829394068568945
1783693638220745000,2.577744873046875,-0.009024323895573616,-0.006439565680921078,-0.015010698698461056
1783693638230708000,2.5877080078125,-0.0038760362658649683,0.00021091033704578876,-0.005173183046281338
1783693638240670000,2.597669921875,-0.0010043499059975147,0.007286663167178631,0.0021190845873206854
1783693638250633000,2.607633056640625,0.0024551355745643377,0.007615013513714075,0.003853678237646818
1783693638260595200,2.61759521484375,0.004432532470673323,0.005038405302911997,-0.0003863404272124171
1783693638270558000,2.627557861328125,0.005408266559243202,0.008374286815524101,-0.004544129595160484
1783693638280520000,2.63752001953125,0.008685020729899406,0.0062131318263709545,-0.012220957316458225
1783693638290483000,2.64748291015625,0.0055102198384702206,0.004268171265721321,-0.022965142503380775
1783693638300445200,2.657445068359375,0.003586085978895426,-0.0013644143473356962,-0.030799098312854767
1783693638310408000,2.667407958984375,0.001684359973296523,-0.0002916497178375721,-0.027962088584899902
1783693638320370000,2.677369873046875,0.0007032513967715204,0.008225671947002411,-0.01610383205115795
1783693638330333000,2.6873330078125,0.0003773717035073787,0.0065537868067622185,-0.009527967311441898
1783693638340295200,2.697295166015625,-0.0007835002616047859,0.00277795665897429,-0.008357774466276169
1783693638350258000,2.7072578125,-0.0018302048556506634,0.009886962361633778,-0.001964059192687273
1783693638360220000,2.717219970703125,-0.0016200813697651029,0.013868388719856739,0.0006290607852861285
1783693638370183000,2.727182861328125,-0.005645737983286381,0.01245908159762621,-0.003103200811892748
1783693638380145200,2.737145263671875,-0.006499813869595528,0.016131579875946045,-0.010519837960600853
1783693638390108000,2.74710791015625,-0.0030382147524505854,0.011697912588715553,-0.011373273096978664
1783693638400070000,2.75706982421875,0.0036588364746421576,0.002744098426774144,-0.015483062714338303
1783693638410033000,2.767032958984375,0.006941199768334627,-0.0011145343305543065,-0.016976594924926758
1783693638419995100,2.7769951171875,0.011943148449063301,-0.007296795956790447,-0.016734246164560318
1783693638429958100,2.786958251953125,0.009945171885192394,-0.007145021576434374,-0.009704317897558212
1783693638439919900,2.796919921875,0.003960249479860067,-0.0025164480321109295,0.0013414089335128665
1783693638449883000,2.8068828125,-0.001225362066179514,0.00328576797619462,0.006477172952145338
1783693638459846100,2.81684619140625,-0.006055004429072142,0.00351799582131207,0.012210425920784473
1783693638469808600,2.82680859375,-0.00651389779523015,0.007219018414616585,0.018503384664654732
1783693638479771600,2.836771728515625,-0.004098676610738039,0.005595022812485695,0.02251517027616501
1783693638489733400,2.8467333984375,0.0023307660594582558,-0.0004676802782341838,0.01770930550992489
1783693638499696400,2.8566962890625,0.010726913809776306,-0.008332793600857258,0.014590212143957615
1783693638509658600,2.86665869140625,0.014335221610963345,-0.008668629452586174,0.013135608285665512
1783693638519621600,2.87662158203125,0.016709430143237114,-0.010010862722992897,0.01167459785938263
1783693638529583400,2.886583251953125,0.0153792854398489,-0.007726937532424927,0.005423735827207565
1783693638539546400,2.89654638671875,0.009905957616865635,-0.0028791853692382574,0.00463943462818861
1783693638549508600,2.906508544921875,0.00411661621183157,0.00226763729006052,0.004212372936308384
1783693638559471600,2.9164716796875,-0.0013750884681940079,0.0027528651989996433,0.0049873529933393
1783693638569433600,2.92643359375,-0.008843809366226196,0.008531933650374413,-0.0008565926691517234
1783693638579396600,2.936396728515625,-0.014986656606197357,0.010065115056931973,-0.0018768497975543141
1783693638589358600,2.946358642578125,-0.018763290718197823,0.013454313389956951,-0.00436890684068203
1783693638599321600,2.956321533203125,-0.022322606295347214,0.007303210441023111,-0.008862990885972977
1783693638609283600,2.96628369140625,-0.019677426666021347,-0.00023330922704190016,-0.01219838298857212
1783693638619246600,2.97624658203125,-0.013836315833032131,-0.00449250265955925,-0.011850574053823948
1783693638629208600,2.98620849609375,-0.0076241870410740376,-0.007482717279344797,-0.014120309613645077
1783693638639171600,2.996171630859375,-0.0019079779740422964,-0.009399394504725933,-0.011003346182405949
1783693638649133600,3.006133544921875,0.0015950961969792843,-0.009831885807216167,-0.006452332250773907
1783693638659096600,3.0160966796875,0.004537090193480253,-0.009465168230235577,0.0004383310442790389
1783693638669058600,3.02605859375,0.0034434606786817312,-0.007522361818701029,0.009977306239306927
1783693638679021600,3.036021484375,0.0034240195527672768,-0.0030796765349805355,0.02092928998172283
1783693638688983600,3.045983642578125,0.0032509448938071728,-0.004248299635946751,0.03126510977745056
1783693638698946600,3.055946533203125,0.001930283266119659,-0.007830783724784851,0.03768199682235718
1783693638708908500,3.065908447265625,0.0035548594314604998,-0.01220423262566328,0.036736901849508286
1783693638718871600,3.07587158203125,0.004621988162398338,-0.011003680527210236,0.040215522050857544
1783693638728833800,3.085833740234375,0.006160029210150242,-0.009925351478159428,0.04008559510111809
1783693638738796500,3.095796630859375,0.0040699802339077,-0.007566589862108231,0.03220716491341591
1783693638748758500,3.105758544921875,0.004542493727058172,-0.011091329157352448,0.02227587066590786
1783693638758721500,3.115721435546875,0.004540629684925079,-0.008402069099247456,0.013778257183730602
1783693638768683800,3.125683837890625,0.0038421100471168756,-0.003814208786934614,0.00440708314999938
1783693638778646500,3.135646484375,0.0008622989407740533,0.0013153060572221875,-0.008982491679489613
1783693638788609500,3.145609619140625,-0.001480095204897225,-0.0022597021888941526,-0.02402527816593647
1783693638798571500,3.155571533203125,-0.006059134379029274,-0.001204557716846466,-0.030839508399367332
1783693638808534500,3.165534423828125,-0.004987762309610844,0.000191183527931571,-0.03472716361284256
1783693638818496500,3.17549658203125,-0.0027331302408128977,-0.00026741274632513523,-0.032652825117111206
1783693638828459500,3.18545947265625,0.0006941487663425505,-0.001265561324544251,-0.02437593974173069
1783693638838421500,3.19542138671875,-0.00013782277528662235,-0.006925045046955347,-0.010433224961161613
1783693638848384500,3.205384521484375,-0.0016591909807175398,-0.0038949130102992058,0.0014858762733638287
1783693638858346500,3.215346435546875,-0.004839537665247917,-0.001194734126329422,0.017012905329465866
1783693638868309500,3.2253095703125,-0.009045716375112534,0.003392315935343504,0.028778720647096634
1783693638878271500,3.235271484375,-0.007469125557690859,0.003056225134059787,0.03346641734242439
1783693638888234500,3.245234375,-0.004849663004279137,-0.0020527448505163193,0.03151634335517883
1783693638898196500,3.255196533203125,0.002994411624968052,-0.008782818913459778,0.02542675845324993
1783693638908159500,3.265159423828125,0.010139277204871178,-0.014324087649583817,0.019329387694597244
1783693638918121500,3.27512158203125,0.012417610734701157,-0.013790124095976353,0.01653173752129078
1783693638928084700,3.285084716796875,0.012652340345084667,-0.012418065220117569,0.017187250778079033
1783693638938046500,3.29504638671875,0.00888130348175764,-0.0067998613230884075,0.014019952155649662
1783693638948009500,3.305009521484375,0.001948859659023583,0.0007176818908192217,0.011978465132415295
1783693638957971500,3.314971435546875,-0.006821462418884039,0.009062164463102818,0.0031471564434468746
1783693638967934700,3.324934814453125,-0.010114547796547413,0.014515543356537819,-0.0029212613590061665
1783693638977896400,3.334896484375,-0.009938246570527554,0.010450760833919048,-0.01162766758352518
1783693638987859500,3.344859375,-0.008596536703407764,0.0052695912308990955,-0.018151629716157913
1783693638997821700,3.35482177734375,-0.0023085479624569416,0.004497007932513952,-0.0225176140666008
1783693639007784700,3.36478466796875,-0.0008513710927218199,0.006196106784045696,-0.021513978019356728
1783693639017746700,3.37474658203125,0.003566546831279993,0.0029923240654170513,-0.019081713631749153
1783693639027709400,3.38470947265625,0.003391511971130967,0.002593634184449911,-0.012146075256168842
1783693639037671700,3.394671630859375,0.00359524367377162,0.007665624376386404,0.0018115516286343336
1783693639047634700,3.404634765625,0.004028151277452707,0.009483212605118752,0.010972479358315468
1783693639057596700,3.4145966796875,-0.0009021589648909867,0.009937814436852932,0.018854636698961258
1783693639067559400,3.424559326171875,-0.0060022142715752125,0.015553693287074566,0.027442537248134613
1783693639077522400,3.4345224609375,-0.008340203203260899,0.010989301837980747,0.033039968460798264
1783693639087484700,3.444484619140625,-0.008266055956482887,0.008193720132112503,0.03693322464823723
1783693639097447700,3.45444775390625,-0.0067781489342451096,0.00414678081870079,0.03982355445623398
1783693639107409400,3.464409423828125,-0.002243745606392622,-0.0026671849191188812,0.036346107721328735
1783693639117372400,3.474372314453125,0.002897486789152026,-0.007260872051119804,0.031110066920518875
1783693639127334700,3.484334716796875,0.008829782716929913,-0.008280064910650253,0.02743554674088955
1783693639137297700,3.494297607421875,0.016228843480348587,-0.002727374667301774,0.026338590309023857
1783693639147259400,3.50425927734375,0.016991494223475456,0.0007331710658036172,0.024427616968750954
1783693639157222400,3.514222412109375,0.015732884407043457,0.002205632859840989,0.016687938943505287
1783693639167184600,3.5241845703125,0.012702769599854946,0.0016253023641183972,0.011836817488074303
1783693639177147600,3.534147705078125,0.007495224475860596,0.004397653043270111,0.005105944350361824
1783693639187109400,3.544109375,0.005441694986075163,0.00741345901042223,-0.0021743997931480408
1783693639197072400,3.554072265625,0.0032291412353515625,0.007942096330225468,-0.008103927597403526
1783693639207034600,3.56403466796875,0.00826919637620449,0.00500166229903698,-0.014878369867801666
1783693639216997600,3.57399755859375,0.010867109522223473,0.00548342801630497,-0.017382273450493813
1783693639226959400,3.58395947265625,0.009846441447734833,0.009555420838296413,-0.015946216881275177
1783693639236922600,3.593922607421875,0.013939188793301582,0.008565523661673069,-0.021696515381336212
1783693639246884600,3.603884521484375,0.012381688691675663,0.004511090926826,-0.027931245043873787
1783693639256847600,3.61384765625,0.00869507435709238,0.007303148508071899,-0.029001303017139435
1783693639266809300,3.623809326171875,0.004382360260933638,0.007553763221949339,-0.024271810427308083
1783693639276772600,3.633772705078125,0.0008989457855932415,0.0033446368761360645,-0.02166297659277916
1783693639286734600,3.643734619140625,-0.004902449902147055,-0.0018375657964497805,-0.01965341530740261
1783693639296697600,3.653697509765625,-0.006347481161355972,0.000895103847142309,-0.015338562428951263
1783693639306659600,3.66365966796875,-0.007444559130817652,0.003638939931988716,-0.014964200556278229
1783693639316622600,3.67362255859375,-0.010343143716454506,0.004073567688465118,-0.0157540924847126
1783693639326584600,3.68358447265625,-0.007760829292237759,-0.0038453335873782635,-0.016692498698830605
1783693639336547600,3.693547607421875,-0.0018336980137974024,-0.0027443827129900455,-0.014713502489030361
1783693639346509600,3.703509521484375,0.0025070193223655224,-0.004849372897297144,-0.008756184950470924
1783693639356472600,3.71347265625,0.009241621010005474,-0.005969498306512833,-0.0024713913444429636
1783693639366434600,3.7234345703125,0.010371892713010311,-0.004208051599562168,0.005548140499740839
1783693639376397600,3.7333974609375,0.00970050971955061,-0.0037454606499522924,0.010040893219411373
1783693639386359600,3.743359619140625,0.007670678663998842,-0.009223077446222305,0.00862445030361414
1783693639396322600,3.753322509765625,0.0068581486120820045,-0.0161768589168787,0.008585302159190178
1783693639406284500,3.763284423828125,0.0029278555884957314,-0.023601485416293144,0.005165536422282457
1783693639416247600,3.77324755859375,0.0012034587562084198,-0.01815665140748024,0.00366324745118618
1783693639426210600,3.78321044921875,-0.0023522069677710533,-0.012407385744154453,0.0047608474269509315
1783693639436172500,3.793172607421875,-0.006404472514986992,-0.011647319421172142,-0.001842194003984332
1783693639446135600,3.803135498046875,-0.012671392410993576,-0.007979640737175941,-0.005875724833458662
1783693639456097500,3.81309765625,-0.015394740737974644,-0.004201148636639118,-0.005624854937195778
1783693639466060500,3.823060546875,-0.015356658026576042,-0.0035145855508744717,-0.008818251080811024
1783693639476022300,3.833022216796875,-0.015297535806894302,-0.008326917886734009,-0.014736061915755272
1783693639485985300,3.8429853515625,-0.013875463977456093,-0.013953115791082382,-0.018915940076112747
1783693639495947300,3.852947265625,-0.008880705572664738,-0.012094495818018913,-0.01754547655582428
1783693639505910300,3.86291015625,-0.01056756917387247,-0.009373033419251442,-0.013041511178016663
1783693639515872500,3.87287255859375,-0.013856839388608932,-0.004175075329840183,-0.010583678260445595
1783693639525835300,3.882835205078125,-0.015630675479769707,0.000974133494310081,-0.004093964584171772
1783693639535797200,3.89279736328125,-0.01294088363647461,0.005216815508902073,-0.0017445237608626485
1783693639545760500,3.902760498046875,-0.01090995967388153,0.005079190246760845,0.001020234078168869
1783693639555722500,3.912722412109375,-0.010829266160726547,0.0039257751777768135,0.006833115592598915
1783693639565685200,3.922685302734375,-0.009000006131827831,-0.0005227840738371015,0.011763660237193108
1783693639575647200,3.932647216796875,-0.006413278169929981,-0.008584706112742424,0.012852893210947514
1783693639585610500,3.942610595703125,-0.005309801083058119,-0.015809565782546997,0.011190878227353096
1783693639595572500,3.952572509765625,-0.006495972629636526,-0.02316495031118393,0.007780700456351042
1783693639605535200,3.96253515625,-0.005555985029786825,-0.030223995447158813,0.00019579357467591763
1783693639615497500,3.97249755859375,-0.0073086111806333065,-0.03340167924761772,-0.00287323328666389
1783693639625460500,3.98246044921875,-0.007997133769094944,-0.03178912028670311,0.0008050010073930025
1783693639635422500,3.99242236328125,-0.006279661785811186,-0.022428641095757484,0.011710911989212036
1783693639645385200,4.00238525390625,-0.00904516689479351,-0.0060533625073730946,0.026776792481541634
1783693639655347500,4.012347412109375,-0.013595710508525372,0.006320749409496784,0.04274404048919678
1783693639665310500,4.022310546875,-0.01231769472360611,0.009992139413952827,0.05047738924622536
1783693639675272400,4.0322724609375,-0.008272086270153522,0.009371357038617134,0.051124271005392075
1783693639685235200,4.042235107421875,-0.007036846596747637,0.0098028052598238,0.04540276527404785
1783693639695197400,4.052197509765625,-0.0031249290332198143,0.009003589861094952,0.031353794038295746
1783693639705160400,4.062160400390625,-0.0010323130991309881,0.004520704038441181,0.018351851031184196
1783693639715122400,4.072122314453125,0.00624477444216609,-0.00022851128596812487,0.005278925411403179
1783693639725085200,4.082085205078125,0.012009737081825733,0.0006128024542704225,0.000389597553294152
1783693639735047400,4.09204736328125,0.01580021344125271,0.002500717295333743,-0.009113093838095665
1783693639745010400,4.102010498046875,0.017682211473584175,0.0017033626791089773,-0.012968598864972591
1783693639754973400,4.111973388671875,0.014273100532591343,0.005754296667873859,-0.01052674651145935
1783693639764935200,4.12193505859375,0.011054739356040955,0.013451321050524712,-0.007018662057816982
1783693639774898200,4.131898193359375,0.0016242202837020159,0.02209674008190632,0.0025777723640203476
1783693639784860400,4.1418603515625,-0.0024966238997876644,0.025937048718333244,0.010418715886771679
1783693639794823400,4.151823486328125,-0.0008412029128521681,0.027207642793655396,0.016635067760944366
1783693639804785200,4.16178515625,0.0010163122788071632,0.02540310099720955,0.01474361214786768
1783693639814748200,4.171748046875,0.003656836459413171,0.017874345183372498,0.011641030199825764
1783693639824710400,4.18171044921875,0.0047756219282746315,0.01343804132193327,0.00524652935564518
1783693639834673400,4.19167333984375,0.0049908054061234,0.012597281485795975,-0.00310301361605525
1783693639844635100,4.20163525390625,-0.00036263291258364916,0.009019584394991398,-0.020686738193035126
1783693639854598400,4.211598388671875,-0.004204775672405958,0.010211082175374031,-0.036990873515605927
1783693639864560400,4.221560302734375,-0.008275570347905159,0.008968193084001541,-0.04490436613559723
1783693639874523400,4.2315234375,-0.008500074967741966,0.004296210128813982,-0.04669534042477608
1783693639884485000,4.241485107421875,-0.008263415656983852,0.0024317435454577208,-0.043271973729133606
1783693639894448400,4.251448486328125,-0.013990543782711029,0.007060051430016756,-0.03236180171370506
1783693639904410400,4.261410400390625,-0.016114935278892517,0.011947701685130596,-0.0194565337151289
1783693639914373400,4.271373291015625,-0.017256099730730057,0.015609548427164555,-0.010065959766507149
1783693639924335400,4.28133544921875,-0.019828395918011665,0.020148437470197678,-0.002192415064200759
1783693639934298400,4.29129833984375,-0.019635582342743874,0.017192594707012177,0.0016294873785227537
1783693639944260400,4.30126025390625,-0.013786311261355877,0.013181885704398155,0.0021827667951583862
1783693639954223400,4.311223388671875,-0.00521785719320178,0.011319272220134735,-0.0012628311524167657
1783693639964185600,4.321185546875,0.002872107783332467,0.0070914700627326965,-0.0049724578857421875
1783693639974148400,4.3311484375,0.010212578810751438,0.0046778470277786255,-0.015726303681731224
1783693639984110300,4.3411103515625,0.013158397749066353,0.007024878170341253,-0.022568903863430023
1783693639994073300,4.3510732421875,0.01543167233467102,0.009345291182398796,-0.02833092026412487
1783693640004035600,4.36103564453125,0.013428829610347748,0.010264100506901741,-0.03359378129243851
1783693640013998300,4.370998291015625,0.008445522747933865,0.013953642919659615,-0.03431523218750954
1783693640023960300,4.380960205078125,0.0030348433647304773,0.015633847564458847,-0.03258494287729263
1783693640033923300,4.39092333984375,-0.0024954769760370255,0.019221125170588493,-0.03190210461616516
1783693640043885600,4.400885498046875,-0.00698293698951602,0.019720956683158875,-0.02820185199379921
1783693640053848300,4.410848388671875,-0.01352898683398962,0.018158746883273125,-0.029672715812921524
1783693640063810300,4.420810302734375,-0.01636200025677681,0.012821244075894356,-0.031672168523073196
1783693640073773300,4.430773193359375,-0.016227776184678078,0.009697623550891876,-0.03219308331608772
1783693640083735600,4.440735595703125,-0.014410710893571377,0.008210502564907074,-0.03450335934758186
1783693640093698300,4.4506982421875,-0.007465187460184097,-0.003462931141257286,-0.03935990110039711
1783693640103660300,4.460660400390625,-0.0019428085070103407,-0.006596678867936134,-0.038752105087041855
1783693640113623300,4.470623291015625,0.0031030827667564154,-0.0023675793781876564,-0.03226996958255768
1783693640123586300,4.48058642578125,0.00745565677061677,-0.0003398357657715678,-0.01887998729944229
1783693640133548300,4.49054833984375,0.008508404716849327,0.0028559574857354164,-0.006365527398884296
1783693640143511300,4.50051123046875,0.0067116571590304375,0.0048383912071585655,0.005151717457920313
1783693640153473300,4.510473388671875,0.005746261216700077,0.002283620648086071,0.010845822282135487
1783693640163436300,4.520436279296875,0.005608610808849335,-0.002952111419290304,0.01399921253323555
1783693640173398300,4.530398193359375,0.004263181705027819,-0.007126349490135908,0.011669212952256203
1783693640183361300,4.540361328125,0.001716771861538291,-0.008249673992395401,0.0015386571176350117
1783693640193323300,4.5503232421875,0.00021821114933118224,-0.00685923732817173,-0.006634051911532879
1783693640203286500,4.56028662109375,-0.0015061942394822836,-0.006288532167673111,-0.016403310000896454
1783693640213248300,4.570248291015625,-0.0020191192161291838,-0.0043667955324053764,-0.02138608507812023
1783693640223211300,4.580211181640625,-0.002395245246589184,-0.0015675232280045748,-0.01950550079345703
1783693640233173200,4.59017333984375,-0.007138068787753582,0.003132423385977745,-0.014587441459298134
1783693640243136500,4.600136474609375,-0.01178832445293665,0.009213683195412159,-0.010152170434594154
1783693640253098200,4.61009814453125,-0.013820582069456577,0.008703954517841339,-0.006312957964837551
1783693640263061200,4.620061279296875,-0.018850667402148247,0.003814171301200986,-0.009782801382243633
1783693640273023500,4.6300234375,-0.01767568103969097,0.005212064832448959,-0.014844671823084354
1783693640282986500,4.639986572265625,-0.014741878025233746,-0.00047909561544656754,-0.02223837375640869
1783693640292948200,4.6499482421875,-0.008896506391465664,-0.010913627222180367,-0.028348462656140327
1783693640302911200,4.6599111328125,-0.002410223940387368,-0.01471156906336546,-0.02065734937787056
1783693640312873500,4.66987353515625,0.005849037319421768,-0.011428424157202244,-0.005081851966679096
1783693640322836500,4.67983642578125,0.008535035885870457,-0.0016865961952134967,0.010513853281736374
1783693640332798500,4.689798583984375,0.00620610173791647,0.004726029466837645,0.01927725225687027
1783693640342761200,4.69976123046875,0.005087927915155888,0.00684907753020525,0.026163259521126747
1783693640352723500,4.709723388671875,0.0032402263022959232,-0.0006048439536243677,0.02539946511387825
1783693640362686500,4.7196865234375,0.0022090370766818523,-0.008235550485551357,0.016954192891716957
1783693640372648400,4.7296484375,0.0006750564789399505,-0.008616115897893906,0.014914211817085743
1783693640382611200,4.739611083984375,0.000042337633203715086,-0.005583314225077629,0.018602218478918076
1783693640392573400,4.749573486328125,0.0032495823688805103,-0.005162534769624472,0.02386142872273922
1783693640402536400,4.759536376953125,0.004670208785682917,0.001880980678834021,0.027347099035978317
1783693640412498400,4.76949853515625,0.008284651674330235,0.008184416219592094,0.03156581521034241
1783693640422461200,4.779461181640625,0.012070753611624241,0.005489288829267025,0.026000510901212692
1783693640432423400,4.78942333984375,0.011518946848809719,0.0038551734760403633,0.012352343648672104
1783693640442386400,4.799386474609375,0.013873416930437088,-0.0009725773707032204,-0.0031121931970119476
1783693640452348400,4.809348388671875,0.01652832143008709,-0.000525166280567646,-0.01521519385278225
1783693640462311200,4.819311279296875,0.021541913971304893,-0.007187088951468468,-0.026119258254766464
1783693640472274200,4.829274169921875,0.026323886588215828,-0.007964199408888817,-0.026955492794513702
1783693640482236000,4.83923583984375,0.029058953747153282,0.00126019143499434,-0.021917589008808136
1783693640492199000,4.849198974609375,0.02585144154727459,0.007000102661550045,-0.014485505409538746
1783693640502161200,4.8591611328125,0.02293494902551174,0.00777293648570776,-0.00761032197624445
1783693640512124200,4.869124267578125,0.015935363247990608,0.013573568314313889,0.0036247558891773224
1783693640522086000,4.8790859375,0.010865254327654839,0.0191196221858263,0.00662211375311017
1783693640532049000,4.889048828125,0.008765085600316525,0.0176016204059124,0.005530217662453651
1783693640542011100,4.89901123046875,0.006979896686971188,0.01061938889324665,0.005516464821994305
1783693640551974100,4.90897412109375,0.01012216042727232,0.0006514433189295232,0.0026037655770778656
1783693640561936000,4.918935791015625,0.013022253289818764,-0.004806218668818474,-0.0026213419623672962
1783693640571899000,4.92889892578125,0.015237470157444477,-0.003908201120793819,-0.00798867642879486
1783693640581861000,4.938861083984375,0.018018731847405434,-0.00680916290730238,-0.015029995702207088
1783693640591824100,4.94882421875,0.01570071652531624,-0.00490127457305789,-0.019009556621313095
1783693640601785900,4.958785888671875,0.010924732312560081,0.002757739508524537,-0.014846174977719784
1783693640611748900,4.968748779296875,0.008111368864774704,0.003989185206592083,-0.010662614367902279
1783693640621711000,4.978711181640625,0.007677524350583553,0.0023590433411300182,-0.007546152453869581
1783693640631674000,4.988674072265625,0.00957981962710619,-0.00019119959324598312,-0.0012280689552426338
1783693640641635800,4.9986357421875,0.010029247961938381,0.0026541133411228657,0.011540628969669342
1783693640651598800,5.008598876953125,0.009846288710832596,0.004917001351714134,0.020520009100437164
1783693640661561000,5.01856103515625,0.009725202806293964,0.0025736624374985695,0.027415074408054352
1783693640671524000,5.028524169921875,0.00990896113216877,-0.001229065121151507,0.030732572078704834
1783693640681485800,5.03848583984375,0.008507881313562393,0.0004021316999569535,0.028353556990623474
1783693640691448800,5.04844873046875,0.008764609694480896,-0.0021233437582850456,0.022050119936466217
1783693640701411000,5.0584111328125,0.013979104347527027,-0.007175595499575138,0.01082325167953968
1783693640711374000,5.0683740234375,0.01774907484650612,-0.008726620115339756,0.0027794402558356524
1783693640721335800,5.078335693359375,0.016269735991954803,-0.005581966135650873,-0.0004381283652037382
1783693640731298800,5.088298828125,0.008174259215593338,-0.004415235016494989,-0.0011398711940273643
1783693640741261000,5.098260986328125,0.0034577196929603815,-0.0033670510165393353,-0.0012333500199019909
1783693640751224000,5.10822412109375,-0.0026553000789135695,0.00510366540402174,0.0008532367646694183
1783693640761185800,5.118185791015625,-0.009515262208878994,0.004099945537745953,-0.0019052483839914203
1783693640771148800,5.128148681640625,-0.010286513715982437,-0.0022144094109535217,-0.005892266985028982
1783693640781111000,5.138111083984375,-0.006942229811102152,-0.0056008934043347836,-0.011951052583754063
1783693640791074000,5.148073974609375,-0.0009551775874570012,-0.004867991432547569,-0.010298294946551323
1783693640801035800,5.158035888671875,0.002822555834427476,-0.0037867650389671326,-0.008512301370501518
1783693640810999000,5.1679990234375,0.0037112527061253786,-0.001369413803331554,-0.0106601407751441
1783693640820961000,5.1779609375,0.0014825834659859538,0.001599774113856256,-0.00496277678757906
1783693640830924000,5.187924072265625,-0.00419154716655612,-0.0020279837772250175,-0.003652767511084676
1783693640840885800,5.1978857421875,-0.006958047393709421,-0.0033265515230596066,-0.001887609134428203
1783693640850849000,5.20784912109375,-0.013981868512928486,0.00048283394426107407,-0.000363481929525733
1783693640860812000,5.21781201171875,-0.017149366438388824,-0.000627423170953989,0.0016991680022329092
1783693640870774000,5.22777392578125,-0.017525671049952507,-0.005701277405023575,-0.0012782459380105138
1783693640880737000,5.237737060546875,-0.011742739006876945,-0.007513311691582203,-0.0024373328778892756
1783693640890699000,5.247698974609375,-0.008898483589291573,-0.006315687671303749,0.00036830740282312036
1783693640900662000,5.257662109375,-0.0020002105738967657,-0.004197684116661549,-0.0005223482148721814
1783693640910624000,5.2676240234375,0.0037138676270842552,-0.008935714140534401,0.0017716987058520317
1783693640920587000,5.2775869140625,0.0068924641236662865,-0.00981002114713192,0.001664467854425311
1783693640930549000,5.287549072265625,0.010450180619955063,-0.008662198670208454,0.005367327481508255
1783693640940512000,5.297511962890625,0.007688176818192005,-0.011653977446258068,0.007914562709629536
1783693640950474000,5.307473876953125,0.007528653368353844,-0.010063803754746914,0.01008077897131443
1783693640960437000,5.31743701171875,0.0014889014419168234,-0.010671831667423248,0.0065356711857020855
1783693640970399000,5.32739892578125,-0.001433118712157011,-0.010752258822321892,0.0019323970191180706
1783693640980362000,5.337362060546875,-0.004539133049547672,-0.006097613368183374,-0.0017962033161893487
1783693640990324000,5.347323974609375,-0.00655567878857255,0.0027283686213195324,0.000770284968893975
1783693641000287000,5.357286865234375,-0.006795935332775116,0.009022234007716179,0.002302058506757021
1783693641010249000,5.3672490234375,-0.010079612024128437,0.006071717943996191,-0.0024359712842851877
1783693641020212000,5.3772119140625,-0.010928916744887829,0.0023220255970954895,-0.005383665673434734
1783693641030174000,5.387174072265625,-0.00943435076624155,0.0033406848087906837,-0.0052792695350945
1783693641040137000,5.397136962890625,-0.007187337148934603,0.0008572848746553063,-0.009827040135860443
1783693641050099000,5.407098876953125,-0.007283743470907211,-0.0037534458097070456,-0.012116293422877789
1783693641060062000,5.41706201171875,-0.006819829344749451,-0.004032289143651724,-0.01502950955182314
1783693641070024000,5.42702392578125,-0.006127140950411558,-0.005130310542881489,-0.01428382471203804
1783693641079987000,5.436987060546875,-0.006697074975818396,-0.005105564836412668,-0.012261123396456242
1783693641089949000,5.446948974609375,-0.002339610829949379,-0.004871472716331482,-0.006838928442448378
1783693641099912000,5.456911865234375,0.0021235498134046793,-0.007837408222258091,0.0002162258024327457
1783693641109874000,5.4668740234375,0.0056796688586473465,-0.009863274171948433,0.0104414327070117
1783693641119837000,5.4768369140625,0.0095629608258605,-0.009583869017660618,0.0234662014991045
1783693641129799000,5.486798828125,0.011006660759449005,-0.006645603571087122,0.033371832221746445
1783693641139762000,5.496761962890625,0.011774906888604164,-0.002865874208509922,0.04167250543832779
1783693641149724000,5.506723876953125,0.01181085966527462,-0.005074966233223677,0.04184587672352791
1783693641159687200,5.516687255859375,0.009474189020693302,-0.006480000447481871,0.035863231867551804
1783693641169649000,5.52664892578125,0.007695730309933424,-0.007860850542783737,0.025509659200906754
1783693641179612000,5.53661181640625,0.004224653355777264,-0.00781719759106636,0.010917807929217815
1783693641189574000,5.546573974609375,0.0005715953884646297,-0.0053548384457826614,-0.0037037453148514032
1783693641199537200,5.556537109375,0.0009186706738546491,-0.003287944011390209,-0.011260698549449444
1783693641209499000,5.566498779296875,0.004723795223981142,-0.004785173572599888,-0.014760625548660755
1783693641219462000,5.5764619140625,0.004953512456268072,-0.005591320805251598,-0.018412446603178978
1783693641229425000,5.5864248046875,0.00639881007373333,-0.0030075220856815577,-0.016124257817864418
1783693641239387100,5.59638720703125,0.006406131200492382,-0.0012519366573542356,-0.018283752724528313
1783693641249348900,5.606348876953125,0.0010779444128274918,-0.0021496883127838373,-0.015106601640582085
1783693641259311900,5.616311767578125,-0.00027256127214059234,-0.0021952493116259575,-0.007941335439682007
1783693641269275000,5.62627490234375,-0.0024180039763450623,-0.0048940968699753284,-0.0025590865407139063
1783693641279237000,5.636237060546875,-0.002915063174441457,0.0021377052180469036,0.0016036061570048332
1783693641289200000,5.6462001953125,-0.0053055165335536,0.009187093004584312,0.008025819435715675
1783693641299161900,5.656161865234375,-0.007046980783343315,0.008008681237697601,0.00847791600972414
1783693641309124900,5.666124755859375,-0.009315993636846542,0.005551116541028023,0.00947367213666439
1783693641319087000,5.676087158203125,-0.01163225807249546,0.003950015641748905,0.006863679736852646
1783693641329050000,5.686050048828125,-0.012944131158292294,0.0015654214657843113,0.009408863261342049
1783693641339011800,5.69601171875,-0.01224104780703783,-0.002560070948675275,0.004381331615149975
1783693641348974800,5.705974853515625,-0.007636975962668657,-0.004671158269047737,-0.0010645664297044277
1783693641358937000,5.71593701171875,-0.0024619547184556723,-0.0040331073105335236,-0.004485069774091244
1783693641368900000,5.725900146484375,0.003804196836426854,-0.0018383964197710156,-0.007153290323913097
1783693641378861800,5.73586181640625,0.00991670973598957,-0.0007704370655119419,-0.007825518026947975
1783693641388824800,5.745824951171875,0.011814478784799576,0.004274921491742134,-0.007893161848187447
1783693641398787000,5.755787109375,0.01791756972670555,0.008230223320424557,-0.009851135313510895
1783693641408750000,5.76575,0.024448972195386887,0.005419256165623665,-0.011313476599752903
1783693641418711800,5.7757119140625,0.030292805284261703,-0.0002910891780629754,-0.01024789921939373
1783693641428674800,5.7856748046875,0.03508462756872177,-0.00795619934797287,-0.012193870730698109
1783693641438637000,5.795636962890625,0.03293663263320923,-0.015639420598745346,-0.0024934629909694195
1783693641448600000,5.80560009765625,0.028216708451509476,-0.019731102511286736,0.0068425145000219345
1783693641458561800,5.815561767578125,0.022650621831417084,-0.015736592933535576,0.016406036913394928
1783693641468525000,5.825525146484375,0.012932482175529003,-0.014929123222827911,0.02754044719040394
1783693641478487300,5.8354873046875,0.0053568934090435505,-0.019122818484902382,0.037338826805353165
1783693641488450300,5.8454501953125,0.0015320617239922285,-0.021532714366912842,0.043468624353408813
1783693641498412000,5.855412109375,0.00002076601958833635,-0.024088820442557335,0.044228486716747284
1783693641508375000,5.865375,-0.0002908238093368709,-0.024404406547546387,0.04053281620144844
1783693641518337300,5.875337158203125,-0.0006125508807599545,-0.018981698900461197,0.031230425462126732
1783693641528300300,5.88530029296875,0.001120634377002716,-0.013317421078681946,0.020317325368523598
1783693641538262000,5.895261962890625,0.0019938056357204914,-0.002276188461109996,0.007020805962383747
1783693641548225300,5.905225341796875,0.002426835475489497,-0.0013328967615962029,-0.006446799263358116
1783693641558187300,5.915187255859375,0.006482328288257122,-0.004471193067729473,-0.02049275115132332
1783693641568150300,5.925150390625,0.011812911368906498,-0.003679967951029539,-0.02700444497168064
1783693641578112000,5.935112060546875,0.015234727412462234,-0.010047285817563534,-0.027896493673324585
1783693641588075300,5.9450751953125,0.01846434362232685,-0.015692921355366707,-0.022895077243447304
1783693641598037200,5.955037353515625,0.014292541891336441,-0.014661494642496109,-0.011518508195877075
1783693641608000300,5.965000244140625,0.007845028303563595,-0.00868243258446455,-0.00020673137623816729
1783693641617962200,5.974962158203125,-0.0028965738601982594,-0.0048006195574998856,0.014109105803072453
1783693641627925200,5.98492529296875,-0.0057733203284442425,-0.003977170214056969,0.0265846848487854
1783693641637887200,5.99488720703125,-0.007425028830766678,-0.005966503638774157,0.03507738187909126
1783693641647850200,6.004850341796875,-0.00757416570559144,-0.007312199100852013,0.03801378235220909
1783693641657813200,6.014813232421875,-0.00552778597921133,-0.007612129673361778,0.03674039989709854
1783693641667775200,6.024775146484375,-0.0022483691573143005,-0.005454702768474817,0.03221568837761879
1783693641677738200,6.03473828125,-0.0019326976034790277,-0.0064488849602639675,0.02095491625368595
1783693641687700200,6.0447001953125,-0.002478645648807287,-0.005945014301687479,0.008015947416424751
1783693641697663200,6.054663330078125,-0.004161440301686525,-0.0007931251311674714,-0.0034044389612972736
1783693641707625200,6.064625244140625,-0.005240819416940212,0.003846900537610054,-0.013585969805717468
1783693641717588200,6.074588134765625,-0.008792534470558167,0.0063675628043711185,-0.017285181209445
1783693641727550200,6.08455029296875,-0.011508425697684288,0.007935365661978722,-0.015678497031331062
1783693641737513200,6.09451318359375,-0.01358576025813818,0.006858162581920624,-0.008899321779608727
1783693641747475200,6.10447509765625,-0.0154550326988101,0.002793379593640566,0.000529067765455693
1783693641757438200,6.114438232421875,-0.015823960304260254,0.006445672363042831,0.008541565388441086
1783693641767400200,6.124400146484375,-0.018052225932478905,0.011334969662129879,0.013330727815628052
1783693641777363200,6.13436328125,-0.02509455382823944,0.008025962859392166,0.019706271588802338
1783693641787325200,6.1443251953125,-0.03308749943971634,0.0011185220209881663,0.02097287029027939
1783693641797288200,6.1542880859375,-0.038430847227573395,0.0010964388493448496,0.024250391870737076
1783693641807250200,6.164250244140625,-0.041272442787885666,0.0016631594626232982,0.025751084089279175
1783693641817213200,6.174213134765625,-0.043069347739219666,-0.002433340298011899,0.022569920867681503
1783693641827175200,6.184175048828125,-0.04226667061448097,-0.0015361213590949774,0.017237739637494087
1783693641837138200,6.19413818359375,-0.038139451295137405,0.00515082897618413,0.011905639432370663
1783693641847100200,6.20410009765625,-0.02883543074131012,0.004533774219453335,0.0022066724486649036
1783693641857063200,6.214063232421875,-0.021073713898658752,0.0028810021467506886,-0.004391341470181942
1783693641867025200,6.224025146484375,-0.009970728307962418,0.0028967144899070263,-0.013035429641604424
1783693641876988200,6.23398828125,-0.002327810972929001,-0.0038410595152527094,-0.021465539932250977
1783693641886950100,6.2439501953125,0.0036573773249983788,-0.011061422526836395,-0.025412611663341522
1783693641896913400,6.253913330078125,0.001095085171982646,-0.004985434468835592,-0.021240800619125366
1783693641906875100,6.263875244140625,0.0014562099240720272,-0.0010905617382377386,-0.015291032381355762
1783693641916838100,6.273838134765625,-0.003625707933679223,0.0037089616525918245,-0.0052298931404948235
1783693641926800100,6.283800048828125,-0.008963481523096561,0.008197186514735222,-0.0007991924649104476
1783693641936763400,6.293763427734375,-0.015992529690265656,0.01632521115243435,0.0016407666262239218
1783693641946725000,6.30372509765625,-0.02587844990193844,0.023902971297502518,-0.0016090888530015945
1783693641956688100,6.313688232421875,-0.027425086125731468,0.02356470748782158,-0.010688385926187038
1783693641966650400,6.323650390625,-0.028978507965803146,0.016603738069534302,-0.024293944239616394
1783693641976613400,6.33361328125,-0.022987281903624535,0.008272328414022923,-0.03528175503015518
1783693641986575000,6.3435751953125,-0.01717413403093815,0.002954528434202075,-0.039385683834552765
1783693641996538000,6.3535380859375,-0.014981926418840885,0.0018610366387292743,-0.037919189780950546
1783693642006500400,6.363500244140625,-0.013066580519080162,0.0005997635889798403,-0.03553619235754013
1783693642016463400,6.37346337890625,-0.014199762605130672,0.0017398522468283772,-0.03319019824266434
1783693642026425000,6.383425048828125,-0.018836859613656998,0.0071569886058568954,-0.02990625612437725
1783693642036388000,6.39338818359375,-0.023938942700624466,0.006349517963826656,-0.028137117624282837
1783693642046350300,6.403350341796875,-0.026695581153035164,0.0020149569027125835,-0.025890208780765533
1783693642056313300,6.413313232421875,-0.027277594432234764,0.0012751221656799316,-0.015728481113910675
1783693642066275000,6.423275146484375,-0.021701734513044357,0.004519118461757898,0.004455084912478924
1783693642076238000,6.433238037109375,-0.013079493306577206,-0.002593395998701453,0.018134959042072296
1783693642086200300,6.443200439453125,-0.007608029060065746,-0.008950893767178059,0.029326627030968666
1783693642096163300,6.453163330078125,-0.0016352038364857435,-0.009127400815486908,0.03559599071741104
1783693642106126300,6.463126220703125,0.002364597748965025,-0.007698348723351955,0.03968154639005661
1783693642116088000,6.473088134765625,0.006563877686858177,-0.016117725521326065,0.031223220750689507
1783693642126051000,6.483051025390625,0.0044213649816811085,-0.013030588626861572,0.022979937493801117
1783693642136013300,6.493013427734375,-0.001749921590089798,-0.004123109858483076,0.015519673004746437
1783693642145976300,6.502976318359375,-0.007455744314938784,-0.0032450654543936253,0.005653992760926485
1783693642155938000,6.51293798828125,-0.0037465982604771852,-0.010367687791585922,-0.0026866046246141195
1783693642165901300,6.5229013671875,0.0025403262116014957,-0.008724783547222614,-0.00919616874307394
1783693642175863300,6.53286328125,0.004876088351011276,-0.0006513979751616716,-0.011295131407678127
1783693642185826300,6.542826416015625,0.0020829648710787296,0.004481578711420298,-0.010042913258075714
1783693642195788000,6.5527880859375,-0.003532249014824629,0.002460450166836381,-0.011441687121987343
1783693642205751300,6.562751220703125,-0.01053609699010849,0.007242687977850437,-0.012304285541176796
1783693642215713300,6.57271337890625,-0.01366643700748682,0.013621281832456589,-0.011299658566713333
1783693642225676300,6.58267626953125,-0.014454999007284641,0.012890510261058807,-0.011604590341448784
1783693642235638000,6.592637939453125,-0.011360082775354385,0.01264816615730524,-0.01152438297867775
1783693642245601300,6.602601318359375,-0.0060388208366930485,0.01995561271905899,-0.0074513438157737255
1783693642255563300,6.612563232421875,0.00018929588259197772,0.021888796240091324,-0.002246665768325329
1783693642265526300,6.6225263671875,0.004075114149600267,0.019595548510551453,0.00033367116702720523
1783693642275488300,6.63248828125,0.0046278731897473335,0.011095528490841389,-0.004098189529031515
1783693642285451300,6.642451171875,0.006333894096314907,0.0007257119868882,-0.007913966663181782
1783693642295413200,6.652413330078125,0.010765022598206997,-0.006246974226087332,-0.01235196739435196
1783693642305376300,6.662376220703125,0.012216445989906788,-0.006444314029067755,-0.013048917055130005
1783693642315338200,6.672338134765625,0.00978639256209135,0.001936422660946846,-0.009025147184729576
1783693642325301200,6.68230126953125,0.00636982312425971,0.00912349484860897,-0.002539816778153181
1783693642335263200,6.69226318359375,0.0028079014737159014,0.014407743699848652,0.0010062293149530888
1783693642345226200,6.702226318359375,0.0023623546585440636,0.011406893841922283,-0.0019967511761933565
1783693642355188200,6.712188232421875,0.00464592594653368,0.004493814427405596,-0.006647680886089802
1783693642365151200,6.722151123046875,0.0058534033596515656,0.0018090817611664534,-0.008325738832354546
1783693642375113200,6.73211328125,0.007256752345710993,-0.0009475268889218569,-0.009461779147386551
1783693642385076200,6.742076171875,0.008536934852600098,-0.006050942465662956,-0.010174174793064594
1783693642395038200,6.7520380859375,0.008106372319161892,-0.006974038202315569,-0.006863429676741362
1783693642405001200,6.762001220703125,0.01134211290627718,0.00032914825715124607,-0.0019123464589938521
1783693642414963200,6.771963134765625,0.012187933549284935,0.003003494581207633,0.0049538156017661095
1783693642424926200,6.78192626953125,0.013278231024742126,0.004669301677495241,0.01184367947280407
1783693642434888200,6.79188818359375,0.01326647400856018,0.004441085737198591,0.01743916980922222
1783693642444851200,6.801851318359375,0.009389176964759827,0.009861418046057224,0.01791268028318882
1783693642454813200,6.811813232421875,0.005671163089573383,0.006077629514038563,0.012795370072126389
1783693642464776200,6.821776123046875,0.0036362416576594114,-0.004327873233705759,0.004114530049264431
1783693642474738200,6.83173828125,0.006402014289051294,-0.007815848104655743,-0.0025011389516294003
1783693642484701200,6.841701171875,0.007780998945236206,-0.008183631114661694,-0.002215381944552064
1783693642494663200,6.8516630859375,0.011254988610744476,-0.009760753251612186,0.0003035925328731537
1783693642504626200,6.861626220703125,0.008092483505606651,-0.0010431617265567183,0.010065942071378231
1783693642514588400,6.87158837890625,0.0036514215171337128,0.0051657636649906635,0.019688429310917854
1783693642524551200,6.88155126953125,-0.0036016975063830614,0.005248055327683687,0.02219233289361
1783693642534513200,6.89151318359375,-0.008969362825155258,0.007520515937358141,0.021680708974599838
1783693642544476200,6.90147607421875,-0.013160645961761475,0.009513625875115395,0.012861117720603943
1783693642554439400,6.911439453125,-0.01361302100121975,0.01053972914814949,0.00024904508609324694
1783693642564401200,6.921401123046875,-0.012330442667007446,0.004463993478566408,-0.01220629271119833
1783693642574364200,6.9313642578125,-0.006460643373429775,-0.0022029895335435867,-0.020614441484212875
1783693642584326100,6.941326171875,-0.004074983298778534,-0.0016668953467160463,-0.021353470161557198
1783693642594289400,6.951289306640625,-0.005098314024507999,0.004778772592544556,-0.02177177183330059
1783693642604251100,6.961251220703125,-0.009364431723952293,0.008830239996314049,-0.02525332197546959
1783693642614214100,6.971214111328125,-0.01125632505863905,0.011161591857671738,-0.02714766003191471
1783693642624176400,6.98117626953125,-0.010325017385184765,0.009615626186132431,-0.02575802244246006
1783693642634139400,6.991139404296875,-0.007664269767701626,0.0024852582719177008,-0.02869412675499916
1783693642644101000,7.00110107421875,-0.004820013884454966,0.004470644984394312,-0.020354172214865685
1783693642654064000,7.011064208984375,-0.0039169443771243095,0.002292967401444912,-0.010885819792747498
1783693642664026400,7.0210263671875,-0.005130813457071781,-0.004526056349277496,-0.0011812613811343908
1783693642673989400,7.0309892578125,-0.00788791012018919,-0.006592910271137953,0.011241069994866848
1783693642683951000,7.040951171875,-0.010542016476392746,-0.004121496807783842,0.021968282759189606
1783693642693914000,7.0509140625,-0.011818881146609783,-0.0039236051961779594,0.02338409796357155
1783693642703876400,7.06087646484375,-0.0112867821007967,-0.0025635291822254658,0.021422147750854492
1783693642713839400,7.07083935546875,-0.007042784243822098,0.00021119776647537947,0.01691424660384655
1783693642723801000,7.080801025390625,-0.002521802205592394,-0.005921529605984688,0.01744634471833706
1783693642733764000,7.09076416015625,0.007268720306456089,-0.0062496354803442955,0.01279135886579752
1783693642743726300,7.100726318359375,0.012340444140136242,-0.011822831816971302,0.009069059044122696
1783693642753689300,7.110689453125,0.01094058994203806,-0.011564226821064949,0.005440643057227135
1783693642763651000,7.120651123046875,0.010055355727672577,-0.014096093364059925,0.00531014846637845
1783693642773614000,7.130614013671875,0.007078159134835005,-0.007717817090451717,0.004236831795424223
1783693642783576300,7.140576416015625,0.005399568937718868,0.0032259109430015087,0.0037808986380696297
1783693642793539300,7.150539306640625,0.001639968017116189,0.008541293442249298,0.0007566435961052775
1783693642803501000,7.1605009765625,-0.0011555522214621305,0.008248877711594105,-0.0012934576952829957
1783693642813464000,7.170464111328125,0.001727900467813015,0.004664256703108549,-0.0016044527292251587
1783693642823426300,7.18042626953125,0.0020607956685125828,0.0010892292484641075,-0.0030404292047023773
1783693642833389300,7.190389404296875,0.0043739452958106995,-0.001556044677272439,-0.0019484382355585694
1783693642843351000,7.20035107421875,0.0038588896859437227,-0.0033209214452654123,-0.0015343165723606944
1783693642853314000,7.21031396484375,0.0070994081906974316,-0.002307609189301729,0.001906784949824214
1783693642863276300,7.2202763671875,0.006623235065490007,-0.0001690910430625081,0.0005656170542351902
1783693642873239300,7.2302392578125,0.005999207962304354,-0.003958496265113354,-0.00005576096009463072
1783693642883201000,7.240200927734375,0.00500132143497467,0.001617097295820713,0.00038259534630924463
1783693642893164000,7.2501640625,0.004796887747943401,0.011113651096820831,0.000936924247071147
1783693642903126300,7.260126220703125,0.001495100324973464,0.012023652903735638,0.0023268279619514942
1783693642913089300,7.27008935546875,0.0026638165581971407,0.00894958432763815,-0.0015322801191359758
1783693642923051000,7.280051025390625,0.002449698280543089,0.002448276150971651,-0.004204495809972286
1783693642933014300,7.29001416015625,0.003899280447512865,-0.0013097483897581697,-0.005355405621230602
1783693642942976300,7.299976318359375,0.0056167528964579105,-0.0027329414151608944,-0.006051023490726948
1783693642952939300,7.309939208984375,0.011240833438932896,-0.003979279659688473,-0.0025953359436243773
1783693642962901200,7.3199013671875,0.016580205410718918,-0.0027893795631825924,0.0020574727095663548
1783693642972864300,7.3298642578125,0.016405444592237473,0.0007590121240355074,0.005669737234711647
1783693642982826200,7.339826171875,0.016942070797085762,0.0016011036932468414,0.005734984762966633
1783693642992789200,7.349789306640625,0.01398761011660099,0.002058894606307149,0.0029070363380014896
1783693643002751200,7.359751220703125,0.012101558968424797,0.0012841811403632164,-0.001613146741874516
1783693643012714200,7.36971435546875,0.012567669153213501,-0.0057020848616957664,-0.0052618966437876225
1783693643022676200,7.37967626953125,0.013567686080932617,-0.0026269329246133566,0.0026934980414807796
1783693643032639200,7.38963916015625,0.014752105809748173,0.004591573495417833,0.011704664677381516
1783693643042602200,7.399602294921875,0.011318759061396122,0.003570517525076866,0.015491679310798645
1783693643052564200,7.409564208984375,0.012266989797353745,0.0006514076958410442,0.017840242013335228
1783693643062527200,7.41952734375,0.018087061122059822,0.0012034809915348887,0.0179105494171381
1783693643072489200,7.4294892578125,0.02011614665389061,-0.0003808720503002405,0.014041349291801453
1783693643082452200,7.4394521484375,0.022505268454551697,-0.004696524702012539,0.003282977268099785
1783693643092414200,7.449414306640625,0.02228669635951519,-0.002617102349177003,-0.00529158441349864
1783693643102377200,7.459377197265625,0.021660586819052696,-0.0022828758228570223,-0.013759104534983635
1783693643112339200,7.469339111328125,0.020403971895575523,-0.004224823322147131,-0.01874953880906105
1783693643122302200,7.47930224609375,0.015906691551208496,0.001242912607267499,-0.02019616775214672
1783693643132264200,7.48926416015625,0.013182124122977257,0.009122416377067566,-0.019275683909654617
1783693643142227200,7.499227294921875,0.009578867815434933,0.006980701815336943,-0.019220290705561638
1783693643152189200,7.509189208984375,0.0086769824847579,0.003072472522035241,-0.014347554184496403
1783693643162152200,7.519152099609375,0.009202158078551292,0.003260491881519556,-0.005360450595617294
1783693643172114200,7.5291142578125,0.008236328139901161,-0.0021853495854884386,-0.004743425641208887
1783693643182077200,7.5390771484375,0.00499579356983304,-0.005087396129965782,-0.009100090712308884
1783693643192039200,7.5490390625,0.005010206717997789,-0.0019209247548133135,-0.010457943193614483
1783693643202002200,7.559002197265625,-0.0003462091844994575,0.000737176276743412,-0.015432728454470634
1783693643211964200,7.568964111328125,0.0007267217733897269,-0.0035254836548119783,-0.02050609700381756
1783693643221927200,7.57892724609375,0.0022934593725949526,-0.0028628890868276358,-0.017796862870454788
1783693643231889200,7.58888916015625,0.003532006870955229,-0.0014199655270203948,-0.017580755054950714
1783693643241852200,7.59885205078125,0.005725386552512646,-0.0053840805776417255,-0.022282833233475685
1783693643251814100,7.608814208984375,0.006194619461894035,0.0004657980753108859,-0.02011765167117119
1783693643261777200,7.618777099609375,0.004566096235066652,0.00360673014074564,-0.01652158424258232
1783693643271739100,7.6287392578125,-0.0016915576998144388,0.0009598518372513354,-0.013434291817247868
1783693643281702400,7.638702392578125,-0.006386710796505213,-0.00327856931835413,-0.011394309811294079
1783693643291664100,7.6486640625,-0.006393522955477238,-0.002662640530616045,-0.008524504490196705
1783693643301627100,7.658627197265625,-0.004703747108578682,-0.003690088167786598,-0.004591548815369606
1783693643311589000,7.668589111328125,-0.0012118278536945581,-0.008902715519070625,-0.003306810511276126
1783693643321552400,7.678552490234375,-0.0003558877797331661,-0.01410413533449173,0.0014794226735830307
1783693643331514000,7.68851416015625,0.005875475704669952,-0.014823131263256073,0.0064882682636380196
1783693643341477000,7.69847705078125,0.006003839895129204,-0.011812959797680378,0.010949595831334591
1783693643351439400,7.708439453125,0.005444689188152552,-0.010443021543323994,0.012017084285616875
1783693643361402400,7.71840234375,0.0012869623024016619,-0.007843510247766972,0.009297464974224567
1783693643371364400,7.7283642578125,-0.0041007595136761665,-0.0013859275495633483,0.007024156861007214
1783693643381327000,7.7383271484375,-0.004253624938428402,0.0015832307981327176,-0.003018890041857958
1783693643391289300,7.748289306640625,-0.007059247698634863,-0.0011512816417962313,-0.01100680511444807
1783693643401252400,7.75825244140625,-0.00825793668627739,-0.007882421836256981,-0.01650223881006241
1783693643411214300,7.76821435546875,-0.0055969711393117905,-0.00511054927483201,-0.019151737913489342
1783693643421177000,7.778177001953125,-0.006294718943536282,-0.00831300113350153,-0.02588261105120182
1783693643431139300,7.788139404296875,-0.00495259091258049,-0.010893403552472591,-0.02872389182448387
1783693643441102300,7.798102294921875,-0.007053292356431484,-0.007348470389842987,-0.02467402257025242
1783693643451064300,7.808064208984375,-0.005973468534648418,-0.0022002903278917074,-0.016595996916294098
1783693643461027000,7.818027099609375,-0.00467624282464385,-0.005497283302247524,-0.011427599936723709
1783693643470989300,7.8279892578125,-0.0026261897291988134,-0.007317548152059317,-0.00588988559320569
1783693643480952300,7.837952392578125,-0.0014836937189102173,-0.00876497570425272,0.0026383553631603718
1783693643490914000,7.8479140625,0.0004144621780142188,-0.01524895615875721,0.006557275075465441
1783693643500877000,7.857876953125,0.002560437424108386,-0.016055626794695854,0.013989890925586224
1783693643510839300,7.86783935546875,0.0009182989015243948,-0.01518714427947998,0.019271377474069595
1783693643520802300,7.87780224609375,-0.0018846781458705664,-0.014561034739017487,0.02453911118209362
1783693643530765300,7.887765380859375,-0.002477989299222827,-0.011605474166572094,0.022409725934267044
1783693643540727000,7.89772705078125,-0.0072722118347883224,-0.00490283127874136,0.021642468869686127
1783693643550690000,7.90768994140625,-0.005790155380964279,-0.0025385350454598665,0.023121727630496025
1783693643560652300,7.91765234375,-0.006148616783320904,-0.0038954156916588545,0.021929431706666946
1783693643570615300,7.927615234375,-0.004074861295521259,-0.011910990811884403,0.016784409061074257
1783693643580577000,7.937576904296875,-0.005445856600999832,-0.015161911956965923,0.005719773005694151
1783693643590540300,7.947540283203125,-0.007659411057829857,-0.012646008282899857,-0.005306480918079615
1783693643600502300,7.957502197265625,-0.0058569833636283875,-0.008190007880330086,-0.012652277946472168
1783693643610465300,7.96746533203125,-0.003514200681820512,-0.00923290103673935,-0.020448416471481323
1783693643620427000,7.977427001953125,-0.006190943997353315,-0.0050629242323338985,-0.021776800975203514
1783693643630390300,7.987390380859375,-0.005548468325287104,-0.0023310347460210323,-0.02150694467127323
1783693643640352300,7.997352294921875,-0.006666196975857019,-0.006962271872907877,-0.018535122275352478
1783693643650315300,8.007315185546876,-0.011130308732390404,-0.005435766652226448,-0.012927648611366749
1783693643660277200,8.01727734375,-0.016841990873217583,0.0038765084464102983,-0.004430301021784544
1783693643670240300,8.027240234375,-0.018497999757528305,0.006519158836454153,-0.002330445684492588
1783693643680202200,8.0372021484375,-0.019535034894943237,0.003717247163876891,-0.002303547691553831
1783693643690165200,8.047165283203125,-0.01304087694734335,0.0004327537026256323,-0.004074206110090017
1783693643700127200,8.057127197265626,-0.008277813903987408,0.0025459718890488148,-0.0038590230979025364
1783693643710090200,8.06709033203125,-0.0037293359637260437,-0.003745465073734522,-0.005992182530462742
1783693643720052200,8.07705224609375,0.0016430588439106941,-0.012245475314557552,-0.01081996038556099
1783693643730015200,8.08701513671875,0.0015669007552787662,-0.01608175039291382,-0.020215608179569244
1783693643739977200,8.096977294921874,-0.002021442400291562,-0.009939966723322868,-0.019961543381214142
1783693643749940200,8.106940185546875,-0.002821311354637146,-0.009598568081855774,-0.01640656776726246
1783693643759902200,8.116902099609375,-0.004827470518648624,-0.005447233561426401,-0.006017576903104782
1783693643769865200,8.126865234375,-0.005333405919373035,-0.0020168006885796785,0.005980528425425291
1783693643779827200,8.1368271484375,-0.006625305395573378,-0.0034583695232868195,0.011094063520431519
1783693643789790200,8.146790283203124,-0.003621308133006096,-0.008107710629701614,0.018420623615384102
1783693643799752200,8.156752197265625,-0.00227614538744092,-0.007917560636997223,0.02220044657588005
1783693643809715200,8.166715087890625,0.0008819273789413273,-0.008877109736204147,0.0188300758600235
1783693643819677200,8.17667724609375,0.006042600609362125,-0.005241895094513893,0.01474904827773571
1783693643829640200,8.18664013671875,0.012706104665994644,-0.00784485787153244,0.010055745020508766
1783693643839602200,8.196602294921876,0.015413740649819374,-0.005897022318094969,0.006183241959661245
1783693643849565200,8.206565185546875,0.016413409262895584,-0.0036602693144232035,0.0014236386632546782
1783693643859527200,8.216527099609374,0.011578706093132496,0.0001073046587407589,-0.006217769347131252
1783693643869490200,8.226490234375,0.005050210282206535,0.005238188896328211,-0.008961997926235199
1783693643879452200,8.2364521484375,0.0006155147566460073,0.008475793525576591,-0.012984703294932842
1783693643889415200,8.246415283203126,-0.003294417168945074,0.006363659631460905,-0.014931661076843739
1783693643899377200,8.256377197265625,-0.006979432888329029,0.009088339284062386,-0.013756409287452698
1783693643909340200,8.266340087890624,-0.002511770697310567,0.008374341763556004,-0.016443053260445595
1783693643919302100,8.27630224609375,0.000031281786505132914,0.0013068452244624496,-0.020312359556555748
1783693643929265200,8.28626513671875,0.004982453305274248,-0.0017606066539883614,-0.019395824521780014
1783693643939227100,8.29622705078125,0.00913192518055439,-0.004816850647330284,-0.018493279814720154
1783693643949190100,8.306190185546875,0.012971646152436733,-0.00636703846976161,-0.013757224194705486
1783693643959152000,8.316152099609376,0.0138853769749403,-0.004274060484021902,-0.006568286567926407
1783693643969115100,8.326115234375,0.013132072985172272,-0.0015328710433095694,0.005530030932277441
1783693643979077000,8.3360771484375,0.013264165259897709,0.0033489693887531757,0.02136998064815998
1783693643989040000,8.3460400390625,0.009259886108338833,0.00645980192348361,0.034376922994852066
1783693643999002000,8.356002197265624,0.010863641276955605,0.00639934791252017,0.03885263204574585
1783693644008965400,8.36596533203125,0.008031893521547318,0.002131089335307479,0.03715701028704643
1783693644018927000,8.375927001953125,0.006476075388491154,-0.002247946336865425,0.027322489768266678
1783693644028890000,8.38589013671875,0.006350768264383078,-0.0035332278348505497,0.016697227954864502
1783693644038852000,8.39585205078125,0.004100130870938301,-0.005769750569015741,0.002608573529869318
1783693644048815400,8.4058154296875,0.0029616374522447586,-0.006341718602925539,-0.010139618068933487
1783693644058778400,8.4157783203125,-0.00013801586464978755,0.0003926169592887163,-0.012845123186707497
1783693644068740000,8.425739990234375,-0.0017900303937494755,0.006449904292821884,-0.011273748241364956
1783693644078703000,8.435703125,-0.006406087428331375,0.007693334016948938,-0.005518657620996237
1783693644088665300,8.445665283203125,-0.009563401341438293,0.011035630479454994,-0.006593445315957069
1783693644098628400,8.45562841796875,-0.011978622525930405,0.007576184347271919,-0.008397470228374004
1783693644108590000,8.465590087890625,-0.009538593702018261,-0.0022871156688779593,-0.01200198195874691
1783693644118553000,8.475552978515625,-0.007044277619570494,-0.009657946415245533,-0.01557754073292017
1783693644128515300,8.485515380859376,-0.001612284453585744,-0.010293381288647652,-0.012288584373891354
1783693644138478300,8.495478271484375,0.004183286800980568,-0.013243097811937332,-0.00946909561753273
1783693644148440000,8.505440185546876,0.006025063805282116,-0.009757300838828087,0.0028754223603755236
1783693644158403000,8.515403076171875,0.006630932912230492,-0.004719932563602924,0.019825110211968422
1783693644168365300,8.525365234375,0.004468204919248819,-0.002349420916289091,0.02577989362180233
1783693644178328300,8.535328369140625,-0.0028610804583877325,-0.0030181407928466797,0.025686683133244514
1783693644188290000,8.5452900390625,-0.008754704147577286,0.004528997465968132,0.02026229351758957
1783693644198253000,8.555253173828126,-0.015387839637696743,0.001997662940993905,0.011880527250468731
1783693644208215300,8.56521533203125,-0.017866451293230057,-0.008411312475800514,0.0026364438235759735
1783693644218178300,8.57517822265625,-0.020520824939012527,-0.013716861605644226,-0.00022139411885291338
1783693644228140000,8.58514013671875,-0.019464606419205666,-0.013673442415893078,0.007392301689833403
1783693644238103000,8.59510302734375,-0.02038419619202614,-0.009991887956857681,0.011384380050003529
1783693644248065300,8.605065185546875,-0.022499287500977516,-0.0034588980488479137,0.015748517587780952
1783693644258028300,8.6150283203125,-0.02343006059527397,0.0036714491434395313,0.020521966740489006
1783693644267990000,8.624989990234376,-0.021512262523174286,-0.0005121062276884913,0.016222074627876282
1783693644277953000,8.634953125,-0.019394250586628914,-0.008437939919531345,0.013246791437268257
1783693644287915300,8.644915283203124,-0.017872795462608337,-0.010616948828101158,0.008808116428554058
1783693644297878300,8.654878173828125,-0.013667130842804909,-0.014979206025600433,0.010859282687306404
1783693644307840000,8.664840087890624,-0.009185805916786194,-0.017359508201479912,0.01624521240592003
1783693644317803300,8.67480322265625,-0.005850729066878557,-0.013761844485998154,0.026623819023370743
1783693644327765200,8.68476513671875,-0.0029886378906667233,-0.009137541987001896,0.03312354534864426
1783693644337728300,8.694728271484376,-0.00100911024492234,-0.007113806437700987,0.028732256963849068
1783693644347690000,8.70468994140625,0.0014926951844245195,-0.00720091862604022,0.026683848351240158
1783693644357653200,8.7146533203125,-0.00090414984151721,-0.002078860765323043,0.022212931886315346
1783693644367615200,8.724615234375,-0.003348730504512787,0.0012071988312527537,0.012693432159721851
1783693644377578200,8.734578125,-0.006604445166885853,-0.0013342557940632105,0.0010801854077726603
1783693644387540200,8.744540283203126,-0.009694848209619522,-0.003150220960378647,-0.007382978685200214
1783693644397503200,8.754503173828125,-0.010920435190200806,-0.0021448777988553047,-0.004382661543786526
1783693644407465200,8.76446533203125,-0.010160264559090137,-0.0022676517255604267,-0.00789419561624527
1783693644417428200,8.77442822265625,-0.012569360435009003,-0.0049925982020795345,-0.006068332586437464
1783693644427390200,8.78439013671875,-0.009334975853562355,-0.001262073521502316,0.0005318254698067904
1783693644437353200,8.794353271484376,-0.006583929993212223,0.003512708004564047,0.0034703572746366262
1783693644447315200,8.804315185546875,-0.004629798699170351,0.002192059066146612,0.002786865457892418
1783693644457278200,8.8142783203125,-0.002792750485241413,-0.0018314446788281202,-0.0013373057590797544
1783693644467240200,8.824240234375,0.0004792971885763109,-0.0025566467083990574,-0.0033185575157403946
1783693644477203200,8.834203125,0.009506347589194775,-0.0007414361461997032,-0.0030993795953691006
1783693644487165000,8.8441650390625,0.013855621218681335,-0.0007840318139642477,-0.0030956189148128033
1783693644497128000,8.8541279296875,0.018255963921546936,0.00043090234976261854,-0.005276747979223728
1783693644507090200,8.864090087890625,0.020296290516853333,0.0026331054978072643,-0.009029407985508442
1783693644517053200,8.87405322265625,0.01805577240884304,0.008874489925801754,-0.013875296339392662
1783693644527015000,8.884014892578126,0.018018409609794617,0.013375196605920792,-0.021128416061401367
1783693644536978000,8.89397802734375,0.014291314408183098,0.012309666723012924,-0.030439358204603195
1783693644546940200,8.903940185546874,0.015354117378592491,0.011190659366548061,-0.032225728034973145
1783693644556903200,8.913903076171875,0.014458229765295982,0.014917486347258091,-0.022554725408554077
1783693644566865000,8.923864990234375,0.015366029925644398,0.019077053293585777,-0.0037317846436053514
1783693644576828000,8.933827880859376,0.01872161217033863,0.015311876311898232,0.013456789776682854
1783693644586790100,8.9437900390625,0.020352378487586975,0.009433755651116371,0.028030233457684517
1783693644596753200,8.953753173828124,0.01881919801235199,0.009148531593382359,0.038838937878608704
1783693644606715000,8.96371484375,0.015146495774388313,0.007040584459900856,0.035756781697273254
1783693644616678000,8.973677978515624,0.010175173170864582,0.007322613149881363,0.02983124926686287
1783693644626640100,8.98364013671875,0.011020324192941189,0.00539344921708107,0.02415079064667225
1783693644636603100,8.99360302734375,0.010551607236266136,0.0025065825320780277,0.014296827837824821
1783693644646566100,9.003566162109376,0.011405892670154572,0.0004343728069216013,0.00794487539678812
1783693644656528000,9.01352783203125,0.012265827506780624,0.004756683483719826,0.0010480876080691814
1783693644666491100,9.0234912109375,0.011908059939742088,0.008929592557251453,-0.005261849611997604
1783693644676453000,9.033453125,0.007607588078826666,0.014317966066300869,-0.016509709879755974
1783693644686414800,9.043414794921874,0.002001518849283457,0.01571378856897354,-0.026422247290611267
1783693644696378000,9.053378173828126,0.0022095118183642626,0.02100255899131298,-0.028958642855286598
1783693644706341000,9.063341064453125,0.00017200165893882513,0.023218000307679176,-0.026631664484739304
1783693644716303000,9.07330322265625,-0.000012821707059629261,0.023341303691267967,-0.02793155424296856
1783693644726266000,9.08326611328125,-0.0004975816118530929,0.021620091050863266,-0.024607693776488304
1783693644736228000,9.09322802734375,0.0012822088319808245,0.013327805325388908,-0.021550651639699936
1783693644746191000,9.103191162109376,0.0005496297380886972,0.002333481330424547,-0.016423752531409264
1783693644756153000,9.113153076171875,-0.0008123108418658376,0.005409166216850281,-0.00885238591581583
1783693644766116000,9.1231162109375,-0.006812791805714369,0.012390101328492165,-0.004215117543935776
1783693644776078000,9.133078125,-0.007763806730508804,0.006008102558553219,-0.004472378641366959
1783693644786041000,9.143041015625,-0.007332213222980499,0.007377236150205135,-0.007800375111401081
1783693644796003000,9.153003173828125,-0.009791643358767033,0.010379151441156864,-0.012241195887327194
1783693644805966000,9.162966064453125,-0.00776338716968894,0.010218285024166107,-0.01455094013363123
1783693644815928000,9.172927978515625,-0.0022623620461672544,0.005739913787692785,-0.014833235181868076
1783693644825891000,9.18289111328125,0.002979384968057275,0.0071921441704034805,-0.00959150679409504
1783693644835853000,9.19285302734375,0.005218304228037596,0.006249118596315384,-0.0050958250649273396
1783693644845816000,9.202816162109375,0.006843841169029474,0.000590429815929383,-0.0032846564427018166
1783693644855778000,9.212778076171874,0.007121342699974775,-0.0036754216998815536,-0.004405580926686525
1783693644865741000,9.222740966796875,0.0064682625234127045,-0.006067429669201374,-0.010647136718034744
1783693644875703000,9.232703125,0.0018974794074892998,-0.01079533901065588,-0.018107185140252113
1783693644885666000,9.242666015625,-0.002590334042906761,-0.012245182879269123,-0.021856460720300674
1783693644895628000,9.2526279296875,-0.007952608168125153,-0.00708291120827198,-0.02141517587006092
1783693644905591000,9.262591064453124,-0.012267212383449078,-0.00047589559108018875,-0.01602650247514248
1783693644915553000,9.272552978515625,-0.018918458372354507,0.008318128064274788,-0.00797070749104023
1783693644925516000,9.28251611328125,-0.020082291215658188,0.008020946756005287,-0.008350301533937454
1783693644935478000,9.29247802734375,-0.02105274796485901,-0.0002668105298653245,-0.011534110642969608
1783693644945441000,9.30244091796875,-0.025504549965262413,-0.002493227832019329,-0.015667900443077087
1783693644955403000,9.312403076171876,-0.024872582405805588,-0.0042285434901714325,-0.024392683058977127
1783693644965366000,9.322365966796875,-0.021305544301867485,-0.004942270461469889,-0.03228629007935524
1783693644975328000,9.332327880859374,-0.018725473433732986,-0.006457342766225338,-0.028959736227989197
1783693644985291000,9.342291015625,-0.017354270443320274,0.00021120836026966572,-0.023720281198620796
1783693644995253000,9.3522529296875,-0.015896722674369812,0.0028056600131094456,-0.01899663172662258
1783693645005216000,9.362216064453126,-0.01630590483546257,0.0033848783932626247,-0.014717012643814087
1783693645015178000,9.372177978515625,-0.01564996875822544,0.004163053818047047,-0.01882493868470192
1783693645025141000,9.38214111328125,-0.013896502554416656,0.0005097816465422511,-0.02413828857243061
1783693645035103000,9.39210302734375,-0.01211138628423214,-0.009923950769007206,-0.029771674424409866
1783693645045066200,9.402066162109374,-0.01151303667575121,-0.00983208604156971,-0.024492785334587097
1783693645055028000,9.412028076171875,-0.006063144654035568,-0.007679186295717955,-0.01027949620038271
1783693645064991000,9.421990966796875,-0.0024923060555011034,-0.004482371732592583,0.0036668514367192984
1783693645074953000,9.431952880859376,0.0007106778211891651,-0.0040967464447021484,0.018074817955493927
1783693645084916200,9.441916259765625,0.00213789870031178,-0.0035616750828921795,0.023974992334842682
1783693645094878000,9.4518779296875,0.0014092577621340752,-0.003971535712480545,0.017958378419280052
1783693645104841000,9.461841064453125,0.003518481273204088,-0.009093593806028366,0.0057009123265743256
1783693645114803200,9.47180322265625,0.0038918566424399614,-0.011847035959362984,-0.01253508310765028
1783693645124766200,9.48176611328125,0.0042512621730566025,-0.012946140952408314,-0.031042002141475677
1783693645134728000,9.49172802734375,0.0061168065294623375,-0.012550129555165768,-0.04355486482381821
1783693645144691000,9.50169091796875,0.009455030784010887,-0.013307525776326656,-0.047130484133958817
1783693645154653200,9.511653076171875,0.014153112657368183,-0.00920519232749939,-0.043930165469646454
1783693645164616200,9.5216162109375,0.015199420042335987,-0.0001376554137095809,-0.03736153990030289
1783693645174578000,9.531577880859375,0.01579011045396328,0.004493847955018282,-0.025448689237236977
1783693645184541000,9.541541015625,0.01118993479758501,0.005619312170892954,-0.012631019577383995
1783693645194503200,9.551503173828126,0.006225802004337311,-0.0015019805869087577,0.0004046212416142225
1783693645204466200,9.561466064453125,0.0037653236649930477,-0.0045715877786278725,0.01610967144370079
1783693645214428200,9.57142822265625,0.002352250274270773,-0.0011571490904316306,0.02951842173933983
1783693645224391000,9.581390869140625,0.0041467053815722466,0.0008058879757300019,0.03624367341399193
1783693645234353200,9.591353271484374,0.009774496778845787,0.0007387762889266014,0.03838725388050079
1783693645244316200,9.601316162109375,0.015026743523776531,-0.0025424878112971783,0.04206899181008339
1783693645254278100,9.611278076171875,0.017714936286211014,-0.003911086358129978,0.04233797267079353
1783693645264241000,9.621240966796876,0.019486142322421074,-0.0038093680050224066,0.03646620362997055
1783693645274203100,9.631203125,0.01831674762070179,-0.0069830575957894325,0.026427149772644043
1783693645284166100,9.641166259765624,0.019207002595067024,-0.005426955409348011,0.013201815076172352
1783693645294128000,9.651128173828125,0.015439162030816078,-0.0023810984566807747,0.0007930824067443609
1783693645304091000,9.6610908203125,0.012302078306674957,0.005237957928329706,-0.0033403318375349045
1783693645314053000,9.67105322265625,0.008609073236584663,0.01426740549504757,-0.003220489714294672
1783693645324016000,9.68101611328125,0.006903689354658127,0.01696704886853695,-0.0030408829916268587
1783693645333978000,9.69097802734375,0.006213664077222347,0.01474996842443943,-0.0035772433038800955
1783693645343940900,9.70094091796875,0.010099006816744804,0.006926670670509338,-0.0031918371096253395
1783693645353904000,9.710904052734374,0.015323596075177193,0.005170581862330437,0.001506511471234262
1783693645363866000,9.7208662109375,0.020008282735943794,0.0064776260405778885,0.0018990617245435715
1783693645373829000,9.7308291015625,0.022549737244844437,0.0015875300159677863,-0.0007419950561597943
1783693645383790800,9.740790771484376,0.025086455047130585,-0.002990173641592264,-0.004093535710126162
1783693645393754000,9.750754150390625,0.02319001778960228,-0.0022713863290846348,-0.003535603638738394
1783693645403716000,9.760716064453124,0.020193001255393028,0.004541243892163038,-0.0025578481145203114
1783693645413679000,9.77067919921875,0.019096577540040016,0.010814853012561798,0.003234261181205511
1783693645423641000,9.78064111328125,0.012192340567708015,0.015314806252717972,0.011343571357429028
1783693645433604000,9.79060400390625,0.007307836785912514,0.01163245365023613,0.014473318122327328
1783693645443566000,9.800566162109375,0.003980014938861132,0.008819636888802052,0.013034975156188011
1783693645453529000,9.810529052734376,0.0028044956270605326,0.0047633764334023,0.014654709957540035
1783693645463491000,9.820490966796875,-0.00027644395595416427,0.0002549354685470462,0.015810269862413406
1783693645473454800,9.830454833984374,0.0003230335714761168,-0.0012425599852576852,0.011861867271363735
1783693645483417000,9.8404169921875,0.0024035205133259296,-0.0025994773022830486,0.004823244176805019
1783693645493379800,9.8503798828125,0.006169763393700123,-0.00338937109336257,-0.002458104630932212
1783693645503341800,9.860341796875,0.008046427741646767,-0.006758550647646189,-0.009023893624544144
1783693645513304800,9.870304931640625,0.0083377780392766,-0.005092210602015257,-0.013055919669568539
1783693645523267000,9.88026708984375,0.0066007026471197605,-0.004211771301925182,-0.014965296722948551
1783693645533229800,9.890229736328125,0.005429178476333618,-0.0029496995266526937,-0.006880737841129303
1783693645543191800,9.90019189453125,0.0030165077187120914,-0.003842932404950261,-0.005465628579258919
1783693645553155000,9.910155029296876,-0.0030030354391783476,0.001206154702231288,0.001850075088441372
1783693645563117000,9.920116943359375,-0.005645568482577801,0.009592733345925808,0.0039013202767819166
1783693645573080000,9.930080078125,-0.0062644872814416885,0.00759136863052845,0.001040552742779255
1783693645583041800,9.940041748046875,-0.006414205301553011,0.009186076000332832,-0.000813069986179471
1783693645593005000,9.950005126953124,-0.0006117102457210422,0.007685384247452021,-0.00614205515012145
1783693645602967000,9.959967041015625,0.0013837398728355765,-0.0030801822431385517,-0.019064292311668396
1783693645612930000,9.969929931640625,0.0062024639919400215,-0.005053318105638027,-0.024362651631236076
1783693645622891800,9.979891845703126,0.0084702018648386,-0.0036831176839768887,-0.03304450958967209
1783693645632855000,9.98985498046875,0.011164255440235138,-0.003608016762882471,-0.03630688041448593
1783693645642817000,9.999817138671874,0.006251949816942215,0.00023599236737936735,-0.03749103471636772
1783693645652780000,10.009780029296875,0.003449239069595933,0.008014553226530552,-0.03634906932711601
1783693645662742000,10.019741943359374,-0.005173149053007364,0.016732903197407722,-0.03746151924133301
1783693645672705000,10.029705078125,-0.00837639905512333,0.008289352059364319,-0.0255646463483572
1783693645682667000,10.0396669921875,-0.0047799209132790565,0.004456580150872469,-0.02691829949617386
1783693645692630000,10.049630126953126,0.0005610488005913794,-0.003291886765509844,-0.022186128422617912
1783693645702592000,10.059592041015625,0.0010840214090421796,0.0037335073575377464,-0.016030246391892433
1783693645712555000,10.069554931640624,-0.0005194678669795394,0.0064065223559737206,-0.0009607501560822129
1783693645722517000,10.07951708984375,-0.00814225897192955,0.012651406228542328,0.02307656593620777
1783693645732480000,10.08947998046875,-0.020582949742674828,0.015262369066476822,0.04296691343188286
1783693645742442000,10.09944189453125,-0.02498614601790905,0.015973655506968498,0.04648113250732422
1783693645752405000,10.109405029296875,-0.027292709797620773,0.012729925103485584,0.05216351896524429
1783693645762367000,10.119366943359376,-0.02372811734676361,0.004095430951565504,0.0545634925365448
1783693645772330000,10.129330078125,-0.027765469625592232,0.009215357713401318,0.07265141606330872
1783693645782292000,10.1392919921875,-0.026075420901179314,0.009965580888092518,0.07161197066307068
1783693645792255000,10.1492548828125,-0.019579172134399414,-0.002623714040964842,0.06641055643558502
1783693645802217000,10.159217041015625,-0.016438022255897522,-0.0037323818542063236,0.05893579497933388
1783693645812180000,10.169179931640626,-0.013662740588188171,-0.004770748317241669,0.047487664967775345
1783693645822142000,10.179141845703125,-0.013525822199881077,-0.009732510894536972,0.03192158043384552
1783693645832105000,10.18910498046875,-0.012891191057860851,-0.016652202233672142,0.015335947275161743
1783693645842067000,10.19906689453125,-0.008231240324676037,-0.01793690398335457,0.0036166440695524216
1783693645852030000,10.209030029296875,-0.0011147409677505493,-0.015926750376820564,-0.004468446597456932
1783693645861992000,10.218991943359375,0.003343342337757349,-0.01504257507622242,-0.009600686840713024
1783693645871955000,10.228954833984375,0.0012623482616618276,-0.014354148879647255,-0.007830750197172165
1783693645881917000,10.2389169921875,0.0006981937913224101,-0.013291002251207829,-0.008596534840762615
1783693645891880000,10.2488798828125,-0.0008911807090044022,-0.014014583081007004,-0.007950451225042343
1783693645901842000,10.258842041015624,-0.003344759112223983,-0.011384988203644753,-0.005300057586282492
1783693645911805000,10.268804931640625,-0.007263600826263428,-0.001686021452769637,-0.001109840115532279
1783693645921767000,10.278766845703124,-0.01058785431087017,0.004387329798191786,0.005666714161634445
1783693645931730000,10.28872998046875,-0.014302964322268963,0.008319486863911152,0.016389133408665657
1783693645941692000,10.29869189453125,-0.014230519533157349,0.005633699242025614,0.01985255815088749
1783693645951655000,10.308655029296874,-0.008682888001203537,-0.0020476561039686203,0.01768341287970543
1783693645961617000,10.318616943359375,-0.005383644253015518,-0.008903945796191692,0.016099710017442703
1783693645971580000,10.328579833984374,-0.0020171422511339188,-0.00519123300909996,0.017178822308778763
1783693645981542000,10.3385419921875,0.0001455393503420055,-0.0043920427560806274,0.023549089208245277
1783693645991505000,10.3485048828125,0.003921369090676308,-0.007815269753336906,0.02801174856722355
1783693646001467000,10.358466796875,0.007180350832641125,-0.004716923926025629,0.03192048519849777
1783693646011430100,10.36843017578125,0.011078152805566788,-0.004365120083093643,0.02980167232453823
1783693646021392000,10.378391845703124,0.013147027231752872,-0.0027012163773179054,0.036508530378341675
1783693646031355000,10.38835498046875,0.01466316543519497,-0.005639481823891401,0.033801693469285965
1783693646041316900,10.39831689453125,0.013694153167307377,-0.011303219012916088,0.029757246375083923
1783693646051280100,10.408280029296876,0.014971138909459114,-0.005312703549861908,0.030120234936475754
1783693646061241900,10.418241943359375,0.013493681326508522,0.0006112460396252573,0.03120150975883007
1783693646071204900,10.428204833984376,0.012043057940900326,0.00384086137637496,0.03139778599143028
1783693646081167000,10.4381669921875,0.008882870897650719,0.0057569704949855804,0.026230985298752785
1783693646091130000,10.448130126953124,0.005787212401628494,0.00993946474045515,0.017705140635371208
1783693646101091800,10.458091796875,0.0030242472421377897,0.010163451544940472,0.0033483384177088737
1783693646111054800,10.468054931640625,-0.00010230392217636108,0.010486227460205555,0.000769865931943059
1783693646121017000,10.47801708984375,-0.0023529743775725365,0.006589250173419714,-0.005027929786592722
1783693646130980000,10.48797998046875,0.005000812467187643,-0.002544859889894724,-0.015748484060168266
1783693646140941800,10.49794189453125,0.0058853779919445515,0.00019309669733047485,-0.010664823465049267
1783693646150904800,10.50790478515625,0.009026575833559036,-0.000011167721822857857,-0.005650890059769154
1783693646160867000,10.5178671875,0.007443584967404604,-0.002994184847921133,-0.0005378719652071595
1783693646170830000,10.527830078125,0.006861684378236532,-0.0007435474544763565,0.008142701350152493
1783693646180791800,10.537791748046875,0.005584021098911762,-0.0002524417359381914,0.017483817413449287
1783693646190754800,10.5477548828125,0.002893163124099374,0.0063508665189146996,0.01731950044631958
1783693646200717000,10.557717041015625,-0.000001338208676315844,0.012201808393001556,0.021015042439103127
1783693646210680000,10.56768017578125,-0.0028237563092261553,0.019129222258925438,0.02616000361740589
1783693646220641800,10.577641845703125,-0.0012288775760680437,0.012640985660254955,0.02543974481523037
1783693646230604800,10.587604736328124,0.0030196632724255323,0.008725340478122234,0.014592424035072327
1783693646240567800,10.59756787109375,0.009995442815124989,0.009249718859791756,0.007881414145231247
1783693646250530000,10.607530029296875,0.015117233619093895,0.012921951711177826,0.006765283644199371
1783693646260491800,10.61749169921875,0.018216904252767563,0.004629954230040312,0.0011113613145425916
1783693646270454800,10.627454833984375,0.018307451158761978,0.001479168189689517,-0.004099379759281874
1783693646280417800,10.637417724609374,0.009530833922326565,0.009555458091199398,0.002165299840271473
1783693646290380000,10.647380126953125,-0.008868680335581303,0.0767214447259903,0.05686609447002411
1783693646300343000,10.657343017578125,-0.006442378740757704,0.07249794155359268,0.03714874014258385
1783693646310304800,10.6673046875,0.014959849417209625,-0.002286019269376993,0.0010109759168699384
1783693646320268000,10.67726806640625,-0.002140542259439826,-0.012952538207173347,0.009014135226607323
1783693646330230000,10.68722998046875,-0.01189436949789524,-0.004686885979026556,0.031288281083106995
1783693646340193000,10.697193115234375,-0.017670435830950737,-0.011060881428420544,0.050622329115867615
1783693646350154800,10.70715478515625,-0.02388785220682621,-0.03129131719470024,0.06058149039745331
1783693646360118000,10.717117919921876,-0.022668227553367615,-0.03909597545862198,0.06580676883459091
1783693646370080000,10.727080078125,-0.02192520536482334,-0.04444040730595589,0.07233736664056778
1783693646380043000,10.73704296875,-0.008454307913780212,-0.007596651092171669,0.09533122181892395
