time,seconds_elapsed,z,y,x
1783693562207807200,0.06180712890625,0.06879575550556183,-0.006910908967256546,0.36269402503967285
1783693562217770200,0.071770263671875,0.06888843327760696,-0.01183722447603941,0.36134061217308044
1783693562227732500,0.081732421875,0.06663859635591507,-0.002326543442904949,0.3606202304363251
1783693562237695500,0.091695556640625,0.05232175067067146,0.03559713065624237,0.3723895847797394
1783693562247658200,0.101658203125,0.020331857725977898,0.10957974195480347,0.3863685429096222
1783693562257620200,0.1116201171875,-0.012331350706517696,0.1744263470172882,0.38143420219421387
1783693562267583500,0.12158349609375,-0.018073126673698425,0.19267778098583221,0.33798712491989136
1783693562277546500,0.13154638671875,0.001898747286759317,0.1486339420080185,0.2496151477098465
1783693562287508200,0.14150830078125,0.04641561210155487,0.06842885166406631,0.134587362408638
1783693562297471200,0.15147119140625,0.09444013237953186,-0.002561168046668172,0.01639094203710556
1783693562307434200,0.161434326171875,0.12991583347320557,-0.0454295389354229,-0.07594138383865356
1783693562317396500,0.171396484375,0.13443797826766968,-0.05674958601593971,-0.13464000821113586
1783693562327359500,0.181359375,0.12917983531951904,-0.05127386003732681,-0.15883882343769073
1783693562337321200,0.1913212890625,0.11681277304887772,-0.0376184806227684,-0.15743736922740936
1783693562347284200,0.2012841796875,0.10139040648937225,-0.02293381094932556,-0.1328534632921219
1783693562357247200,0.211247314453125,0.08140109479427338,0.005571302957832813,-0.08920647948980331
1783693562367209500,0.22120947265625,0.0596044547855854,0.052911385893821716,-0.02580406703054905
1783693562377172200,0.231172119140625,0.02841770648956299,0.09134960919618607,0.040064312517642975
1783693562387134000,0.241134033203125,-0.008524333126842976,0.10124298930168152,0.09734384715557098
1783693562397096000,0.251095947265625,-0.039873458445072174,0.08288818597793579,0.13642819225788116
1783693562407059000,0.261058837890625,-0.061189133673906326,0.04444599524140358,0.16673177480697632
1783693562417022000,0.27102197265625,-0.08177550137042999,0.046878572553396225,0.19814352691173553
1783693562426984200,0.280984130859375,-0.09720265865325928,0.07729852944612503,0.22105656564235687
1783693562436947000,0.290947021484375,-0.10455925017595291,0.08697164058685303,0.23385882377624512
1783693562446909000,0.300908935546875,-0.10437549650669098,0.07491737604141235,0.23830389976501465
1783693562456872000,0.310871826171875,-0.08665115386247635,0.05148448422551155,0.2426954060792923
1783693562466835000,0.3208349609375,-0.06512242555618286,0.04116899520158768,0.2436773031949997
1783693562476797000,0.330796875,-0.036110952496528625,0.04329846799373627,0.23917768895626068
1783693562486760000,0.340760009765625,-0.010466841980814934,0.038947395980358124,0.2195483297109604
1783693562496723000,0.350722900390625,0.013327522203326225,0.015797320753335953,0.183027446269989
1783693562506685000,0.360684814453125,0.036671459674835205,-0.004071193281561136,0.14514051377773285
1783693562516648000,0.37064794921875,0.05500191077589989,-0.017142774537205696,0.12297144532203674
1783693562526611000,0.38061083984375,0.06583032757043839,-0.012251612730324268,0.10477592796087265
1783693562536573000,0.390572998046875,0.07346997410058975,-0.0001808367669582367,0.09091562032699585
1783693562546536000,0.400535888671875,0.07088590413331985,0.0181459728628397,0.0858372375369072
1783693562556498200,0.410498291015625,0.06327507644891739,0.0381535105407238,0.08136333525180817
1783693562566461200,0.420461181640625,0.05515723675489426,0.0496612973511219,0.07218821346759796
1783693562576424000,0.430423828125,0.05058208107948303,0.05133272707462311,0.057153698056936264
1783693562586386000,0.440385986328125,0.04753648489713669,0.042470790445804596,0.042351849377155304
1783693562596349000,0.450348876953125,0.04861915111541748,0.026121364906430244,0.024228351190686226
1783693562606312000,0.46031201171875,0.045399121940135956,0.012304618954658508,0.009130357764661312
1783693562616274000,0.47027392578125,0.030973903834819794,0.0033478806726634502,-0.006909543182700872
1783693562626237000,0.48023681640625,0.017194708809256554,-0.022715145722031593,-0.022883184254169464
1783693562636200000,0.490199951171875,0.007433861028403044,-0.05162617936730385,-0.0333651639521122
1783693562646162000,0.500161865234375,-0.0005894442438147962,-0.06356939673423767,-0.030566444620490074
1783693562656125200,0.510125244140625,-0.01888079196214676,-0.058482762426137924,-0.019314002245664597
1783693562666088000,0.520087890625,-0.02779971808195114,-0.05359319970011711,-0.011793502606451511
1783693562676050000,0.5300498046875,-0.02530953288078308,-0.05742098391056061,-0.011684413067996502
1783693562686013000,0.540012939453125,-0.016308048740029335,-0.05624067038297653,-0.010842055082321167
1783693562695975200,0.54997509765625,-0.0093544228002429,-0.0414358489215374,0.0031518321484327316
1783693562705938000,0.55993798828125,-0.011897208169102669,-0.009837179444730282,0.03753963112831116
1783693562715901000,0.56990087890625,-0.022190086543560028,0.0480642206966877,0.08173446357250214
1783693562725863000,0.57986279296875,-0.02912229485809803,0.18484604358673096,0.1270204484462738
1783693562735826000,0.589825927734375,-0.028581295162439346,0.20925681293010712,0.14310212433338165
1783693562745789000,0.599788818359375,-0.012718974612653255,0.151006817817688,0.13389557600021362
1783693562755751000,0.6097509765625,0.015917977318167686,0.10441267490386963,0.12130122631788254
1783693562765714000,0.6197138671875,0.038354575634002686,0.04839947074651718,0.10331583768129349
1783693562775677000,0.629677001953125,0.05402358993887901,0.025023596361279488,0.08285955339670181
1783693562785639200,0.63963916015625,0.06111372262239456,0.024967404082417488,0.07338669151067734
1783693562795602200,0.649602294921875,0.0628611296415329,0.02449123002588749,0.07100886106491089
1783693562805564000,0.65956396484375,0.0619061142206192,0.0233620498329401,0.0759143978357315
1783693562815527000,0.66952685546875,0.05991661921143532,0.02825956605374813,0.08086171746253967
1783693562825490000,0.679489990234375,0.05829422175884247,0.05195290967822075,0.09233009070158005
1783693562835452200,0.6894521484375,0.051803603768348694,0.0761227160692215,0.10447169840335846
1783693562845415000,0.699414794921875,0.04401199147105217,0.08248447626829147,0.11354988068342209
1783693562855378000,0.7093779296875,0.0343746654689312,0.07445505261421204,0.10571016371250153
1783693562865340000,0.71933984375,0.024910589680075645,0.060917939990758896,0.0942537784576416
1783693562875303000,0.729302978515625,0.01716633141040802,0.048059433698654175,0.08142415434122086
1783693562885266200,0.73926611328125,0.013453352265059948,0.03664352744817734,0.06755680590867996
1783693562895228000,0.749227783203125,0.003475622273981571,0.03658358380198479,0.05681106448173523
1783693562905191000,0.75919091796875,-0.007329887244850397,0.03835378587245941,0.04562099277973175
1783693562915153200,0.769153076171875,-0.017240308225154877,0.024954888969659805,0.03281065821647644
1783693562925116200,0.7791162109375,-0.01991971582174301,0.01295308768749237,0.01993081346154213
1783693562935079000,0.789078857421875,-0.01468871720135212,0.0035366942174732685,0.00890505500137806
1783693562945041000,0.799041015625,-0.008141868747770786,-0.020861323922872543,-0.009117355570197105
1783693562955004000,0.80900390625,-0.0008374447352252901,-0.03890693187713623,-0.02892465889453888
1783693562964967000,0.818966796875,0.004269699566066265,-0.059872664511203766,-0.049060020595788956
1783693562974929000,0.828928955078125,0.010777526535093784,-0.08120114356279373,-0.0716479942202568
1783693562984892000,0.838891845703125,0.019583003595471382,-0.10349845886230469,-0.09693577140569687
1783693562994855000,0.84885498046875,0.029493417590856552,-0.06667356938123703,-0.10846812278032303
1783693563004817000,0.85881689453125,0.02628404274582863,0.01558428443968296,-0.11556357890367508
1783693563014780200,0.8687802734375,0.019184373319149017,0.020873356610536575,-0.12590278685092926
1783693563024742000,0.878741943359375,0.017229879274964333,-0.0009208889678120613,-0.14015042781829834
1783693563034705000,0.888704833984375,0.011168386787176132,-0.0036360016092658043,-0.14885427057743073
1783693563044668000,0.89866796875,0.02276032790541649,-0.008194268681108952,-0.1493844985961914
1783693563054630100,0.908630126953125,0.053548067808151245,-0.03572629392147064,-0.14682866632938385
1783693563064593200,0.91859326171875,0.07659665495157242,-0.04915981367230415,-0.125055730342865
1783693563074556000,0.928555908203125,0.07758874446153641,-0.012205024249851704,-0.08111931383609772
1783693563084518000,0.938517822265625,0.07568538188934326,0.04015298932790756,-0.03141114115715027
1783693563094481000,0.94848095703125,0.07073510438203812,0.030773641541600227,-0.005702650174498558
1783693563104443100,0.958443115234375,0.06148195266723633,0.001949982950463891,0.011178062297403812
1783693563114406000,0.968406005859375,0.04991842806339264,-0.010685401037335396,0.030618026852607727
1783693563124369000,0.978368896484375,0.03214741870760918,-0.001959819346666336,0.04627475142478943
1783693563134331000,0.988330810546875,0.013177705928683281,0.014770413748919964,0.06805860996246338
1783693563144294100,0.998294189453125,-0.0002664630301296711,0.01922321878373623,0.08369909226894379
1783693563154257200,1.008257080078125,-0.008194960653781891,0.024736229330301285,0.09793981164693832
1783693563164219000,1.018218994140625,-0.014618504792451859,0.028004193678498268,0.11518910527229309
1783693563174182000,1.028181884765625,-0.022689668461680412,0.01668124832212925,0.1310456246137619
1783693563184145000,1.038144775390625,-0.03406083583831787,0.01577816903591156,0.14410309493541718
1783693563194107100,1.048107177734375,-0.04270293936133385,0.009811898693442345,0.15159040689468384
1783693563204070000,1.05806982421875,-0.05771863833069801,0.015834104269742966,0.1488947570323944
1783693563214032000,1.068031982421875,-0.06121303141117096,0.024559147655963898,0.1450994312763214
1783693563223995000,1.077994873046875,-0.06248895078897476,0.0312921516597271,0.1389099806547165
1783693563233958000,1.0879580078125,-0.05825952813029289,0.050380364060401917,0.13120152056217194
1783693563243920000,1.097919921875,-0.05811651796102524,0.07651796191930771,0.11888626217842102
1783693563253883000,1.1078828125,-0.05912642180919647,0.08083944767713547,0.10928956419229507
1783693563263846000,1.117845947265625,-0.05220726132392883,0.07696401327848434,0.0949481800198555
1783693563273808100,1.12780810546875,-0.04369404539465904,0.06701420992612839,0.07723159343004227
1783693563283771100,1.137771240234375,-0.03679832071065903,0.05359454080462456,0.059219036251306534
1783693563293734100,1.147734130859375,-0.031065337359905243,0.03716709837317467,0.03808605298399925
1783693563303696000,1.15769580078125,-0.027099091559648514,0.01733507215976715,0.014177525416016579
1783693563313659000,1.167658935546875,-0.018289200961589813,0.0035947891883552074,-0.008278954774141312
1783693563323621000,1.17762109375,-0.015383158810436726,-0.0044077434577047825,-0.030753903090953827
1783693563333584100,1.187584228515625,-0.017105037346482277,-0.0003307705046609044,-0.040865425020456314
1783693563343547000,1.197546875,-0.025264428928494453,0.003005637787282467,-0.04029976949095726
1783693563353508900,1.2075087890625,-0.0370008684694767,0.012459364719688892,-0.038056015968322754
1783693563363472000,1.217471923828125,-0.04843568429350853,0.023775935173034668,-0.030795438215136528
1783693563373435100,1.22743505859375,-0.054697539657354355,0.03052087500691414,-0.020198864862322807
1783693563383396900,1.23739697265625,-0.05529089272022247,0.02011910080909729,-0.0027519632130861282
1783693563393360000,1.24735986328125,-0.05711264908313751,0.018197668716311455,0.014859028160572052
1783693563403323000,1.257322998046875,-0.061515387147665024,0.024690989404916763,0.028290947899222374
1783693563413284900,1.267284912109375,-0.06294678896665573,0.03386024758219719,0.04302547499537468
1783693563423248000,1.277247802734375,-0.06559823453426361,0.026776770129799843,0.046180520206689835
1783693563433209900,1.2872099609375,-0.06588530540466309,0.014636731706559658,0.04908289387822151
1783693563443172900,1.2971728515625,-0.0644455999135971,0.02184111624956131,0.05232209712266922
1783693563453136000,1.307135986328125,-0.05763817951083183,0.023121600970625877,0.05080786347389221
1783693563463097900,1.317097900390625,-0.05454704910516739,0.0019313609227538109,0.04032566025853157
1783693563473060900,1.327060791015625,-0.053272854536771774,-0.006458178162574768,0.026297423988580704
1783693563483024000,1.33702392578125,-0.04414220526814461,-0.004238699562847614,0.011140575632452965
1783693563492985900,1.34698583984375,-0.033333323895931244,-0.0019872207194566727,-0.0011500879190862179
1783693563502949000,1.35694921875,-0.028108738362789154,-0.006379039492458105,-0.014513564296066761
1783693563512910800,1.366910888671875,-0.022155242040753365,-0.006294617895036936,-0.027325499802827835
1783693563522873900,1.376873779296875,-0.02345379814505577,0.0064222426153719425,-0.038343265652656555
1783693563532836900,1.3868369140625,-0.0142292445525527,-0.0054445345886051655,-0.053057603538036346
1783693563542799000,1.396799072265625,-0.01022438332438469,-0.03308148682117462,-0.05923480540513992
1783693563552761900,1.406761962890625,-0.011839144863188267,-0.030080625787377357,-0.052371151745319366
1783693563562724900,1.416724853515625,-0.008373839780688286,-0.02159978821873665,-0.029854122549295425
1783693563572686800,1.426686767578125,-0.004255371168255806,-0.0186421200633049,-0.00837576761841774
1783693563582649900,1.43664990234375,-0.0011487937299534678,-0.005212065298110247,0.007985361851751804
1783693563592612900,1.44661279296875,0.0037359765265136957,0.0011238615261390805,0.021075863391160965
1783693563602574800,1.456574951171875,0.0011487153824418783,0.017692716792225838,0.02550683170557022
1783693563612537900,1.466537841796875,0.0007262688595801592,0.017576362937688828,0.025531750172376633
1783693563622499800,1.476499755859375,-0.0022189209703356028,0.02245846763253212,0.02008638344705105
1783693563632463000,1.486463134765625,-0.003052876563742757,0.015666333958506584,0.010136976838111877
1783693563642425900,1.49642578125,-0.0007692160434089601,0.0071218484081327915,-0.001733264303766191
1783693563652387800,1.506387939453125,-0.0038372548297047615,0.014917704276740551,-0.010476469062268734
1783693563662350800,1.516350830078125,-0.0038220747373998165,0.015637023374438286,-0.01951657049357891
1783693563672313900,1.52631396484375,-0.005874668713659048,0.014747303910553455,-0.028293726965785027
1783693563682275800,1.53627587890625,-0.004502075258642435,0.024480093270540237,-0.03326158970594406
1783693563692238800,1.54623876953125,-0.012550697661936283,0.020445924252271652,-0.03972321003675461
1783693563702200800,1.556200927734375,-0.018388614058494568,0.01156215276569128,-0.04106224700808525
1783693563712163800,1.566163818359375,-0.023556683212518692,0.018211467191576958,-0.032751936465501785
1783693563722126800,1.576126953125,-0.02913866937160492,0.02724357880651951,-0.024141669273376465
1783693563732088800,1.5860888671875,-0.02860204316675663,0.045029766857624054,-0.01886914297938347
1783693563742051800,1.5960517578125,-0.030184758827090263,0.04528915882110596,-0.0243613813072443
1783693563752014800,1.606014892578125,-0.032046325504779816,0.04479014128446579,-0.03549565374851227
1783693563761976800,1.615976806640625,-0.02953789196908474,0.04724797233939171,-0.04921093210577965
1783693563771940000,1.625940185546875,-0.02387894131243229,0.032716698944568634,-0.05987769365310669
1783693563781901800,1.63590185546875,-0.019147302955389023,0.027075856924057007,-0.06773082166910172
1783693563791864800,1.64586474609375,-0.016668761149048805,0.028800517320632935,-0.06840837746858597
1783693563801827800,1.655827880859375,-0.012318486347794533,0.030357666313648224,-0.07187874615192413
1783693563811790000,1.6657900390625,-0.007707893382757902,0.03480086475610733,-0.07234329730272293
1783693563821752800,1.6757529296875,-0.0008752871071919799,0.0430004708468914,-0.06959784775972366
1783693563831715800,1.6857158203125,0.0065258946269750595,0.048863980919122696,-0.07038354873657227
1783693563841677800,1.695677734375,0.012229320593178272,0.05500523000955582,-0.0681704580783844
1783693563851640800,1.705640869140625,0.015636594966053963,0.05957013741135597,-0.06311864405870438
1783693563861604000,1.71560400390625,0.015471478924155235,0.048755306750535965,-0.05712200701236725
1783693563871565800,1.72556591796875,0.011068388819694519,0.04405590891838074,-0.049026377499103546
1783693563881528800,1.73552880859375,0.007590299937874079,0.0464029498398304,-0.03603281453251839
1783693563891490800,1.74549072265625,0.00967081356793642,0.05445258319377899,-0.01637909561395645
1783693563901454000,1.7554541015625,0.015576106496155262,0.05469439923763275,0.0014017656212672591
1783693563911416800,1.765416748046875,0.020983364433050156,0.04684128984808922,0.011894826777279377
1783693563921378800,1.77537890625,0.021948494017124176,0.03209083899855614,0.015012056566774845
1783693563931341800,1.785341796875,0.024460239335894585,0.025588739663362503,0.014664084650576115
1783693563941304800,1.795304931640625,0.027606764808297157,0.018668781965970993,0.0024609481915831566
1783693563951267000,1.80526708984375,0.029678145423531532,0.001454393146559596,-0.004848957061767578
1783693563961229800,1.815229736328125,0.03479114919900894,-0.018051663413643837,-0.007977638393640518
1783693563971191800,1.82519189453125,0.03427891805768013,-0.04692725092172623,-0.005045073572546244
1783693563981154800,1.83515478515625,0.03098245896399021,-0.05349433794617653,-0.002230911049991846
1783693563991118000,1.8451181640625,0.02277076430618763,-0.04668969660997391,0.005415982101112604
1783693564001079800,1.855079833984375,0.012804149650037289,-0.032415419816970825,0.009172104299068451
1783693564011042800,1.865042724609375,0.00657707080245018,-0.03308708220720291,0.00823755469173193
1783693564021005800,1.875005859375,0.0002632483665365726,-0.03217947855591774,0.013374526053667068
1783693564030968000,1.884968017578125,-0.009261367842555046,-0.01860932633280754,0.020383320748806
1783693564040931000,1.89493115234375,-0.01776510663330555,-0.008699438534677029,0.016089240089058876
1783693564050893800,1.904893798828125,-0.02242288924753666,-0.01882798597216606,0.0031346718315035105
1783693564060855800,1.914855712890625,-0.022925693541765213,-0.018731048330664635,-0.00770705658942461
1783693564070818800,1.92481884765625,-0.025420673191547394,-0.00211663031950593,-0.01820647157728672
1783693564080781000,1.934781005859375,-0.021679997444152832,0.006461678072810173,-0.025158386677503586
1783693564090743800,1.944743896484375,-0.015087119303643703,0.00835439283400774,-0.03338921070098877
1783693564100706800,1.954706787109375,-0.013127831742167473,0.017871998250484467,-0.042383234947919846
1783693564110668800,1.964668701171875,-0.008274347521364689,0.0135909179225564,-0.05418400093913078
1783693564120631800,1.9746318359375,-0.009272500872612,0.010928821749985218,-0.0714077278971672
1783693564130595000,1.984594970703125,-0.014189383946359158,0.005305594764649868,-0.08516957610845566
1783693564140556800,1.994556884765625,-0.0204978808760643,-0.004861555062234402,-0.09706911444664001
1783693564150519800,2.004519775390625,-0.02559087425470352,-0.01612117886543274,-0.10046292096376419
1783693564160482000,2.01448193359375,-0.024767424911260605,-0.027598071843385696,-0.09650067239999771
1783693564170445000,2.024445068359375,-0.023936526849865913,-0.023919420316815376,-0.07890043407678604
1783693564180408000,2.034407958984375,-0.024498987942934036,-0.017238082364201546,-0.05926947668194771
1783693564190369800,2.044369873046875,-0.023314325138926506,-0.015107832849025726,-0.037914540618658066
1783693564200332800,2.054332763671875,-0.026195332407951355,-0.008261910639703274,-0.022798439487814903
1783693564210295800,2.0642958984375,-0.02513062208890915,0.00010313699021935463,-0.014977134764194489
1783693564220258000,2.074258056640625,-0.019929734990000725,0.002623818814754486,-0.01583200879395008
1783693564230220800,2.084220703125,-0.007110941223800182,-0.011104288510978222,-0.024334928020834923
1783693564240182800,2.094182861328125,0.003647430334240198,-0.02315535955131054,-0.02672058902680874
1783693564250145800,2.104145751953125,0.009539674036204815,-0.020646927878260612,-0.02456689067184925
1783693564260109000,2.114109130859375,0.013112038373947144,-0.028489405289292336,-0.024427073076367378
1783693564270070800,2.12407080078125,0.014886751770973206,-0.027608174830675125,-0.027761345729231834
1783693564280033800,2.13403369140625,0.014116299338638783,-0.01994306594133377,-0.030768586322665215
1783693564289996800,2.143996826171875,0.014584018848836422,-0.02522147446870804,-0.03802958130836487
1783693564299959000,2.153958984375,0.013683870434761047,-0.03702673688530922,-0.043909575790166855
1783693564309922000,2.163922119140625,0.011045658029615879,-0.05088634416460991,-0.049059975892305374
1783693564319883800,2.1738837890625,0.011661646887660027,-0.061938196420669556,-0.0554499626159668
1783693564329846800,2.1838466796875,0.010504339821636677,-0.05565020814538002,-0.053068455308675766
1783693564339809800,2.193809814453125,0.005068828351795673,-0.03989414870738983,-0.04369093477725983
1783693564349772000,2.20377197265625,-0.00015125120989978313,-0.0263059139251709,-0.02937723882496357
1783693564359734800,2.21373486328125,-0.0044724964536726475,-0.005401431117206812,-0.010005136951804161
1783693564369697800,2.22369775390625,-0.009036467410624027,0.014160050079226494,0.00948929600417614
1783693564379659800,2.23365966796875,-0.014550542458891869,0.021924497559666634,0.01809317246079445
1783693564389623000,2.243623046875,-0.015201624482870102,0.017062900587916374,0.017604265362024307
1783693564399585000,2.2535849609375,-0.020392127335071564,0.006339415907859802,0.016468161717057228
1783693564409548000,2.263548095703125,-0.0181551743298769,0.004318611696362495,0.014143646694719791
1783693564419511000,2.273510986328125,-0.013215276412665844,0.0037894416600465775,0.009302020072937012
1783693564429473000,2.28347314453125,-0.003934572450816631,-0.014096340164542198,-0.0006586320232599974
1783693564439436000,2.29343603515625,0.0072981081902980804,-0.028566624969244003,-0.01386072114109993
1783693564449399000,2.30339892578125,0.015989875420928,-0.043155983090400696,-0.02350396290421486
1783693564459361000,2.313361083984375,0.024147137999534607,-0.049340106546878815,-0.02957889996469021
1783693564469323800,2.32332373046875,0.034294649958610535,-0.057964712381362915,-0.023634474724531174
1783693564479286000,2.3332861328125,0.04123271629214287,-0.05682807415723801,-0.006350560113787651
1783693564489249000,2.3432490234375,0.05113020911812782,-0.038244593888521194,0.012080349959433079
1783693564499212000,2.3532119140625,0.05606025084853172,-0.021831801161170006,0.031287334859371185
1783693564509173800,2.363173828125,0.052898865193128586,-0.017276430502533913,0.04029040411114693
1783693564519137000,2.373136962890625,0.04613976180553436,-0.024397457018494606,0.035292450338602066
1783693564529100000,2.38310009765625,0.037612199783325195,-0.03648129478096962,0.022820763289928436
1783693564539062000,2.39306201171875,0.03053564950823784,-0.054808370769023895,0.008015984669327736
1783693564549025000,2.40302490234375,0.02169225551187992,-0.06987493485212326,-0.004636534955352545
1783693564558987000,2.412987060546875,0.008880052715539932,-0.07325554639101028,-0.008861640468239784
1783693564568950000,2.422949951171875,-0.002101132646203041,-0.06448972970247269,-0.003685478586703539
1783693564578913000,2.4329130859375,-0.014079231768846512,-0.0563947856426239,0.008647887036204338
1783693564588875000,2.442875,-0.024503780528903008,-0.04662206768989563,0.025429697707295418
1783693564598837800,2.452837646484375,-0.032485008239746094,-0.0179789736866951,0.04103235900402069
1783693564608800800,2.46280078125,-0.04218706488609314,-0.00815084483474493,0.052937861531972885
1783693564618763000,2.472762939453125,-0.057324472814798355,0.003368125297129154,0.06547735631465912
1783693564628726000,2.48272607421875,-0.06380029767751694,0.028567738831043243,0.07054796814918518
1783693564638688000,2.49268798828125,-0.06116509437561035,0.04227156564593315,0.06499180942773819
1783693564648651000,2.502651123046875,-0.05418797582387924,0.0342261977493763,0.05427800863981247
1783693564658614000,2.512614013671875,-0.0511101633310318,0.008215371519327164,0.034579671919345856
1783693564668576000,2.522575927734375,-0.04510943964123726,-0.006076229736208916,0.011360213160514832
1783693564678539000,2.5325390625,-0.03793647885322571,-0.015175186097621918,-0.009889415465295315
1783693564688502000,2.542501953125,-0.032046351581811905,-0.01305423304438591,-0.029553934931755066
1783693564698464000,2.552464111328125,-0.027412718161940575,-0.007990765385329723,-0.04551851749420166
1783693564708427000,2.562427001953125,-0.027892403304576874,-0.011056363582611084,-0.059593312442302704
1783693564718390000,2.57239013671875,-0.029269523918628693,-0.00883528683334589,-0.06712659448385239
1783693564728352000,2.58235205078125,-0.027037983760237694,-0.009113571606576443,-0.06795958429574966
1783693564738314800,2.592314697265625,-0.023200102150440216,-0.017203189432621002,-0.06112990900874138
1783693564748277000,2.602277099609375,-0.016845595091581345,-0.025425437837839127,-0.04913029074668884
1783693564758240000,2.612239990234375,-0.01377124059945345,-0.03331025689840317,-0.035177987068891525
1783693564768203000,2.622203125,-0.01366480067372322,-0.03274805098772049,-0.01791442558169365
1783693564778164700,2.632164794921875,-0.012589949183166027,-0.03082232177257538,-0.0027139009907841682
1783693564788128000,2.6421279296875,-0.010594545863568783,-0.033497463911771774,0.005205433815717697
1783693564798091000,2.652091064453125,-0.006286350078880787,-0.044925350695848465,0.009988203644752502
1783693564808053000,2.662052978515625,0.0022811912931501865,-0.05850052088499069,0.005068638361990452
1783693564818016000,2.67201611328125,0.010173735208809376,-0.07019472867250443,-0.008808295242488384
1783693564827978000,2.68197802734375,0.014494415372610092,-0.07780233770608902,-0.021868692710995674
1783693564837941000,2.69194091796875,0.012215814553201199,-0.08046123385429382,-0.026308981701731682
1783693564847904000,2.701904052734375,0.01136197242885828,-0.08213372528553009,-0.021185047924518585
1783693564857866000,2.711865966796875,0.012944422662258148,-0.0754140317440033,-0.01056516170501709
1783693564867829000,2.7218291015625,0.009464941918849945,-0.06727728247642517,0.0033775006886571646
1783693564877792000,2.7317919921875,-0.00027690071146935225,-0.05290606617927551,0.02186010591685772
1783693564887754000,2.74175390625,-0.016659174114465714,-0.03436273708939552,0.0314582958817482
1783693564897717000,2.751717041015625,-0.03268740698695183,-0.013490214943885803,0.0349973700940609
1783693564907679000,2.761678955078125,-0.0460967943072319,-0.0021041338331997395,0.03895898163318634
1783693564917642000,2.77164208984375,-0.05672919750213623,0.0003204081440344453,0.0400301031768322
1783693564927605000,2.78160498046875,-0.059143248945474625,0.0012144290376454592,0.03505675867199898
1783693564937567000,2.79156689453125,-0.05515303462743759,0.005112231709063053,0.026308542117476463
1783693564947530000,2.801530029296875,-0.04686218500137329,0.008329599164426327,0.01205945760011673
1783693564957493000,2.811492919921875,-0.03673045337200165,0.0020613165106624365,-0.009822139516472816
1783693564967455000,2.821455078125,-0.030980467796325684,-0.007979858666658401,-0.025237638503313065
1783693564977418000,2.83141796875,-0.030579661950469017,-0.007988381199538708,-0.031482480466365814
1783693564987380000,2.8413798828125,-0.029432235285639763,-0.007585424464195967,-0.03229651227593422
1783693564997343000,2.851343017578125,-0.02888069488108158,0.0019415011629462242,-0.025915047153830528
1783693565007306000,2.861305908203125,-0.030525291338562965,0.0115102119743824,-0.021533388644456863
1783693565017268000,2.87126806640625,-0.027271173894405365,0.019842443987727165,-0.019028954207897186
1783693565027231000,2.88123095703125,-0.025654084980487823,0.013608261942863464,-0.02567221410572529
1783693565037194000,2.891194091796875,-0.022005554288625717,0.0033870493061840534,-0.035089150071144104
1783693565047156000,2.901156005859375,-0.015542819164693356,-0.005368365440517664,-0.04798092320561409
1783693565057119000,2.911118896484375,-0.008423657156527042,-0.00840064138174057,-0.060171809047460556
1783693565067081000,2.9210810546875,-0.0032837127801030874,-0.006033363752067089,-0.06521711498498917
1783693565077044000,2.9310439453125,-0.004005962051451206,0.0025276336818933487,-0.06060265377163887
1783693565087007000,2.941007080078125,-0.006583858747035265,0.006433685310184956,-0.054832592606544495
1783693565096969000,2.950968994140625,-0.005272518377751112,0.003645622171461582,-0.04582738131284714
1783693565106932000,2.960931884765625,-0.004977792501449585,0.006790562532842159,-0.031054673716425896
1783693565116895000,2.97089501953125,-0.004685111343860626,0.02440710738301277,-0.00935470312833786
1783693565126857000,2.98085693359375,-0.008660894818603992,0.029669813811779022,0.010862136259675026
1783693565136820000,2.990820068359375,-0.013633016496896744,0.0273632500320673,0.024888472631573677
1783693565146782000,3.000781982421875,-0.021973254159092903,0.02825033664703369,0.035911303013563156
1783693565156745000,3.010744873046875,-0.02790224924683571,0.02963145263493061,0.04434207081794739
1783693565166708000,3.0207080078125,-0.02825617417693138,0.03137446194887161,0.0451328307390213
1783693565176670000,3.030669921875,-0.02452322095632553,0.021935686469078064,0.04201453551650047
1783693565186633000,3.040633056640625,-0.015146111138164997,0.006886704824864864,0.029687928035855293
1783693565196596000,3.050595947265625,-0.006401355378329754,0.003380386857315898,0.01703098975121975
1783693565206558000,3.060557861328125,-0.0013023207429796457,0.0001702035078778863,0.008480542339384556
1783693565216521000,3.07052099609375,0.00226578232832253,0.001659709494560957,0.0010926672257483006
1783693565226483000,3.08048291015625,0.0027228142134845257,0.0016418888699263334,-0.0053908079862594604
1783693565236446000,3.090446044921875,0.004305797163397074,-0.0083572156727314,-0.014393091201782227
1783693565246409000,3.100408935546875,0.006752959452569485,-0.019857022911310196,-0.016849584877490997
1783693565256371000,3.110370849609375,0.007218213751912117,-0.01970202662050724,-0.010248675011098385
1783693565266334000,3.120333984375,-0.00010091922740684822,-0.002733940025791526,0.006940687075257301
1783693565276297000,3.130296875,-0.003083393443375826,0.015902062878012657,0.026948750019073486
1783693565286259000,3.140259033203125,-0.011194349266588688,0.022439567372202873,0.03259599581360817
1783693565296222000,3.150221923828125,-0.013501445762813091,0.014073247089982033,0.02881190925836563
1783693565306184000,3.160183837890625,-0.013691160827875137,-0.0024641414638608694,0.02083263173699379
1783693565316147000,3.17014697265625,-0.01099790632724762,-0.01934991404414177,0.010883061215281487
1783693565326110000,3.18010986328125,-0.010261797346174717,-0.02388637326657772,0.010204555466771126
1783693565336072000,3.190072021484375,-0.011807229369878769,-0.016795972362160683,0.017522921785712242
1783693565346035000,3.200034912109375,-0.009803957305848598,-0.014643877744674683,0.02420991100370884
1783693565355998000,3.209998046875,-0.00975362304598093,-0.012971146032214165,0.027814766392111778
1783693565365960000,3.2199599609375,-0.0030719146598130465,-0.00834683608263731,0.02755388244986534
1783693565375923000,3.2299228515625,0.0004304084286559373,-0.004929201677441597,0.02297697402536869
1783693565385885000,3.239885009765625,0.004979200195521116,-0.01113865990191698,0.008915922604501247
1783693565395848200,3.24984814453125,0.005362961906939745,-0.019381674006581306,-0.00794614851474762
1783693565405811200,3.259811279296875,0.0027890123892575502,-0.02519581839442253,-0.023735634982585907
1783693565415773200,3.269773193359375,-0.0009916111594066024,-0.0233776792883873,-0.032149095088243484
1783693565425736200,3.279736083984375,-0.0018196201417595148,-0.013653168454766273,-0.03707300126552582
1783693565435699200,3.28969921875,0.0009583233040757477,-0.008873061276972294,-0.04016493260860443
1783693565445661200,3.2996611328125,0.002349112881347537,-0.010682426393032074,-0.04512069746851921
1783693565455624200,3.309624267578125,0.0055177416652441025,-0.02016700804233551,-0.043390706181526184
1783693565465586200,3.319586181640625,0.00492792809382081,-0.0235526692122221,-0.03975704312324524
1783693565475549200,3.329549072265625,0.00527254119515419,-0.01958082988858223,-0.03054356947541237
1783693565485512200,3.33951220703125,0.0003904874320141971,-0.010214795358479023,-0.014739451929926872
1783693565495474200,3.34947412109375,-0.0038769617676734924,0.005888274870812893,-0.002104083774611354
1783693565505437200,3.359437255859375,-0.01155647449195385,0.021008696407079697,0.006400054320693016
1783693565515399200,3.369399169921875,-0.020179525017738342,0.022977037355303764,0.005658896639943123
1783693565525362200,3.379362060546875,-0.025488922372460365,0.009891321882605553,-0.006369904614984989
1783693565535325200,3.3893251953125,-0.017842186614871025,-0.009277579374611378,-0.014597474597394466
1783693565545287200,3.399287109375,-0.013330214656889439,-0.018855644389986992,-0.01961428113281727
1783693565555250200,3.409250244140625,-0.007894170470535755,-0.014079531654715538,-0.013621635735034943
1783693565565213200,3.419213134765625,-0.006912905257195234,-0.006363593507558107,0.00043262861436232924
1783693565575175200,3.429175048828125,-0.009349698200821877,0.005495728924870491,0.011196060106158257
1783693565585138400,3.439138427734375,-0.012331459671258926,0.01548232976347208,0.014636751264333725
1783693565595101200,3.44910107421875,-0.021992076188325882,0.015165413729846478,0.006137806456536055
1783693565605063200,3.459063232421875,-0.02651377022266388,0.003711943980306387,-0.011236544698476791
1783693565615026200,3.469026123046875,-0.03126112371683121,-0.0019201092654839158,-0.017637982964515686
1783693565624988400,3.478988525390625,-0.03545786067843437,0.0030107535421848297,-0.02126271463930607
1783693565634951200,3.488951171875,-0.04035940766334534,0.002832854399457574,-0.023342112079262733
1783693565644914200,3.4989140625,-0.04150325059890747,0.00003918714355677366,-0.021459518000483513
1783693565654876200,3.508876220703125,-0.04421834647655487,-0.0058245607651770115,-0.016649847850203514
1783693565664839200,3.518839111328125,-0.04543425887823105,-0.010057934559881687,-0.011341524310410023
1783693565674801200,3.52880126953125,-0.0475354939699173,-0.007739120163023472,-0.009688765741884708
1783693565684764200,3.53876416015625,-0.04520220682024956,-0.01707959920167923,-0.0075576636008918285
1783693565694727200,3.54872705078125,-0.03973500430583954,-0.022160910069942474,-0.0017202806193381548
1783693565704689200,3.558689208984375,-0.03459317609667778,-0.013002295047044754,0.010605411604046822
1783693565714652400,3.56865234375,-0.035440593957901,0.0023854500614106655,0.025752941146492958
1783693565724615400,3.578615478515625,-0.03753647208213806,0.014221318997442722,0.035995520651340485
1783693565734577200,3.5885771484375,-0.04084092378616333,0.009204456582665443,0.035339582711458206
1783693565744540200,3.5985400390625,-0.03869032859802246,-0.00039754423778504133,0.03492256999015808
1783693565754502400,3.60850244140625,-0.038832277059555054,-0.0013855769066140056,0.03289111331105232
1783693565764465400,3.61846533203125,-0.03580988943576813,0.004915705882012844,0.030999213457107544
1783693565774428200,3.62842822265625,-0.03502292558550835,0.00743106147274375,0.03139336034655571
1783693565784390100,3.63839013671875,-0.03348630666732788,0.013593367300927639,0.0342378206551075
1783693565794353200,3.648353271484375,-0.032172832638025284,0.018488790839910507,0.030795153230428696
1783693565804316200,3.658316162109375,-0.027377847582101822,0.017394741997122765,0.021972112357616425
1783693565814278100,3.668278076171875,-0.02165817655622959,0.011367209255695343,0.002535297069698572
1783693565824241200,3.6782412109375,-0.017685342580080032,0.0035559162497520447,-0.014194265939295292
1783693565834203100,3.688203125,-0.008030318655073643,-0.006221081130206585,-0.028326064348220825
1783693565844166400,3.69816650390625,-0.000982632045634091,-0.01033539604395628,-0.04162360355257988
1783693565854129400,3.70812939453125,0.0041564698331058025,-0.005301755387336016,-0.04738721624016762
1783693565864091100,3.718091064453125,0.0012314440682530403,0.001090081874281168,-0.057831913232803345
1783693565874054100,3.72805419921875,-0.007806791923940182,0.004040331579744816,-0.06470606476068497
1783693565884017200,3.73801708984375,-0.020407788455486298,0.01567356288433075,-0.0586356595158577
1783693565893979400,3.7479794921875,-0.03502081707119942,0.03036249428987503,-0.041831377893686295
1783693565903942100,3.757942138671875,-0.04444906488060951,0.03834717348217964,-0.02557528018951416
1783693565913904000,3.767904052734375,-0.04952984303236008,0.03401980549097061,-0.021818092092871666
1783693565923867100,3.7778671875,-0.051450215280056,0.02467559278011322,-0.024616288021206856
1783693565933830100,3.787830078125,-0.048110343515872955,0.021020404994487762,-0.028447510674595833
1783693565943792000,3.797792236328125,-0.0447036437690258,0.014195818454027176,-0.035543836653232574
1783693565953755100,3.807755126953125,-0.04450390487909317,0.011225595138967037,-0.041686683893203735
1783693565963718100,3.81771826171875,-0.04017707332968712,0.0055796122178435326,-0.05416637659072876
1783693565973680400,3.827680419921875,-0.029380088672041893,-0.006545493844896555,-0.06472154706716537
1783693565983643400,3.837643310546875,-0.024708544835448265,-0.014520835131406784,-0.06961452960968018
1783693565993605000,3.847605224609375,-0.01183295901864767,0.003615291090682149,-0.055314429104328156
1783693566003568000,3.857568115234375,-0.011681011877954006,0.019440051168203354,-0.0343053825199604
1783693566013531100,3.86753125,-0.007284932304173708,0.02699171006679535,-0.02079703100025654
1783693566023493400,3.877493408203125,-0.004055995959788561,0.02990069054067135,-0.006439028307795525
1783693566033456400,3.887456298828125,-0.006324742920696735,0.03087487444281578,0.0015531181124970317
1783693566043418000,3.897418212890625,-0.007559069897979498,0.02812812477350235,0.0044290488585829735
1783693566053381000,3.907381103515625,-0.00659553799778223,0.016888519749045372,0.0028314185328781605
1783693566063344000,3.91734423828125,-0.004562942311167717,-0.0008678651647642255,-0.004004796501249075
1783693566073306400,3.927306396484375,-0.0054745422676205635,-0.015710460022091866,-0.0009102035546675324
1783693566083269000,3.93726904296875,-0.004110245034098625,-0.009077810682356358,0.0038950724992901087
1783693566093232000,3.947232177734375,-0.0026532295159995556,0.0016723055159673095,0.010931410826742649
1783693566103194000,3.957194091796875,-0.00501414155587554,0.0029889200814068317,0.018409915268421173
1783693566113157400,3.967157470703125,-0.0012265939731150866,0.002959092613309622,0.020302090793848038
1783693566123119000,3.977119140625,-0.003933192230761051,0.002049108734354377,0.022717248648405075
1783693566133082000,3.98708203125,-0.003645037766546011,-0.003172551281750202,0.020201358944177628
1783693566143045000,3.997045166015625,-0.0032678430434316397,-0.01491892896592617,0.013408207334578037
1783693566153007400,4.00700732421875,-0.004156539682298899,-0.023508422076702118,0.0077620395459234715
1783693566162970400,4.016970458984375,0.00013793341349810362,-0.02777140587568283,0.0007965191034600139
1783693566172933000,4.02693310546875,0.0025499581824988127,-0.02493300847709179,-0.005000383593142033
1783693566182895000,4.03689501953125,0.0073480126447975636,-0.02217637188732624,-0.005841035861521959
1783693566192858000,4.046858154296875,0.008110742084681988,-0.010866992175579071,-0.009905552491545677
1783693566202820400,4.0568203125,0.009765326045453548,0.0006605479284189641,-0.012781895697116852
1783693566212783400,4.066783447265625,0.0098896948620677,0.004462743178009987,-0.015028271824121475
1783693566222746000,4.07674609375,0.010058273561298847,0.0033245079685002565,-0.018812358379364014
1783693566232708000,4.0867080078125,0.010854026302695274,-0.009408065117895603,-0.026230592280626297
1783693566242671400,4.09667138671875,0.013109174557030201,-0.017369063571095467,-0.03075023926794529
1783693566252633300,4.10663330078125,0.016674615442752838,-0.013523459434509277,-0.02971666492521763
1783693566262596000,4.11659619140625,0.015728866681456566,-0.015509914606809616,-0.03140143305063248
1783693566272559000,4.12655908203125,0.013909927569329739,-0.016339490190148354,-0.031817950308322906
1783693566282521300,4.136521240234375,0.0120371263474226,-0.018784049898386,-0.029410963878035545
1783693566292484400,4.146484375,0.013934629037976265,-0.013250801712274551,-0.02696644887328148
1783693566302447400,4.156447265625,0.015193885192275047,-0.009495665319263935,-0.01822972111403942
1783693566312409000,4.1664091796875,0.01485060341656208,-0.010203001089394093,-0.006891845725476742
1783693566322372000,4.1763720703125,0.015482436865568161,-0.010187574662268162,0.0063455672934651375
1783693566332334300,4.186334228515625,0.015455005690455437,-0.006335046142339706,0.018442977219820023
1783693566342297300,4.19629736328125,0.011061394587159157,0.00507763959467411,0.02973862737417221
1783693566352260000,4.206260009765625,0.006493806838989258,0.012240476906299591,0.03375600650906563
1783693566362222000,4.21622216796875,0.0010347124189138412,0.011456185951828957,0.02824629470705986
1783693566372185300,4.226185302734375,-0.0013208534801378846,0.0063365246169269085,0.01584075763821602
1783693566382148400,4.2361484375,-0.0029593396466225386,-0.005445337854325771,0.0026221205480396748
1783693566392110600,4.246110595703125,-0.0009246845729649067,-0.007492776028811932,-0.008636126294732094
1783693566402073600,4.256073486328125,0.001149717252701521,-0.000934164272621274,-0.008560247719287872
1783693566412035600,4.26603564453125,0.002366249216720462,0.006991136819124222,-0.005066179670393467
1783693566421998600,4.27599853515625,0.004517435096204281,0.004989270120859146,-0.009696262888610363
1783693566431961600,4.285961669921875,0.006471662316471338,-0.006166977807879448,-0.017374156042933464
1783693566441923600,4.295923583984375,0.009722030721604824,0.0023468295112252235,-0.01649017259478569
1783693566451886300,4.30588623046875,0.0072729880921542645,0.01716705411672592,-0.009478600695729256
1783693566461849300,4.315849365234375,0.004216673318296671,0.012267395853996277,-0.007955126464366913
1783693566471811600,4.3258115234375,0.009409571066498756,-0.0016886332305148244,-0.012296611443161964
1783693566481774600,4.335774658203125,0.011523006483912468,-0.0072496142238378525,-0.006383844651281834
1783693566491736300,4.345736328125,0.010218057781457901,-0.007021646946668625,0.0014327995013445616
1783693566501699300,4.35569921875,0.009300615638494492,-0.006555582396686077,0.006973767187446356
1783693566511662600,4.36566259765625,0.009891836903989315,0.003057895926758647,0.013416220434010029
1783693566521624600,4.37562451171875,0.010995777323842049,0.008787158876657486,0.016863733530044556
1783693566531587600,4.385587646484375,0.008907060138881207,0.009621260687708855,0.007886483334004879
1783693566541549600,4.395549560546875,0.014504018239676952,0.0011385648977011442,-0.006169895641505718
1783693566551512600,4.4055126953125,0.0214490108191967,-0.007622169330716133,-0.020139774307608604
1783693566561475600,4.4154755859375,0.025154031813144684,-0.012954061850905418,-0.034425247460603714
1783693566571437600,4.4254375,0.029609767720103264,-0.009589157998561859,-0.03843037411570549
1783693566581400300,4.435400390625,0.03453961759805679,0.004604932852089405,-0.034733787178993225
1783693566591363300,4.44536328125,0.03294198587536812,0.014509228989481926,-0.027626344934105873
1783693566601325600,4.45532568359375,0.028684955090284348,0.010233812965452671,-0.026768818497657776
1783693566611288600,4.46528857421875,0.023455306887626648,0.0021873381920158863,-0.024421773850917816
1783693566621250300,4.475250244140625,0.016697414219379425,-0.005315860733389854,-0.024445844814181328
1783693566631213300,4.48521337890625,0.013791107572615147,-0.013087230734527111,-0.019147485494613647
1783693566641176600,4.495176513671875,0.013404726050794125,-0.014079531654715538,-0.006959205958992243
1783693566651138600,4.505138671875,0.015098229981958866,-0.0018769277958199382,0.00845170859247446
1783693566661101600,4.5151015625,0.01592857576906681,0.011555808596313,0.031101563945412636
1783693566671063300,4.525063232421875,0.01550140418112278,0.012310015968978405,0.047336459159851074
1783693566681026600,4.535026611328125,0.01444320660084486,0.010819927789270878,0.051799625158309937
1783693566690989600,4.544989501953125,0.01065459381788969,0.009675567038357258,0.048774272203445435
1783693566700951600,4.55495166015625,0.012767509557306767,0.008984564803540707,0.03776642307639122
1783693566710914600,4.56491455078125,0.014429056085646152,-0.0005817756755277514,0.022311033681035042
1783693566720877300,4.574877197265625,0.017189420759677887,-0.013204933144152164,0.008519398048520088
1783693566730839600,4.584839599609375,0.021459266543388367,-0.022858094424009323,-0.0011518715182319283
1783693566740802600,4.594802490234375,0.024545321241021156,-0.023930028080940247,-0.001013913773931563
1783693566750764500,4.6047646484375,0.02540578879415989,-0.012660328298807144,0.0009648147970438004
1783693566760727300,4.614727294921875,0.02388841100037098,-0.005839945748448372,-0.002520425245165825
1783693566770690600,4.624690673828125,0.020123234018683434,-0.005614909343421459,-0.00486959982663393
1783693566780652500,4.634652587890625,0.01703702099621296,-0.00601204764097929,-0.0024173837155103683
1783693566790615600,4.644615478515625,0.010925600305199623,-0.0034365043975412846,-0.0014890056336298585
1783693566800578600,4.65457861328125,0.0049518090672791,-0.0045155808329582214,-0.0054625654593110085
1783693566810540500,4.66454052734375,0.0018428348703309894,-0.004594410769641399,-0.006180287338793278
1783693566820503600,4.674503662109375,-0.0038911548908799887,-0.002505913842469454,-0.0012010011123493314
1783693566830465500,4.684465576171875,-0.0036781018134206533,-0.0018771416507661343,0.004412676207721233
1783693566840428500,4.694428466796875,-0.00470923725515604,-0.005248751491308212,0.0038775140419602394
1783693566850391600,4.7043916015625,-0.003237840486690402,-0.009680250659584999,-0.00098168954718858
1783693566860353500,4.714353515625,0.0035261334851384163,-0.014154838398098946,-0.001901844167150557
1783693566870316500,4.724316650390625,0.007282788399606943,-0.007680159993469715,0.0007176412036642432
1783693566880278500,4.734278564453125,0.004603144712746143,0.012119891121983528,0.010801232419908047
1783693566890241500,4.744241455078125,0.0025011117104440928,0.015027530491352081,0.014133645221590996
1783693566900204500,4.75420458984375,0.0032368525862693787,0.0001225894084200263,0.006943072658032179
1783693566910166500,4.76416650390625,0.0027462984435260296,-0.007305765524506569,-0.001368652912788093
1783693566920129500,4.774129638671875,0.0012866354081779718,-0.011669076979160309,-0.006894718389958143
1783693566930092500,4.784092529296875,0.0031875998247414827,-0.02215047925710678,-0.013057006523013115
1783693566940054500,4.794054443359375,0.001878064125776291,-0.014195356518030167,-0.003051827661693096
1783693566950017500,4.804017578125,0.0001249051420018077,0.0028901533223688602,0.01897837407886982
1783693566959979500,4.8139794921875,-0.005499719642102718,0.0032784603536128998,0.028251968324184418
1783693566969942500,4.823942626953125,-0.005033666267991066,-0.00974200014024973,0.025595199316740036
1783693566979905500,4.833905517578125,-0.004360053222626448,-0.0092528210952878,0.022483479231595993
1783693566989867500,4.843867431640625,-0.0027680150233209133,-0.006107627879828215,0.012873728759586811
1783693566999830500,4.85383056640625,0.00022756794351153076,-0.004065511282533407,0.004578565713018179
1783693567009793500,4.86379345703125,0.003998603671789169,-0.0005605249898508191,0.007378080859780312
1783693567019755500,4.873755615234375,0.002829432487487793,0.0059836674481630325,0.013291040435433388
1783693567029718300,4.88371826171875,0.0023620477877557278,0.002654982265084982,0.014707309193909168
1783693567039680500,4.893680419921875,0.0014860422816127539,-0.004265268333256245,0.01086352951824665
1783693567049643500,4.9036435546875,-0.004307930823415518,-0.0030053274240344763,0.0006106254295445979
1783693567059606500,4.9136064453125,-0.009315011091530323,-0.0023629479110240936,-0.015196152962744236
1783693567069568500,4.923568603515625,-0.01366475224494934,-0.0032479162327945232,-0.029843272641301155
1783693567079531500,4.933531494140625,-0.01491517759859562,-0.0003343932330608368,-0.042654260993003845
1783693567089493500,4.943493408203125,-0.014474957250058651,-0.011295964010059834,-0.0498993918299675
1783693567099456500,4.95345654296875,-0.015467211604118347,-0.02074384316802025,-0.05331529676914215
1783693567109419500,4.96341943359375,-0.0175817608833313,-0.020480455830693245,-0.0477820485830307
1783693567119381500,4.973381591796875,-0.020286286249756813,-0.004706497769802809,-0.03466004133224487
1783693567129344500,4.983344482421875,-0.02031930908560753,0.002849156502634287,-0.018178539350628853
1783693567139307500,4.9933076171875,-0.02288677915930748,0.005974321160465479,-0.0024545141495764256
1783693567149269500,5.00326953125,-0.024127278476953506,0.011222878471016884,0.010902037844061852
1783693567159232500,5.013232421875,-0.027005635201931,0.012052749283611774,0.017687704414129257
1783693567169194500,5.023194580078125,-0.025350213050842285,-0.0021365724969655275,0.014956366270780563
1783693567179157500,5.033157470703125,-0.01935928501188755,-0.015423359349370003,0.01113143190741539
1783693567189120500,5.04312060546875,-0.016262296587228775,-0.01793232373893261,0.013853448443114758
1783693567199082500,5.05308251953125,-0.012316524982452393,-0.014195351861417294,0.02403869666159153
1783693567209045500,5.06304541015625,-0.008066918700933456,-0.008951321244239807,0.028448890894651413
1783693567219007500,5.073007568359375,-0.005009121261537075,-0.007683384232223034,0.03039640374481678
1783693567228970500,5.082970458984375,-0.003411757294088602,-0.009553988464176655,0.028747374191880226
1783693567238933500,5.09293359375,-0.004461265169084072,-0.016334135085344315,0.018574688583612442
1783693567248895500,5.1028955078125,-0.0023168877232819796,-0.017164509743452072,0.007437615655362606
1783693567258858500,5.1128583984375,-0.004526886623352766,-0.021268213167786598,0.00430890079587698
1783693567268821500,5.122821533203125,-0.006434508599340916,-0.012903491035103798,0.0060197156853973866
1783693567278783500,5.132783447265625,-0.010273673571646214,-0.00642398651689291,0.008920946158468723
1783693567288746500,5.14274658203125,-0.015468435361981392,0.0008586939075030386,0.012923143804073334
1783693567298708500,5.15270849609375,-0.012947268784046173,0.0021542878821492195,0.01264246366918087
1783693567308671500,5.16267138671875,-0.008772231638431549,0.0026368526741862297,0.012060563080012798
1783693567318634500,5.172634521484375,-0.004750011023133993,0.0002853153273463249,0.012680264189839363
1783693567328596500,5.182596435546875,-0.002696980256587267,-0.0030308528803288937,0.005924622993916273
1783693567338559700,5.192559814453125,-0.00280477711930871,-0.009095091372728348,-0.0020494405180215836
1783693567348521500,5.202521484375,-0.002033791970461607,-0.01001068577170372,-0.010393391363322735
1783693567358484500,5.212484375,-0.0022186487913131714,-0.008947882801294327,-0.023858243599534035
1783693567368447500,5.222447509765625,-0.0011680317111313343,-0.015447327867150307,-0.03813997656106949
1783693567378409700,5.23240966796875,0.002410386223345995,-0.016170348972082138,-0.04451251029968262
1783693567388372500,5.24237255859375,0.005552649963647127,-0.0037256646901369095,-0.04469547048211098
1783693567398335500,5.25233544921875,0.004474467597901821,0.0016480411868542433,-0.036961741745471954
1783693567408297200,5.262297119140625,-0.003241242840886116,0.0006695958436466753,-0.03199148550629616
1783693567418260200,5.27226025390625,-0.005512665957212448,0.00054339156486094,-0.02550303004682064
1783693567428222500,5.282222412109375,-0.008904733695089817,-0.0010579671943560243,-0.022153573110699654
1783693567438185500,5.292185546875,-0.006935739889740944,-0.0024105776101350784,-0.022142551839351654
1783693567448148200,5.302148193359375,-0.0018459066050127149,-0.0020886012353003025,-0.019500961527228355
1783693567458110200,5.312110107421875,0.0010094719473272562,0.0005710521363653243,-0.016666535288095474
1783693567468073500,5.322073486328125,0.008736900053918362,0.002580673433840275,-0.012770596891641617
1783693567478035500,5.332035400390625,0.010893546976149082,-0.0016608907608315349,-0.01356723066419363
1783693567487998200,5.341998291015625,0.012780396267771721,-0.009603503160178661,-0.02022247016429901
1783693567497961200,5.351961181640625,0.012591244652867317,-0.011932789348065853,-0.02196434698998928
1783693567507923500,5.36192333984375,0.012171796523034573,-0.011616937816143036,-0.016701407730579376
1783693567517886500,5.371886474609375,0.010576540604233742,-0.012293055653572083,-0.016980374231934547
1783693567527849500,5.381849365234375,0.004598542582243681,-0.012949791736900806,-0.016182225197553635
1783693567537811200,5.391811279296875,-0.001514791394583881,-0.004620789550244808,-0.01439815666526556
1783693567547774200,5.401774169921875,-0.010397765785455704,0.010876410640776157,-0.01156588550657034
1783693567557736400,5.411736328125,-0.014287279918789864,0.020813219249248505,-0.016547605395317078
1783693567567699500,5.421699462890625,-0.016298498958349228,0.019785240292549133,-0.023892071098089218
1783693567577662200,5.431662109375,-0.012914654798805714,0.013912726193666458,-0.03204242140054703
1783693567587624200,5.441624267578125,-0.00853109173476696,0.009872444905340672,-0.038293659687042236
1783693567597587500,5.45158740234375,-0.001922967261634767,0.005298406817018986,-0.04308268800377846
1783693567607549400,5.461549560546875,0.0011412659659981728,0.001172371325083077,-0.0457351952791214
1783693567617512200,5.47151220703125,0.0013365242630243301,-0.00476058479398489,-0.04927615076303482
1783693567627475200,5.48147509765625,0.0023344107903540134,-0.00912177748978138,-0.047253478318452835
1783693567637437400,5.4914375,0.0009547739755362272,-0.005810145754367113,-0.03369063138961792
1783693567647400400,5.501400390625,-0.0010252862703055143,-0.006389916408807039,-0.02058894746005535
1783693567657363500,5.511363525390625,-0.007012632675468922,-0.005440214648842812,-0.0001649608602747321
1783693567667325200,5.5213251953125,-0.012184225022792816,0.0056955269537866116,0.02342691831290722
1783693567677288200,5.5312880859375,-0.019221525639295578,0.01797136664390564,0.03965206816792488
1783693567687250400,5.54125048828125,-0.02375023066997528,0.020945318043231964,0.045695047825574875
1783693567697213400,5.55121337890625,-0.024217676371335983,0.014765447936952114,0.04506675526499748
1783693567707176400,5.561176513671875,-0.020927604287862778,0.004943709820508957,0.033520087599754333
1783693567717138200,5.57113818359375,-0.012751184403896332,-0.004472972825169563,0.018856463953852654
1783693567727101400,5.581101318359375,-0.002411728026345372,-0.008587822318077087,0.007287691812962294
1783693567737063400,5.5910634765625,0.005152110476046801,-0.007629326079040766,-0.0016971345758065581
1783693567747026400,5.6010263671875,0.012483260594308376,-0.010141219943761826,-0.014879781752824783
1783693567756989200,5.6109892578125,0.017021166160702705,-0.008850395679473877,-0.02391119673848152
1783693567766951400,5.620951416015625,0.020588470622897148,0.0037538139149546623,-0.02335326373577118
1783693567776914400,5.63091455078125,0.017621176317334175,0.004258216358721256,-0.022355910390615463
1783693567786876400,5.64087646484375,0.017215311527252197,-0.005804004613310099,-0.03164714574813843
1783693567796839200,5.650839111328125,0.01505833026021719,-0.009546265006065369,-0.032508257776498795
1783693567806802200,5.66080224609375,0.01303858868777752,-0.0019147107377648354,-0.028600070625543594
1783693567816764400,5.670764404296875,0.010192512534558773,0.000889058574102819,-0.026047106832265854
1783693567826727400,5.6807275390625,0.009065195918083191,-0.004925154615193605,-0.017675992101430893
1783693567836690400,5.6906904296875,0.005454792641103268,0.006865185219794512,-0.0014751283451914787
1783693567846652200,5.700652099609375,0.002325578359887004,0.014973444864153862,0.007706652395427227
1783693567856615400,5.710615478515625,0.001812389469705522,0.006626873277127743,0.006858624052256346
1783693567866577400,5.720577392578125,0.005877971183508635,0.004195673391222954,0.0026321876794099808
1783693567876540400,5.73054052734375,0.006270860321819782,0.006403408944606781,0.003186512738466263
1783693567886503400,5.74050341796875,0.005928377620875835,0.005346133839339018,-0.001310234540142119
1783693567896465400,5.75046533203125,0.0065248506143689156,-0.0032337880693376064,-0.006799586117267609
1783693567906428400,5.760428466796875,0.0017079913523048162,-0.007371541578322649,-0.012582373805344105
1783693567916390400,5.770390380859375,0.0009946180507540703,-0.006650370545685291,-0.014972181059420109
1783693567926353400,5.780353515625,-0.0015194059815257788,-0.0021999627351760864,-0.015505346469581127
1783693567936316200,5.790316162109375,-0.0003550719702616334,0.0023460532538592815,-0.017214562743902206
1783693567946278400,5.8002783203125,0.0018383074784651399,0.004339962266385555,-0.014701603911817074
1783693567956241400,5.810241455078125,0.0026776946615427732,0.010024527087807655,-0.006746342405676842
1783693567966204400,5.820204345703125,0.0010877875611186028,0.013645094819366932,0.0012809571344405413
1783693567976166100,5.830166259765625,-0.001577074988745153,0.007179741282016039,0.0006741812685504556
1783693567986129400,5.84012939453125,-0.002843141555786133,0.0010789716616272926,-0.0014512876514345407
1783693567996091400,5.85009130859375,-0.006051541771739721,-0.0037381816655397415,-0.0020492044277489185
1783693568006054400,5.860054443359375,-0.005309851374477148,-0.004843126982450485,0.0002384509425610304
1783693568016017400,5.870017333984375,-0.003985239192843437,0.0006642967346124351,0.0019342945888638496
1783693568025979400,5.8799794921875,-0.001860302989371121,0.0016747000627219677,0.004307703580707312
1783693568035942400,5.8899423828125,0.0011116813402622938,0.003626000601798296,0.007731888443231583
1783693568045904400,5.899904296875,-0.0003754277713596821,0.005774105899035931,0.0094621442258358
1783693568055867400,5.909867431640625,-0.0030667027458548546,0.012390964664518833,0.009682831354439259
1783693568065830100,5.919830078125,-0.003771907649934292,0.013630665838718414,0.007965891622006893
1783693568075792400,5.92979248046875,-0.004579243250191212,0.002380961552262306,-0.0020962345879524946
1783693568085755400,5.93975537109375,-0.003631157800555229,-0.012015821412205696,-0.017222989350557327
1783693568095718400,5.949718505859375,-0.0026083127595484257,-0.014063541777431965,-0.028437338769435883
1783693568105680100,5.95968017578125,-0.0007771233795210719,-0.016326695680618286,-0.04381336644291878
1783693568115643100,5.96964306640625,0.009314245544373989,-0.01585450768470764,-0.04527986794710159
1783693568125605400,5.97960546875,0.01301870308816433,-0.014814542606472969,-0.043437227606773376
1783693568135568400,5.989568359375,0.01681891269981861,-0.011817164719104767,-0.03473784402012825
1783693568145531400,5.999531494140625,0.019895130768418312,-0.00789219792932272,-0.024478016421198845
1783693568155493400,6.009493408203125,0.0222739577293396,-0.003077442292124033,-0.009648432955145836
1783693568165456400,6.019456298828125,0.01932716928422451,0.0011489944299682975,0.0048362333327531815
1783693568175418400,6.02941845703125,0.01672211103141308,-0.0026619958225637674,0.02085653692483902
1783693568185381400,6.03938134765625,0.014772942289710045,-0.010646685026586056,0.03067001886665821
1783693568195344400,6.049344482421875,0.01215681154280901,-0.015508856624364853,0.03545595332980156
1783693568205306400,6.059306396484375,0.006832354236394167,-0.009630994871258736,0.045419368892908096
1783693568215269400,6.069269287109375,0.00029984296998009086,-0.009106610901653767,0.05091581121087074
1783693568225231400,6.0792314453125,-0.004075730685144663,-0.01141024474054575,0.048086732625961304
1783693568235194400,6.0891943359375,-0.005666437093168497,-0.013851298950612545,0.04121711105108261
1783693568245157000,6.0991572265625,-0.00763690983876586,-0.016117382794618607,0.03604711592197418
1783693568255119400,6.109119384765625,-0.0069838110357522964,-0.023978475481271744,0.028527189046144485
1783693568265082400,6.119082275390625,-0.007734289858490229,-0.0273207426071167,0.019484957680106163
1783693568275045400,6.12904541015625,-0.003831399604678154,-0.02760997787117958,0.012094481848180294
1783693568285007400,6.13900732421875,-0.005607994273304939,-0.01834617182612419,0.009355154819786549
1783693568294970400,6.148970458984375,-0.005106520839035511,-0.009615532122552395,0.012475846335291862
1783693568304932400,6.158932373046875,-0.0032039587385952473,-0.003489462658762932,0.010245981626212597
1783693568314895400,6.168895263671875,-0.0026397069450467825,0.0028358360286802053,0.006717173382639885
1783693568324858400,6.1788583984375,-0.0030080219730734825,0.003695770865306258,-0.0007306227926164865
1783693568334820400,6.1888203125,-0.0011071485932916403,0.00384141830727458,-0.011730581521987915
1783693568344783400,6.198783447265625,-0.0018720085499808192,0.002918899292126298,-0.030209725722670555
1783693568354745300,6.208745361328125,0.0003958676243200898,0.0016608471050858498,-0.04654886946082115
1783693568364708400,6.218708251953125,0.0016917618922889233,0.0017189040081575513,-0.058112580329179764
1783693568374671400,6.22867138671875,0.005965884309262037,-0.0034787761978805065,-0.06619714945554733
1783693568384633300,6.23863330078125,0.0078095910139381886,-0.0076753851026296616,-0.06231984868645668
1783693568394596600,6.2485966796875,0.00791957974433899,-0.00917341373860836,-0.04997769370675087
1783693568404558300,6.258558349609375,0.006980548612773418,-0.011077307164669037,-0.03639477491378784
1783693568414521300,6.268521240234375,0.00480740936473012,-0.006578163243830204,-0.022824637591838837
1783693568424484600,6.278484619140625,0.003451593918725848,-0.0006606188835576177,-0.013266819529235363
1783693568434446600,6.288446533203125,-0.00004444411024451256,-0.001294223591685295,-0.003447243943810463
1783693568444409300,6.298409423828125,0.0007435852312482893,-0.0057651386596262455,0.008702362887561321
1783693568454372400,6.308372314453125,0.0021346735302358866,-0.006585649214684963,0.02444281242787838
1783693568464334600,6.31833447265625,0.00301964208483696,-0.00828607752919197,0.03762971982359886
1783693568474297600,6.328297607421875,0.006747638341039419,-0.009206468239426613,0.04324856400489807
1783693568484259300,6.33825927734375,0.009033429436385632,-0.009153737686574459,0.04639269411563873
1783693568494222300,6.348222412109375,0.011387206614017487,-0.008801918476819992,0.04300892353057861
1783693568504185300,6.358185302734375,0.015282878652215004,-0.010007265023887157,0.03250381723046303
1783693568514147600,6.368147705078125,0.01839713379740715,-0.0057834843173623085,0.021215688437223434
1783693568524110600,6.378110595703125,0.020703697577118874,-0.00606151856482029,0.008111870847642422
1783693568534072300,6.388072265625,0.026962969452142715,-0.0048921313136816025,-0.00421264860779047
1783693568544035300,6.398035400390625,0.03139207139611244,-0.004689997527748346,-0.011638075113296509
1783693568553998600,6.40799853515625,0.03132055327296257,-0.0037323161959648132,-0.018292680382728577
1783693568563960600,6.417960693359375,0.024891681969165802,-0.00697471434250474,-0.027483515441417694
1783693568573923300,6.42792333984375,0.02256554365158081,-0.006114534102380276,-0.0332522839307785
1783693568583886300,6.43788623046875,0.015498046763241291,-0.0038684236351400614,-0.034105826169252396
1783693568593848600,6.4478486328125,0.004896105267107487,0.0007670720806345344,-0.030230820178985596
1783693568603811600,6.4578115234375,-0.0030688766855746508,-0.00022229226306080818,-0.02429463341832161
1783693568613773600,6.467773681640625,-0.006913221441209316,0.0033804569393396378,-0.013458351604640484
1783693568623736300,6.477736328125,-0.007859709672629833,0.006459869910031557,-0.003872569417580962
1783693568633699300,6.48769921875,-0.010241850279271603,0.009486249648034573,0.002731397282332182
1783693568643661600,6.49766162109375,-0.009240501560270786,0.011574700474739075,0.00956187304109335
1783693568653624600,6.50762451171875,-0.008233457803726196,0.012180568650364876,0.010613663122057915
1783693568663586300,6.51758642578125,-0.0035950299352407455,0.006309096701443195,0.004758436698466539
1783693568673549300,6.52754931640625,0.0064769890159368515,-0.0015040490543469787,-0.0020649745129048824
1783693568683512600,6.5375126953125,0.012569236569106579,-0.000045968336053192616,-0.004799508024007082
1783693568693474600,6.547474609375,0.016996607184410095,0.002224888652563095,-0.00912697333842516
1783693568703437600,6.5574375,0.021025169640779495,-0.0052812304347753525,-0.01433585025370121
1783693568713399300,6.5673994140625,0.026544984430074692,-0.010502633638679981,-0.01584756374359131
1783693568723362600,6.577362548828125,0.023431217297911644,-0.003322484903037548,-0.01220808643847704
1783693568733325600,6.58732568359375,0.019422823563218117,0.007706530392169952,-0.0055437246337533
1783693568743287600,6.59728759765625,0.015189462341368198,0.006967769470065832,-0.00021553784608840942
1783693568753250300,6.607250244140625,0.008931729011237621,0.005198900122195482,0.0021332623437047005
1783693568763212500,6.617212646484375,0.00020188724738545716,0.0072556594386696815,0.006841198541224003
1783693568773175600,6.627175537109375,-0.006830855738371611,0.00505853071808815,0.007601969875395298
1783693568783138600,6.637138671875,-0.007242580410093069,0.003687535412609577,0.005164644680917263
1783693568793100300,6.647100341796875,-0.008664384484291077,0.008106748573482037,-0.0000715348869562149
1783693568803063300,6.657063232421875,-0.008133084513247013,0.013812837190926075,-0.009128146804869175
1783693568813026300,6.6670263671875,-0.005139365326613188,0.014753203839063644,-0.023896921426057816
1783693568822988500,6.676988525390625,-0.00309991673566401,0.012114810757339,-0.03277856484055519
1783693568832951600,6.68695166015625,-0.000026553694624453783,0.008472687564790249,-0.039061449468135834
1783693568842913300,6.696913330078125,-0.0005277605960145593,0.0031844484619796276,-0.040806617587804794
1783693568852876500,6.70687646484375,0.002086620545014739,-0.003907542675733566,-0.04010013863444328
1783693568862839600,6.716839599609375,0.0018240329809486866,-0.0070287673734128475,-0.031812913715839386
1783693568872801500,6.726801513671875,-0.0055159940384328365,-0.007578164339065552,-0.01768895424902439
1783693568882764500,6.7367646484375,-0.014627199620008469,-0.008286830969154835,-0.0015187736134976149
1783693568892726500,6.7467265625,-0.02591511234641075,-0.00482232216745615,0.013662734068930149
1783693568902689500,6.756689453125,-0.03704898804426193,-0.00431099534034729,0.02795964851975441
1783693568912652500,6.766652587890625,-0.04656572267413139,-0.0032649310305714607,0.039196182042360306
1783693568922614500,6.776614501953125,-0.05138444900512695,-0.00137701618950814,0.046463679522275925
1783693568932577300,6.786577392578125,-0.049408867955207825,-0.0010707593755796552,0.05103664845228195
1783693568942539500,6.79653955078125,-0.0460711270570755,-0.0016752969240769744,0.05030721053481102
1783693568952502500,6.80650244140625,-0.03691404312849045,-0.0025336178950965405,0.043697554618120193
1783693568962465500,6.816465576171875,-0.025267239660024643,-0.006602927576750517,0.03038867563009262
1783693568972427300,6.82642724609375,-0.01339914370328188,-0.004673745483160019,0.01703053154051304
1783693568982390500,6.836390625,-0.003220542334020138,0.0006933229742571712,0.009794722311198711
1783693568992353500,6.846353515625,0.006405306048691273,0.003944253083318472,0.0018442226573824883
1783693569002315500,6.8563154296875,0.012422451749444008,0.00017215160187333822,-0.009493652731180191
1783693569012278500,6.866278564453125,0.01622631959617138,-0.001979666529223323,-0.021253064274787903
1783693569022240500,6.876240478515625,0.015316051431000233,0.0023610196076333523,-0.03316911309957504
1783693569032203500,6.88620361328125,0.014177030883729458,0.002285356167703867,-0.0446896106004715
1783693569042166500,6.89616650390625,0.012769550085067749,0.003065662458539009,-0.056055981665849686
1783693569052128500,6.90612841796875,0.018001139163970947,0.001097335945814848,-0.062137797474861145
1783693569062091300,6.91609130859375,0.021051790565252304,-0.003379970323294401,-0.062020353972911835
1783693569072053500,6.926053466796875,0.018009720370173454,0.00045658391900360584,-0.053656645119190216
1783693569082016500,6.9360166015625,0.01431245356798172,0.004481419455260038,-0.04298482462763786
1783693569091979500,6.9459794921875,0.007600829005241394,0.004811401013284922,-0.031466078013181686
1783693569101941500,6.95594140625,-0.00036868028109893203,0.005923803895711899,-0.022558337077498436
1783693569111904300,6.965904296875,-0.011132439598441124,0.0074308402836322784,-0.01956545002758503
1783693569121866500,6.975866455078125,-0.020179998129606247,-0.0016188472509384155,-0.023095736280083656
1783693569131829500,6.98582958984375,-0.02912987396121025,-0.006492169573903084,-0.032186754047870636
1783693569141792500,6.99579248046875,-0.040605172514915466,-0.004131278023123741,-0.04008195921778679
1783693569151754500,7.00575439453125,-0.053502559661865234,-0.0002608831273391843,-0.04801899194717407
1783693569161717500,7.015717529296875,-0.05558142438530922,-0.005837808828800917,-0.057901181280612946
1783693569171679500,7.025679443359375,-0.046099405735731125,-0.02767067216336727,-0.05957087501883507
1783693569181642500,7.035642578125,-0.029253844171762466,-0.051878806203603745,-0.05394947528839111
1783693569191605500,7.04560546875,-0.010423105210065842,-0.07097499817609787,-0.033915530890226364
1783693569201567500,7.0555673828125,-0.0010035047307610512,-0.06734271347522736,0.00010688416659832001
1783693569211530500,7.065530517578125,-0.002127672079950571,-0.045213475823402405,0.032011840492486954
1783693569221493500,7.075493408203125,-0.007771442644298077,-0.032528042793273926,0.04545441269874573
1783693569231455500,7.08545556640625,-0.015318882651627064,-0.047438234090805054,0.04614963009953499
1783693569241418200,7.095418212890625,-0.024482818320393562,-0.06966044753789902,0.038735922425985336
1783693569251380500,7.10538037109375,-0.03920099884271622,-0.08853907138109207,0.032782748341560364
1783693569261343500,7.115343505859375,-0.046412840485572815,-0.08055704087018967,0.039535991847515106
1783693569271306500,7.125306396484375,-0.06306082010269165,-0.06308113783597946,0.05312318354845047
1783693569281268500,7.1352685546875,-0.07181250303983688,-0.04202459007501602,0.0655529573559761
1783693569291231500,7.1452314453125,-0.07618081569671631,-0.03522499278187752,0.07046520709991455
1783693569301193500,7.155193359375,-0.07576429843902588,-0.03426811844110489,0.0653572604060173
1783693569311156500,7.165156494140625,-0.07054367661476135,-0.029431873932480812,0.055114082992076874
1783693569321119500,7.175119384765625,-0.06054936721920967,-0.01882050931453705,0.04046882688999176
1783693569331081500,7.18508154296875,-0.055283330380916595,-0.007594401948153973,0.024633942171931267
1783693569341044500,7.19504443359375,-0.04828187823295593,0.002852646168321371,0.00479978509247303
1783693569351006500,7.20500634765625,-0.04080375283956528,0.013075699098408222,-0.014446067623794079
1783693569360969500,7.214969482421875,-0.032006796449422836,0.008062032982707024,-0.04221058636903763
1783693569370932500,7.224932373046875,-0.017376989126205444,-0.0026047267019748688,-0.07516507804393768
1783693569380894500,7.23489453125,-0.0034755542874336243,-0.019651886075735092,-0.09967467933893204
1783693569390857200,7.244857177734375,0.0006684718537144363,-0.023680459707975388,-0.11550434678792953
1783693569400819200,7.254819091796875,-0.00028041243785992265,-0.009243996813893318,-0.12468825280666351
1783693569410782500,7.264782470703125,-0.0059985448606312275,0.007048419676721096,-0.12427791208028793
1783693569420745200,7.2747451171875,-0.008093121461570263,0.014656804502010345,-0.12011432647705078
1783693569430707200,7.284707275390625,-0.0068334308452904224,0.007711824495345354,-0.11365989595651627
1783693569440670200,7.294670166015625,-0.0022357492707669735,-0.005291325971484184,-0.10147859156131744
1783693569450633200,7.30463330078125,0.010540129616856575,-0.014177493751049042,-0.08398999273777008
1783693569460595200,7.31459521484375,0.015174828469753265,-0.019438302144408226,-0.06081622838973999
1783693569470558200,7.32455810546875,0.02030104398727417,-0.02078798972070217,-0.03684762120246887
1783693569480520200,7.334520263671875,0.02332373335957527,-0.01866704784333706,-0.012148932553827763
1783693569490483200,7.344483154296875,0.020580841228365898,-0.012076745741069317,0.010947410948574543
1783693569500446200,7.3544462890625,0.01168135367333889,-0.002788172336295247,0.028622809797525406
1783693569510408200,7.364408203125,0.003834320465102792,0.003921905532479286,0.04023260995745659
1783693569520371200,7.37437109375,-0.0012975907884538174,-0.003116829553619027,0.04482576251029968
1783693569530333200,7.384333251953125,-0.004047423135489225,-0.010416029952466488,0.052126720547676086
1783693569540296200,7.394296142578125,-0.005946789402514696,-0.006655912846326828,0.05423727631568909
1783693569550259200,7.40425927734375,-0.010527250356972218,0.0013876045122742653,0.053770650178194046
1783693569560221200,7.41422119140625,-0.013002924621105194,0.007883853279054165,0.04548901692032814
1783693569570184200,7.42418408203125,-0.010726780630648136,0.01079361792653799,0.029860209673643112
1783693569580146400,7.434146484375,-0.0026073353365063667,0.007116325665265322,0.013007458299398422
1783693569590109200,7.444109130859375,0.0047014751471579075,0.004743738099932671,-0.002301203552633524
1783693569600072200,7.454072265625,0.011330348439514637,0.004913115408271551,-0.013088869862258434
1783693569610034200,7.4640341796875,0.02088751830160618,0.0027274913154542446,-0.014384145848453045
1783693569619997200,7.4739970703125,0.026409048587083817,0.01492823101580143,-0.0045293839648365974
1783693569629959200,7.483959228515625,0.02366037108004093,0.02991914190351963,0.0007660603150725365
1783693569639922200,7.493922119140625,0.02076791226863861,0.036932311952114105,0.0020060280803591013
1783693569649885200,7.50388525390625,0.017129987478256226,0.032570816576480865,-0.0006877393461763859
1783693569659847200,7.51384716796875,0.016091354191303253,0.025609580799937248,-0.005161317531019449
1783693569669810200,7.52381005859375,0.01916990987956524,0.016605695709586143,-0.006893488112837076
1783693569679773400,7.5337734375,0.023249872028827667,0.003941830713301897,-0.009130544029176235
1783693569689735200,7.543735107421875,0.03183883801102638,-0.002450513420626521,-0.004787803627550602
1783693569699698200,7.5536982421875,0.033540595322847366,0.0028366600163280964,0.006034217309206724
1783693569709660400,7.563660400390625,0.03396107628941536,0.016553513705730438,0.012182937003672123
1783693569719623400,7.57362353515625,0.032306455075740814,0.02559388056397438,0.010312066413462162
1783693569729586200,7.583586181640625,0.03480790555477142,0.020539505407214165,0.004791204817593098
1783693569739548200,7.593548095703125,0.0394790880382061,0.01864013820886612,-0.0011742757633328438
1783693569749511200,7.60351123046875,0.042297497391700745,0.015954861417412758,-0.0029641790315508842
1783693569759473400,7.613473388671875,0.04708399623632431,0.014456034637987614,0.0022689325269311666
1783693569769436200,7.623436279296875,0.04866872727870941,0.016861658543348312,0.008898771367967129
1783693569779399200,7.633399169921875,0.04522685706615448,0.015392659232020378,0.019507206976413727
1783693569789361200,7.643361083984375,0.041471321135759354,0.01525467075407505,0.026502925902605057
1783693569799324200,7.65332421875,0.038712289184331894,0.012264739722013474,0.027336494997143745
1783693569809286100,7.6632861328125,0.03232727199792862,0.013519368134438992,0.018500013276934624
1783693569819249200,7.673249267578125,0.027558615431189537,0.010278567671775818,0.004379133693873882
1783693569829212200,7.683212158203125,0.02092125080525875,0.0036382649559527636,-0.015659835189580917
1783693569839174100,7.693174072265625,0.016378963366150856,-0.0018819354008883238,-0.032725635915994644
1783693569849137400,7.703137451171875,0.013387640938162804,0.0018848349573090672,-0.04262731969356537
1783693569859099100,7.71309912109375,0.012656336650252342,0.01586083695292473,-0.045019105076789856
1783693569869062100,7.723062255859375,0.01794263906776905,0.020067593082785606,-0.048571884632110596
1783693569879025200,7.733025146484375,0.021115528419613838,0.014340996742248535,-0.05394215136766434
1783693569888987400,7.7429873046875,0.01872335746884346,0.006505394354462624,-0.058388322591781616
1783693569898950100,7.7529501953125,0.012277175672352314,-0.0011919401586055756,-0.05877687782049179
1783693569908912000,7.762912109375,0.005286289379000664,-0.007580050732940435,-0.05374281480908394
1783693569918875100,7.772875244140625,0.0029493658803403378,-0.002968521323055029,-0.0420755073428154
1783693569928838100,7.782838134765625,-0.002285934053361416,0.004876122809946537,-0.025386404246091843
1783693569938800400,7.79280029296875,-0.007326499558985233,0.007260983344167471,-0.009674021042883396
1783693569948763100,7.80276318359375,-0.010503370314836502,0.010579518973827362,-0.001223472529090941
1783693569958726100,7.81272607421875,-0.015141265466809273,0.015034454874694347,0.0065601482056081295
1783693569968688000,7.822688232421875,-0.014847029000520706,0.007295356132090092,0.013082625344395638
1783693569978651400,7.8326513671875,-0.010226445272564888,0.0007306644110940397,0.016211573034524918
1783693569988613000,7.842613037109375,0.0009710664162412286,-0.007121452130377293,0.017366139218211174
1783693569998576000,7.852576171875,0.014842940494418144,-0.01216175127774477,0.020262593403458595
1783693570008539100,7.8625390625,0.021122615784406662,-0.007113426458090544,0.02527240291237831
1783693570018501400,7.87250146484375,0.028246836736798286,0.0059411232359707355,0.03308159112930298
1783693570028464400,7.88246435546875,0.030791930854320526,0.01090629305690527,0.03715405985713005
1783693570038426000,7.892426025390625,0.031457722187042236,0.008247925899922848,0.035074666142463684
1783693570048389000,7.90238916015625,0.03274766728281975,-0.008179503493010998,0.026323668658733368
1783693570058352000,7.91235205078125,0.029549479484558105,-0.019149595871567726,0.019140589982271194
1783693570068314400,7.922314453125,0.026725448668003082,-0.024634920060634613,0.014485925436019897
1783693570078277000,7.932277099609375,0.02569560334086418,-0.024763284251093864,0.014066210947930813
1783693570088239000,7.942239013671875,0.023250538855791092,-0.022679105401039124,0.015405254438519478
1783693570098202000,7.9522021484375,0.023732304573059082,-0.014227830804884434,0.01962263509631157
1783693570108165400,7.962165283203125,0.020181676372885704,-0.006919582840055227,0.026130760088562965
1783693570118127000,7.972127197265625,0.018511608242988586,0.0028875083662569523,0.03644625097513199
1783693570128090000,7.982090087890625,0.01680086739361286,0.008713987655937672,0.03914061188697815
1783693570138052400,7.99205224609375,0.015539593994617462,0.008572041057050228,0.03972917050123215
1783693570148015400,8.002015380859374,0.016479555517435074,0.005366373807191849,0.035159893333911896
1783693570157978400,8.011978271484375,0.01916029304265976,0.0006784115103073418,0.025341082364320755
1783693570167940000,8.021940185546875,0.02189447358250618,-0.0024704961106181145,0.013691769912838936
1783693570177903000,8.031903076171876,0.02110138349235058,-0.0051698763854801655,-0.00187893386464566
1783693570187865300,8.041865234375,0.021977001801133156,-0.00805166456848383,-0.018072882667183876
1783693570197828400,8.051828369140624,0.024031896144151688,-0.003819901729002595,-0.028711145743727684
1783693570207791400,8.061791259765625,0.024118389934301376,0.0012832428328692913,-0.03216158598661423
1783693570217753000,8.071753173828125,0.02184218540787697,0.005321926437318325,-0.03302977606654167
1783693570227716000,8.081716064453126,0.018534984439611435,0.00988815538585186,-0.03142286092042923
1783693570237679400,8.091679443359375,0.019440459087491035,0.014228309504687786,-0.026340220123529434
1783693570247641300,8.101641357421874,0.022563768550753593,0.017272042110562325,-0.023015053942799568
1783693570257604000,8.11160400390625,0.025385919958353043,0.010617601685225964,-0.018524963408708572
1783693570267566000,8.121566162109374,0.02914932183921337,-0.0018105854978784919,-0.009571036323904991
1783693570277529300,8.131529296875,0.029222823679447174,-0.005779228173196316,0.001115163555368781
1783693570287492400,8.141492431640625,0.03145226463675499,-0.007982688955962658,0.01292071957141161
1783693570297454000,8.1514541015625,0.029318004846572876,-0.0033906002063304186,0.02402796596288681
1783693570307417000,8.1614169921875,0.02495882473886013,0.0011061381082981825,0.03195955604314804
1783693570317379300,8.17137939453125,0.01791396364569664,0.00847297441214323,0.03640463948249817
1783693570327342300,8.18134228515625,0.011076328344643116,0.013497583568096161,0.038201991468667984
1783693570337305300,8.191305419921875,0.001928103854879737,0.019234830513596535,0.037187326699495316
1783693570347267000,8.20126708984375,-0.009627826511859894,0.02397948130965233,0.031497880816459656
1783693570357230000,8.21122998046875,-0.01610037311911583,0.021441755816340446,0.02357950434088707
1783693570367192300,8.2211923828125,-0.01742837205529213,0.013667997904121876,0.007969220168888569
1783693570377155300,8.2311552734375,-0.01388636790215969,-0.0030097817070782185,-0.010745878331363201
1783693570387118000,8.2411181640625,-0.015133365988731384,-0.010076251812279224,-0.028666585683822632
1783693570397080000,8.251080078125,-0.01275569573044777,-0.00749538280069828,-0.03827287629246712
1783693570407043000,8.26104296875,-0.012554802000522614,-0.0015226427931338549,-0.042206671088933945
1783693570417005000,8.271005126953124,-0.013868539594113827,0.010112442076206207,-0.03958159312605858
1783693570426968000,8.280968017578125,-0.01637507602572441,0.01832614466547966,-0.030600551515817642
1783693570436931000,8.29093115234375,-0.01799720712006092,0.021373333409428596,-0.021588679403066635
1783693570446893000,8.30089306640625,-0.018445182591676712,0.016514107584953308,-0.01433634478598833
1783693570456856000,8.31085595703125,-0.0152408666908741,0.012537741102278233,-0.005336991045624018
1783693570466818000,8.320818115234376,-0.01002935878932476,0.005730944685637951,0.001998432446271181
1783693570476781000,8.330781005859375,-0.004443644545972347,0.0003867794293910265,0.0091351717710495
1783693570486744000,8.340744140625,0.0020273507107049227,-0.0025123031809926033,0.017500141635537148
1783693570496706000,8.3507060546875,0.007080965209752321,-0.004304610658437014,0.019875148311257362
1783693570506669000,8.3606689453125,0.011179758235812187,-0.004488692153245211,0.020929524675011635
1783693570516631000,8.370631103515626,0.013408292084932327,-0.0011877041542902589,0.026774365454912186
1783693570526594000,8.380593994140625,0.015635615214705467,0.003311756532639265,0.03265305235981941
1783693570536557300,8.390557373046875,0.008467983454465866,0.0036558371502906084,0.032668765634298325
1783693570546519000,8.40051904296875,0.004798028618097305,-0.0006811298662796617,0.02979697659611702
1783693570556482000,8.41048193359375,0.0035865569952875376,-0.0017482585972175002,0.029726136475801468
1783693570566445000,8.420445068359374,-0.0044953227043151855,0.001739694969728589,0.028622783720493317
1783693570576407300,8.4304072265625,-0.006891901604831219,-0.00020308105740696192,0.023379551246762276
1783693570586370000,8.4403701171875,-0.006475575268268585,-0.009655156172811985,0.013993282802402973
1783693570596332000,8.45033203125,-0.0012067770585417747,-0.015034475363790989,0.010618791915476322
1783693570606295000,8.460294921875,0.004644009750336409,-0.00894250813871622,0.008874802850186825
1783693570616258000,8.470258056640626,0.006920746061950922,-0.005063081160187721,0.005634800530970097
1783693570626220000,8.480219970703125,0.010402134619653225,-0.003347700461745262,0.00034179637441411614
1783693570636183000,8.49018310546875,0.008227396756410599,0.004243373870849609,-0.004577861167490482
1783693570646145000,8.50014501953125,0.006388616282492876,0.011435444466769695,-0.012076538056135178
1783693570656108000,8.51010791015625,0.006536421366035938,0.0015055825933814049,-0.01775146834552288
1783693570666071300,8.5200712890625,0.009586570784449577,-0.011785432696342468,-0.02210468426346779
1783693570676033000,8.530032958984375,0.01534299273043871,-0.007801610045135021,-0.015540791675448418
1783693570685996000,8.53999609375,0.015549462288618088,-0.00124009745195508,-0.008534238673746586
1783693570695958000,8.5499580078125,0.016992894932627678,0.02031259983778,0.00626095337793231
1783693570705921300,8.55992138671875,0.014991825446486473,0.03186430782079697,0.013976994901895523
1783693570715884300,8.56988427734375,0.01497185230255127,0.027927357703447342,0.013126648031175137
1783693570725846000,8.579845947265625,0.016836687922477722,0.022117163985967636,0.008224869146943092
1783693570735809000,8.58980908203125,0.019569357857108116,0.013678673654794693,-0.003154818434268236
1783693570745771300,8.599771240234375,0.021965639665722847,0.00409420020878315,-0.01985016092658043
1783693570755734300,8.609734375,0.026284754276275635,-0.010624825023114681,-0.04188142716884613
1783693570765697000,8.619697021484376,0.0308028943836689,-0.017821723595261574,-0.05447414889931679
1783693570775659000,8.629658935546875,0.03224819526076317,-0.009231431409716606,-0.05468560382723808
1783693570785622000,8.6396220703125,0.032128408551216125,-0.0020547814201563597,-0.04699000343680382
1783693570795584300,8.649584228515625,0.03413642942905426,0.005606067832559347,-0.034206561744213104
1783693570805547000,8.659547119140624,0.02734290063381195,0.01604648306965828,-0.01998141221702099
1783693570815510000,8.669510009765625,0.0180191732943058,0.021268144249916077,-0.007417948916554451
1783693570825472000,8.679471923828125,0.007213709410279989,0.021708622574806213,-0.00009313307236880064
1783693570835435300,8.689435302734376,-0.0023885841947048903,0.017927199602127075,0.00009701657108962536
1783693570845397000,8.69939697265625,-0.005569848697632551,0.012964656576514244,-0.007233700715005398
1783693570855360000,8.709360107421874,-0.004045987967401743,0.008243671618402004,-0.012169870547950268
1783693570865323000,8.719322998046875,0.0018403816502541304,0.006969070993363857,-0.019507937133312225
1783693570875285200,8.72928515625,0.011211512610316277,-0.004267604555934668,-0.026416709646582603
1783693570885248300,8.739248291015626,0.023747678846120834,-0.01180060114711523,-0.03098021075129509
1783693570895211000,8.7492109375,0.029358426108956337,-0.013567608781158924,-0.03182070329785347
1783693570905173000,8.759173095703124,0.032233573496341705,-0.013055749237537384,-0.021690569818019867
1783693570915136000,8.769135986328125,0.029475605115294456,-0.011263974010944366,-0.010975075885653496
1783693570925098200,8.77909814453125,0.025169612839818,-0.004746179096400738,0.00294672092422843
1783693570935061000,8.78906103515625,0.020444098860025406,0.0024672590661793947,0.017122460529208183
1783693570945024000,8.79902392578125,0.012154449708759785,0.00730917090550065,0.03163715451955795
1783693570954986000,8.808986083984376,0.007865428924560547,0.011861578561365604,0.042182743549346924
1783693570964949200,8.81894921875,0.005328871309757233,0.01056008879095316,0.04304251819849014
1783693570974911000,8.828910888671874,0.005916631314903498,0.010588584467768669,0.041834507137537
1783693570984874000,8.8388740234375,0.009018606506288052,0.004923226311802864,0.03543888404965401
1783693570994837000,8.8488369140625,0.009189315140247345,-0.0042356508783996105,0.0261942520737648
1783693571004799200,8.85879931640625,0.014139896258711815,-0.012086360715329647,0.01463026087731123
1783693571014762200,8.86876220703125,0.01729520969092846,-0.016988441348075867,0.005716926883906126
1783693571024724000,8.878723876953124,0.023322798311710358,-0.013361169956624508,-0.0032512983307242393
1783693571034687000,8.88868701171875,0.024583006277680397,-0.005591929890215397,-0.012079144828021526
1783693571044650000,8.89864990234375,0.027422646060585976,-0.0006839765701442957,-0.021471697837114334
1783693571054612200,8.9086123046875,0.025329135358333588,-0.0020280738826841116,-0.029660917818546295
1783693571064575200,8.9185751953125,0.022003674879670143,-0.006962479557842016,-0.035664789378643036
1783693571074537000,8.928536865234374,0.017905335873365402,-0.009454665705561638,-0.03940599784255028
1783693571084500000,8.9385,0.01307581551373005,-0.007015426177531481,-0.03527408093214035
1783693571094463200,8.948463134765625,0.009724759496748447,-0.003827089909464121,-0.026706958189606667
1783693571104425200,8.95842529296875,0.00858210027217865,-0.0004968091379851103,-0.017661957070231438
1783693571114388000,8.968387939453125,0.007637743838131428,0.0012134728021919727,-0.013937791809439659
1783693571124350000,8.978349853515626,0.005051339510828257,0.004658849909901619,-0.010695158503949642
1783693571134313200,8.988313232421875,0.00046777306124567986,0.003130462020635605,-0.01059209369122982
1783693571144276200,8.998276123046875,-0.001166741130873561,0.0010518028866499662,-0.012543936260044575
1783693571154238000,9.008238037109376,0.0001480615173932165,-0.004138697870075703,-0.006829059217125177
1783693571164201000,9.018200927734375,0.003665564814582467,-0.0018491784576326609,0.005252370610833168
1783693571174163200,9.0281630859375,0.011037993244826794,-0.0018843321595340967,0.012201357632875443
1783693571184126200,9.038126220703125,0.01791563630104065,-0.005027371924370527,0.01785869523882866
1783693571194089200,9.048089111328125,0.021994533017277718,-0.009168587625026703,0.016327643766999245
1783693571204051000,9.058051025390625,0.021551206707954407,-0.004580507054924965,0.015307502821087837
1783693571214014000,9.068013916015625,0.02536511979997158,0.0001231676433235407,0.012972709722816944
1783693571223976200,9.07797607421875,0.030040550976991653,0.003279043361544609,0.014163069427013397
1783693571233939200,9.087939208984375,0.03442118316888809,0.00323989475145936,0.01724727638065815
1783693571243902200,9.097902099609374,0.033856622874736786,-0.0073376670479774475,0.018359212204813957
1783693571253864000,9.107864013671875,0.031987618654966354,-0.011371290311217308,0.014786846935749054
1783693571263827200,9.1178271484375,0.028647080063819885,-0.00801941566169262,0.007627564016729593
1783693571273789200,9.1277890625,0.027798863127827644,-0.010655146092176437,0.002316954778507352
1783693571283752200,9.137752197265625,0.02110777609050274,-0.005308893509209156,0.0013861015904694796
1783693571293715000,9.14771484375,0.01166021078824997,-0.006148321554064751,-0.001846709637902677
1783693571303677200,9.15767724609375,0.0041467975825071335,-0.009472210891544819,-0.006141697522252798
1783693571313640200,9.16764013671875,-0.007493612822145224,-0.008447959087789059,-0.0061249197460711
1783693571323603200,9.177603271484376,-0.01706451177597046,0.00010480103082954884,-0.007768421433866024
1783693571333565000,9.18756494140625,-0.017755335196852684,0.007036210037767887,-0.0026125411968678236
1783693571343528000,9.19752783203125,-0.018085462972521782,0.013022194616496563,0.003577552270144224
1783693571353490200,9.207490234375,-0.017550433054566383,0.01376308687031269,0.007781884633004665
1783693571363453200,9.217453125,-0.015696311369538307,0.010433092713356018,0.006872666068375111
1783693571373416200,9.227416259765626,-0.012762839905917645,0.010042673908174038,0.004223353695124388
1783693571383378000,9.2373779296875,-0.00476908078417182,0.0027512162923812866,-0.0004004347138106823
1783693571393341200,9.247341064453124,0.00844871997833252,-0.01169803086668253,-0.00822293758392334
1783693571403303000,9.257302978515625,0.015622329898178577,-0.019905658438801765,-0.01394269336014986
1783693571413266000,9.267265869140624,0.023276520892977715,-0.014520213007926941,-0.016841277480125427
1783693571423229000,9.27722900390625,0.02131107822060585,-0.007149099372327328,-0.017473045736551285
1783693571433191200,9.287191162109375,0.011883754283189774,-0.0011884116102010012,-0.015358230099081993
1783693571443154200,9.297154296875,0.000459901406429708,0.0023578882683068514,-0.00863137561827898
1783693571453116000,9.307115966796875,-0.009011630900204182,-0.002695726230740547,-0.007912854664027691
1783693571463079000,9.317078857421874,-0.009493069723248482,-0.011615796014666557,-0.007256173528730869
1783693571473042000,9.3270419921875,-0.007076517678797245,-0.010706325992941856,-0.0019887066446244717
1783693571483004200,9.337004150390625,-0.006849186960607767,0.0021786228753626347,0.00524238683283329
1783693571492967200,9.34696728515625,-0.009772539138793945,0.012394241988658905,0.008355622179806232
1783693571502929000,9.356928955078125,-0.011451809667050838,0.010754809714853764,0.007148511707782745
1783693571512892000,9.366891845703124,-0.009835004806518555,0.011321796104311943,0.0030967784114181995
1783693571522855200,9.376855224609375,-0.00846470519900322,0.01214684173464775,-0.0031839124858379364
1783693571532817200,9.386817138671875,-0.007340584881603718,0.005219160579144955,-0.016773490235209465
1783693571542780000,9.39677978515625,-0.0024210899136960506,-0.00003450049553066492,-0.031061694025993347
1783693571552742000,9.406741943359375,0.003275411669164896,-0.0014534327201545238,-0.03732971101999283
1783693571562705200,9.416705078125,0.004237256478518248,0.002057958859950304,-0.03521048277616501
1783693571572668200,9.426668212890625,0.006599214393645525,0.0014592802617698908,-0.03378302603960037
1783693571582630000,9.4366298828125,0.007412247825413942,-0.0038694203831255436,-0.03224271908402443
1783693571592593000,9.446593017578126,0.00763701880350709,-0.00202038767747581,-0.02960539236664772
1783693571602555100,9.45655517578125,0.0039639719761908054,-0.0024142805486917496,-0.02512754499912262
1783693571612518100,9.46651806640625,0.0009364905999973416,-0.003073679283261299,-0.017087196931242943
1783693571622481200,9.476481201171875,0.0026831990107893944,-0.005744301714003086,-0.007872176356613636
1783693571632443000,9.48644287109375,0.002258424647152424,-0.0039890119805932045,0.006532862316817045
1783693571642406000,9.496406005859376,0.00559003883972764,0.003950669430196285,0.01811867766082287
1783693571652368100,9.5063681640625,0.0058038909919559956,0.0018323914846405387,0.026216018944978714
1783693571662331100,9.5163310546875,0.00405592517927289,-0.0018030691426247358,0.032602906227111816
1783693571672294000,9.5262939453125,0.003635411849245429,-0.002627850277349353,0.03280370682477951
1783693571682256000,9.536255859375,0.006734487600624561,0.0006683511892333627,0.02843766286969185
1783693571692219100,9.54621923828125,0.009230668656527996,-0.0012877406552433968,0.019583184272050858
1783693571702181000,9.55618115234375,0.010393019765615463,-0.0049163480289280415,0.009434389881789684
1783693571712144000,9.566143798828126,0.013730227947235107,-0.00725593464449048,0.0002464844146743417
1783693571722107000,9.57610693359375,0.013315040618181229,-0.005679569207131863,-0.007674368564039469
1783693571732069000,9.586069091796874,0.015935324132442474,0.0010885887313634157,-0.014291258528828621
1783693571742032100,9.5960322265625,0.011680688709020615,0.007544872350990772,-0.01912323385477066
1783693571751993900,9.605993896484375,0.010960036888718605,0.010751583613455296,-0.020122451707720757
1783693571761956900,9.615956787109376,0.007362342439591885,0.01068977639079094,-0.01961803250014782
1783693571771920000,9.625919921875,0.007393768057227135,0.009331030771136284,-0.023493198677897453
1783693571781882000,9.635882080078124,0.005812160670757294,0.005117370747029781,-0.028855683282017708
1783693571791845000,9.64584521484375,0.006347988732159138,0.002873391145840287,-0.02874809317290783
1783693571801806800,9.655806884765624,0.0018884227611124516,0.004381050355732441,-0.02795172668993473
1783693571811769900,9.665769775390626,0.00039838405791670084,0.0068695079535245895,-0.026718683540821075
1783693571821733000,9.675733154296875,-0.003793327836319804,0.013525543734431267,-0.020723801106214523
1783693571831695000,9.685695068359376,-0.006557422690093517,0.0219134371727705,-0.011609397828578949
1783693571841658000,9.695658203125,-0.0064075905829668045,0.025082068517804146,-0.005695690400898457
1783693571851620900,9.705620849609375,-0.007829984650015831,0.015944229438900948,-0.0099919019266963
1783693571861583000,9.7155830078125,-0.0027232111897319555,0.010677256621420383,-0.014659653417766094
1783693571871546000,9.725546142578125,0.0018419793341308832,0.009419712238013744,-0.01923203282058239
1783693571881508000,9.735508056640626,0.01036177296191454,0.0070098331198096275,-0.02177104912698269
1783693571891470800,9.745470947265625,0.016552289947867393,0.005778920836746693,-0.025999348610639572
1783693571901433900,9.755433837890624,0.026171540841460228,0.00043423636816442013,-0.028767554089426994
1783693571911396000,9.76539599609375,0.028567319735884666,-0.005815936252474785,-0.025423688814044
1783693571921359000,9.775359130859375,0.025512123480439186,-0.008647995069622993,-0.023129558190703392
1783693571931320800,9.78532080078125,0.02312885969877243,-0.01260252296924591,-0.016965139657258987
1783693571941283800,9.795283935546875,0.01493033580482006,-0.0083304513245821,-0.00344630004838109
1783693571951247000,9.8052470703125,0.008092137053608894,0.000048652058467268944,0.012683134526014328
1783693571961209000,9.815208984375,0.002523897448554635,0.006605315487831831,0.02683434635400772
1783693571971172000,9.825172119140625,-0.005567318294197321,0.00495921541005373,0.039246007800102234
1783693571981133800,9.8351337890625,-0.007600420154631138,0.005747518036514521,0.03731862083077431
1783693571991097000,9.84509716796875,-0.008139177225530148,0.005717691034078598,0.026835886761546135
1783693572001060000,9.85506005859375,-0.010342233814299107,0.005352851469069719,0.014666191302239895
1783693572011022000,9.86502197265625,-0.007915294729173183,0.0021525309421122074,0.001741071231663227
1783693572020985000,9.874985107421875,-0.00560418888926506,-0.00459834560751915,-0.012276937253773212
1783693572030947000,9.884947021484376,-0.0017612471710890532,-0.01068127155303955,-0.022357534617185593
1783693572040910000,9.89491015625,0.002080302918329835,-0.001543130842037499,-0.025776097550988197
1783693572050873000,9.904873046875,-0.0017860742518678308,0.01919996365904808,-0.023188836872577667
1783693572060835000,9.9148349609375,-0.022535191848874092,0.007925735786557198,-0.0331481508910656
1783693572070797800,9.9247978515625,-0.009286763146519661,-0.0007329996442422271,-0.045399490743875504
1783693572080760000,9.934760009765625,-0.024989884346723557,-0.02824212796986103,-0.05717657506465912
1783693572090723000,9.94472314453125,-0.013416852802038193,-0.0017101180274039507,-0.06084560975432396
1783693572100686000,9.95468603515625,-0.021514475345611572,-0.0002368686255067587,-0.05427158996462822
1783693572110647800,9.964647705078125,-0.03527422994375229,-0.031018484383821487,-0.06365656852722168
1783693572120611000,9.974611083984374,-0.042633287608623505,-0.05396849662065506,-0.06578553467988968
1783693572130573000,9.984572998046875,-0.04767118766903877,-0.09203837811946869,-0.053670816123485565
1783693572140536000,9.9945361328125,-0.03622201830148697,-0.09557614475488663,-0.03446993604302406
1783693572150499000,10.0044990234375,-0.028979286551475525,-0.071199432015419,-0.010524392127990723
1783693572160461000,10.0144609375,-0.022955141961574554,-0.06958878040313721,0.01389665249735117
1783693572170424000,10.024424072265624,-0.020836597308516502,-0.07070305198431015,0.05015985295176506
1783693572180386000,10.034385986328125,-0.024942584335803986,-0.020361073315143585,0.08676059544086456
1783693572190349000,10.04434912109375,-0.03861978277564049,0.020238017663359642,0.11136926710605621
1783693572200311800,10.054311767578126,-0.05411005765199661,0.014357493259012699,0.10407461225986481
1783693572210274000,10.064274169921875,-0.058755677193403244,-0.00980323739349842,0.1037190705537796
1783693572220237000,10.074237060546874,-0.05391022935509682,-0.005987165961414576,0.1280106008052826
1783693572230199000,10.084198974609375,-0.04460834339261055,0.011094614863395691,0.15582944452762604
1783693572240161800,10.094161865234375,-0.03041965700685978,0.018976733088493347,0.158567413687706
1783693572250125000,10.104125,-0.020177138969302177,-0.0012374573852866888,0.14074315130710602
1783693572260087000,10.114087158203125,-0.008717291057109833,-0.043037593364715576,0.1271098256111145
1783693572270050000,10.124050048828124,0.004247243981808424,-0.03764921799302101,0.13084676861763
1783693572280011800,10.13401171875,0.012793252244591713,-0.014362780377268791,0.14041191339492798
1783693572289975000,10.14397509765625,0.010834497399628162,-0.003743691835552454,0.144108384847641
1783693572299938000,10.15393798828125,0.010708901099860668,-0.013877862133085728,0.13032591342926025
1783693572309900000,10.163900146484375,0.009195426478981972,-0.013068527914583683,0.1001158058643341
1783693572319863000,10.173863037109374,0.012764890678226948,-0.01352869812399149,0.05962615832686424
1783693572329825000,10.183824951171875,0.022458530962467194,-0.03245418518781662,0.012003245763480663
1783693572339788000,10.1937880859375,0.03623054921627045,-0.041231196373701096,-0.03384299948811531
1783693572349751000,10.2037509765625,0.048984695225954056,-0.029690386727452278,-0.0735563188791275
1783693572359713000,10.213713134765625,0.055988483130931854,-0.015914127230644226,-0.10079199075698853
1783693572369676000,10.223676025390626,0.05595545843243599,0.0021860478445887566,-0.11163026094436646
1783693572379638000,10.233637939453125,0.04979189857840538,0.02017730288207531,-0.11856453865766525
1783693572389601000,10.24360107421875,0.03529578074812889,0.025253821164369583,-0.1320800930261612
1783693572399564300,10.253564208984375,0.01626661978662014,0.02823023684322834,-0.14165888726711273
1783693572409526300,10.2635263671875,0.0025795698165893555,0.03423167020082474,-0.1406567394733429
1783693572419489300,10.2734892578125,0.0010169027373194695,0.02207830920815468,-0.1342354565858841
1783693572429451300,10.283451171875,0.0034257317893207073,0.006177106406539679,-0.1151730939745903
1783693572439414300,10.293414306640624,0.001014387933537364,0.005484900902956724,-0.08387191593647003
1783693572449377300,10.303377197265625,-0.007593747694045305,0.011455441825091839,-0.049577586352825165
1783693572459339300,10.31333935546875,-0.014662946574389935,0.016731472685933113,-0.02545805834233761
1783693572469302500,10.323302490234376,-0.016693072393536568,0.02038080245256424,-0.008509968407452106
1783693572479264300,10.33326416015625,-0.012616869993507862,0.028935693204402924,-0.010486366227269173
1783693572489227300,10.343227294921874,-0.006637274287641048,0.04384726658463478,-0.0036580213345587254
1783693572499190300,10.353190185546875,0.0007716409745626152,0.05601547285914421,0.012978826649487019
1783693572509152500,10.363152587890625,0.007567228749394417,0.043941766023635864,0.013905074447393417
1783693572519115500,10.373115478515626,0.026341479271650314,0.03170483186841011,-0.008519289083778858
1783693572529077200,10.3830771484375,0.037066828459501266,0.016023073345422745,-0.030924730002880096
1783693572539040300,10.393040283203124,0.03401584550738335,0.04118572175502777,-0.027199100703001022
1783693572549003300,10.403003173828125,0.018263516947627068,0.11820194125175476,0.003658946603536606
1783693572558965500,10.412965576171874,0.02610933966934681,0.07146447896957397,-0.03227643296122551
1783693572568928300,10.42292822265625,0.03263275325298309,0.03125660866498947,-0.046459097415208817
1783693572578890200,10.43289013671875,0.03333369642496109,-0.009366494603455067,-0.05150917172431946
1783693572588853200,10.442853271484376,0.036612048745155334,-0.01981886848807335,-0.05511908605694771
1783693572598816500,10.45281640625,0.02835988998413086,-0.03732403740286827,-0.05674540624022484
1783693572608778200,10.4627783203125,0.02162155881524086,-0.04398966580629349,-0.06463608890771866
1783693572618741200,10.4727412109375,0.00912958662956953,-0.045556966215372086,-0.07850991189479828
1783693572628703200,10.482703125,0.0032956667710095644,-0.060287173837423325,-0.0951104611158371
1783693572638666500,10.49266650390625,-0.007073987275362015,-0.08204786479473114,-0.10090453922748566
1783693572648629500,10.50262939453125,-0.010783504694700241,-0.07869361340999603,-0.07498505711555481
