time,seconds_elapsed,z,y,x
1783693547403577000,0.0685771484375,0.06845136731863022,-0.14342626929283142,0.2784709632396698
1783693547413540000,0.0785400390625,0.08378531783819199,-0.15645897388458252,0.25159671902656555
1783693547423502000,0.088502197265625,0.09599617123603821,-0.18752847611904144,0.22635313868522644
1783693547433465000,0.098465087890625,0.10233451426029205,-0.16819974780082703,0.21036693453788757
1783693547443428000,0.108427978515625,0.09123099595308304,-0.10048940777778625,0.211626335978508
1783693547453390000,0.11839013671875,0.05525956302881241,-0.006069463677704334,0.23144979774951935
1783693547463353000,0.12835302734375,0.010847356170415878,0.07744912803173065,0.23606932163238525
1783693547473315800,0.13831591796875,-0.010641917586326599,0.11147157102823257,0.20311161875724792
1783693547483278000,0.148278076171875,-0.008199266158044338,0.06881119310855865,0.13174423575401306
1783693547493241000,0.158240966796875,0.011262953281402588,-0.002032918855547905,0.049665775150060654
1783693547503204000,0.1682041015625,0.03016660362482071,-0.03839252516627312,-0.007922950200736523
1783693547513166000,0.178166015625,0.044858381152153015,-0.028183018788695335,-0.0415518544614315
1783693547523129000,0.188129150390625,0.04255501553416252,-0.004492601845413446,-0.055878862738609314
1783693547533092000,0.198092041015625,0.026867128908634186,-0.013205399736762047,-0.06653683632612228
1783693547543054000,0.20805419921875,0.013137736357748508,-0.02393367886543274,-0.06740768998861313
1783693547553017000,0.21801708984375,-0.001898698741570115,-0.009821565821766853,-0.05008303001523018
1783693547562980000,0.22797998046875,-0.018041716888546944,0.015745580196380615,-0.0185053963214159
1783693547572942000,0.237942138671875,-0.04075591638684273,0.012232072651386261,0.013810891658067703
1783693547582905000,0.247905029296875,-0.0665648803114891,-0.014962264336645603,0.04140017554163933
1783693547592868000,0.2578681640625,-0.08264635503292084,-0.025929737836122513,0.07014777511358261
1783693547602830000,0.267830078125,-0.0839393213391304,-0.003244931809604168,0.09922496229410172
1783693547612793000,0.27779296875,-0.06476107239723206,0.049055565148591995,0.12800255417823792
1783693547622756000,0.287756103515625,-0.04109622910618782,0.07917698472738266,0.14309974014759064
1783693547632718000,0.297718017578125,-0.02628239616751671,0.0899183377623558,0.16638769209384918
1783693547642681000,0.30768115234375,-0.032521117478609085,0.07561583071947098,0.19037185609340668
1783693547652644000,0.31764404296875,-0.042122382670640945,0.04744329676032066,0.18818967044353485
1783693547662606000,0.327606201171875,-0.04331548139452934,0.0259300135076046,0.1656217873096466
1783693547672569000,0.337569091796875,-0.03782414644956589,0.03293229267001152,0.1442641317844391
1783693547682532000,0.347531982421875,-0.02076100930571556,0.056071434170007706,0.12700791656970978
1783693547692494000,0.357494140625,-0.0026007257401943207,0.07671727985143661,0.12405500560998917
1783693547702457000,0.36745703125,0.005262523889541626,0.052965082228183746,0.1252206712961197
1783693547712420000,0.377420166015625,-0.002710940781980753,0.025564370676875114,0.1194693073630333
1783693547722382000,0.387382080078125,-0.012125748209655285,0.016315745189785957,0.11187690496444702
1783693547732345000,0.397344970703125,-0.02205188199877739,0.012534055858850479,0.10625497251749039
1783693547742308000,0.40730810546875,-0.031159892678260803,0.031149018555879593,0.11334031075239182
1783693547752270000,0.41727001953125,-0.04987907037138939,0.05771166831254959,0.12463067471981049
1783693547762233000,0.427233154296875,-0.074103444814682,0.07934931665658951,0.12453453242778778
1783693547772196000,0.437196044921875,-0.10200180858373642,0.09211388975381851,0.1251084804534912
1783693547782158000,0.447157958984375,-0.11828410625457764,0.07512664794921875,0.11212983727455139
1783693547792121000,0.45712109375,-0.1244066059589386,0.07070224732160568,0.09289649873971939
1783693547802084000,0.467083984375,-0.10173538327217102,0.04331829771399498,0.07498274743556976
1783693547812046000,0.477046142578125,-0.05683637410402298,0.038242120295763016,0.04211597517132759
1783693547822009000,0.487009033203125,-0.017159536480903625,0.06957820057868958,0.015733372420072556
1783693547831972000,0.49697216796875,0.010290550999343395,0.10026390850543976,-0.00952548161149025
1783693547841934000,0.50693408203125,0.025705724954605103,0.09084030985832214,-0.03436877951025963
1783693547851897000,0.51689697265625,0.04136291518807411,0.05925340577960014,-0.055637482553720474
1783693547861860000,0.526860107421875,0.06370656937360764,0.04645451903343201,-0.07125559449195862
1783693547871822000,0.536822021484375,0.08085379004478455,0.036878786981105804,-0.08304934203624725
1783693547881785000,0.54678515625,0.09020362049341202,0.031531427055597305,-0.08755753934383392
1783693547891748000,0.556748046875,0.10197832435369492,0.01293118018656969,-0.08588220924139023
1783693547901710000,0.5667099609375,0.12791912257671356,-0.01984833925962448,-0.0792195126414299
1783693547911673000,0.576673095703125,0.1472722589969635,-0.03048236295580864,-0.06353827565908432
1783693547921636000,0.586635986328125,0.1536467969417572,-0.02325480803847313,-0.037090424448251724
1783693547931598000,0.59659814453125,0.13738447427749634,-0.010248462669551373,-0.006086437497287989
1783693547941561000,0.60656103515625,0.118681900203228,0.005813860800117254,0.017702247947454453
1783693547951524000,0.616524169921875,0.10182312875986099,0.0024004578590393066,0.025950487703084946
1783693547961486000,0.626486083984375,0.08667613565921783,-0.0011644497280940413,0.02862217091023922
1783693547971449000,0.636448974609375,0.07960685342550278,-0.0016390373930335045,0.03014400601387024
1783693547981412000,0.646412109375,0.07025276869535446,0.0003322344273328781,0.027492830529808998
1783693547991374000,0.6563740234375,0.059044282883405685,0.017164990305900574,0.023217124864459038
1783693548001337000,0.666337158203125,0.04756898805499077,0.021378908306360245,0.00497074332088232
1783693548011300000,0.676300048828125,0.03570343554019928,0.0002877952065318823,-0.019651461392641068
1783693548021262000,0.686261962890625,0.029308918863534927,-0.006553599610924721,-0.030118748545646667
1783693548031225000,0.69622509765625,0.020761583000421524,-0.0008301850175485015,-0.03582025691866875
1783693548041188000,0.70618798828125,0.015465089119970798,-0.006247054785490036,-0.043460335582494736
1783693548051150000,0.716150146484375,0.012332024984061718,-0.003508002031594515,-0.052133023738861084
1783693548061113000,0.726113037109375,0.013687573373317719,-0.00887933187186718,-0.05922528728842735
1783693548071076000,0.736076171875,0.008765419013798237,-0.02098369039595127,-0.060340408235788345
1783693548081038000,0.7460380859375,0.00048511894419789314,-0.004419893957674503,-0.054311275482177734
1783693548091001000,0.7560009765625,-0.0046843430027365685,0.00850895419716835,-0.05428704246878624
1783693548100964000,0.765964111328125,-0.00809345580637455,0.0009474411490373313,-0.062433917075395584
1783693548110926000,0.775926025390625,-0.0021684332750737667,-0.019850265234708786,-0.05801061913371086
1783693548120889000,0.78588916015625,0.0049933395348489285,-0.009981122799217701,-0.045930519700050354
1783693548130852000,0.79585205078125,0.00990285538136959,0.007239425554871559,-0.03563639149069786
1783693548140814000,0.80581396484375,0.008239444345235825,0.003270250279456377,-0.022956015542149544
1783693548150777000,0.815777099609375,0.008233582600951195,0.010556153953075409,-0.008769413456320763
1783693548160740000,0.825739990234375,0.012705296277999878,0.01748410053551197,0.0011407419806346297
1783693548170702000,0.8357021484375,0.016565529629588127,-0.0005127531476318836,-0.0014273429987952113
1783693548180665000,0.8456650390625,0.020173579454421997,-0.021134141832590103,-0.0018859392730519176
1783693548190627000,0.855626953125,0.016530722379684448,-0.018037671223282814,-0.00038919132202863693
1783693548200590000,0.865590087890625,0.018373096361756325,-0.00862366147339344,-0.004603111185133457
1783693548210553000,0.875552978515625,0.013158752582967281,-0.018034227192401886,-0.011471773497760296
1783693548220515000,0.88551513671875,0.010405310429632664,-0.00933314673602581,-0.007501799613237381
1783693548230478000,0.89547802734375,0.018984254449605942,0.023122262209653854,0.00154692935757339
1783693548240441000,0.905441162109375,0.025430435314774513,0.018777847290039062,-0.0008049082243815064
1783693548250403000,0.915403076171875,0.02594803273677826,-0.003512552473694086,-0.006430941633880138
1783693548260366000,0.925365966796875,0.025305410847067833,-0.014816871844232082,-0.006352645345032215
1783693548270329000,0.9353291015625,0.024231214076280594,-0.01979963853955269,0.0025725127197802067
1783693548280291000,0.945291015625,0.02047828771173954,-0.016881879419088364,0.01256469264626503
1783693548290254000,0.955254150390625,0.019010474905371666,-0.013734281063079834,0.022201446816325188
1783693548300217000,0.965217041015625,0.013414641842246056,-0.018389219418168068,0.02444196492433548
1783693548310179000,0.975178955078125,-0.0031708073802292347,-0.02133149467408657,0.023199813440442085
1783693548320142000,0.98514208984375,-0.01368976105004549,-0.016179610043764114,0.010617709718644619
1783693548330105000,0.99510498046875,-0.0124022476375103,-0.013801121152937412,-0.0055049629881978035
1783693548340067000,1.005067138671875,-0.00622131722047925,-0.0021263561211526394,-0.013383125886321068
1783693548350030000,1.015030029296875,0.0001341948809567839,-0.008714492432773113,-0.022823337465524673
1783693548359993000,1.0249931640625,-0.0017470621969550848,-0.014298074878752232,-0.02533496543765068
1783693548369954800,1.034954833984375,-0.005570790730416775,-0.008574388921260834,-0.024587951600551605
1783693548379917800,1.044917724609375,-0.009496290236711502,-0.013026129454374313,-0.02695656754076481
1783693548389880800,1.054880859375,-0.014742322266101837,-0.007770453579723835,-0.027724619954824448
1783693548399842800,1.0648427734375,-0.014052296988666058,-0.004416468553245068,-0.030362479388713837
1783693548409805800,1.074805908203125,-0.0091480677947402,-0.01622542180120945,-0.02859019860625267
1783693548419768800,1.084768798828125,-0.007927007973194122,-0.021198341622948647,-0.02275468036532402
1783693548429730800,1.094730712890625,-0.003455567639321089,-0.024488886818289757,-0.014056910760700703
1783693548439693800,1.10469384765625,-0.0011852228781208396,-0.019318360835313797,-0.002718236530199647
1783693548449656800,1.11465673828125,0.0006489228690043092,-0.007933923974633217,0.005440204404294491
1783693548459618800,1.124618896484375,0.000532276404555887,0.0005405207630246878,0.011650430038571358
1783693548469581800,1.134581787109375,0.0017344077350571752,0.012371070683002472,0.015525063499808311
1783693548479544800,1.144544921875,0.003013523994013667,0.017907515168190002,0.016502710059285164
1783693548489506800,1.1545068359375,0.0036309254355728626,0.005782159045338631,0.011306668631732464
1783693548499469800,1.1644697265625,0.005591544788330793,-0.016213688999414444,0.006413909140974283
1783693548509432800,1.174432861328125,0.010421780869364738,-0.01984250545501709,0.006203305907547474
1783693548519394800,1.184394775390625,0.015073258429765701,-0.013001378625631332,0.004383035469800234
1783693548529357800,1.19435791015625,0.016547195613384247,-0.015912754461169243,0.004991461522877216
1783693548539320800,1.20432080078125,0.016726160421967506,-0.008716360665857792,0.002956273965537548
1783693548549282800,1.21428271484375,0.015463268384337425,-0.0025444955099374056,0.001720035565085709
1783693548559245800,1.224245849609375,0.005432473495602608,-0.004141326993703842,-0.005375690758228302
1783693548569208800,1.234208740234375,-0.003346659243106842,0.00043613126035779715,-0.010487150400876999
1783693548579170800,1.2441708984375,-0.005646032746881247,0.0035253979731351137,-0.01067303866147995
1783693548589133800,1.2541337890625,-0.012656336650252342,0.0018564184429123998,-0.010593520477414131
1783693548599095800,1.264095703125,-0.02051851898431778,-0.007661985233426094,-0.013027383014559746
1783693548609058800,1.274058837890625,-0.027514008805155754,-0.018570827320218086,-0.011612338945269585
1783693548619021800,1.284021728515625,-0.034436631947755814,-0.022791406139731407,-0.005141390487551689
1783693548628983800,1.29398388671875,-0.04195306822657585,-0.012555303052067757,0.007215254474431276
1783693548638946800,1.30394677734375,-0.0478367917239666,0.003214338794350624,0.013888869434595108
1783693548648909800,1.313909912109375,-0.0428556352853775,0.0022292248904705048,0.01780717819929123
1783693548658871800,1.323871826171875,-0.04045186936855316,0.001048379228450358,0.019870862364768982
1783693548668834800,1.333834716796875,-0.03178844228386879,-0.00567074678838253,0.01825602538883686
1783693548678797800,1.3437978515625,-0.026102595031261444,-0.006060633342713118,0.014131320640444756
1783693548688759800,1.353759765625,-0.021611476317048073,-0.006530169863253832,0.011865240521728992
1783693548698722800,1.363722900390625,-0.02062663994729519,-0.00409550778567791,0.011358973570168018
1783693548708685800,1.373685791015625,-0.02018183097243309,0.011650409549474716,0.011917013674974442
1783693548718647800,1.383647705078125,-0.018354367464780807,0.013931140303611755,0.01569710485637188
1783693548728610800,1.39361083984375,-0.015202539041638374,0.014448875561356544,0.017709335312247276
1783693548738573800,1.40357373046875,-0.012538312934339046,0.008692719042301178,0.010968341492116451
1783693548748535800,1.413535888671875,-0.01311421301215887,-0.012180586345493793,-0.0006498605944216251
1783693548758498800,1.423498779296875,-0.01613956317305565,-0.022493410855531693,-0.010304352268576622
1783693548768461800,1.4334619140625,-0.01854800246655941,-0.016775622963905334,-0.015743697062134743
1783693548778423800,1.443423828125,-0.015643293038010597,-0.008248447440564632,-0.015879517421126366
1783693548788386800,1.45338671875,-0.01906592585146427,-0.003434247337281704,-0.012612299993634224
1783693548798349800,1.463349853515625,-0.012180855497717857,-0.005599663592875004,-0.012091118842363358
1783693548808312000,1.47331201171875,-0.009115598164498806,-0.007467598654329777,-0.007493491750210524
1783693548818274800,1.48327490234375,-0.005521130282431841,0.0053217001259326935,0.009317181073129177
1783693548828237800,1.49323779296875,-0.00521050114184618,0.021489722654223442,0.019895417615771294
1783693548838199800,1.50319970703125,-0.0026235063560307026,0.020113667473196983,0.019056254997849464
1783693548848162800,1.513162841796875,0.005392731167376041,0.007638895884156227,0.018185507506132126
1783693548858125800,1.523125732421875,0.008761630393564701,0.0004369090311229229,0.01742331124842167
1783693548868087800,1.533087890625,0.01189541257917881,-0.013096482492983341,0.010524180717766285
1783693548878050800,1.54305078125,0.011772374622523785,-0.028370777145028114,-0.0009393965592607856
1783693548888012800,1.5530126953125,0.011036373674869537,-0.027753669768571854,-0.0052944691851735115
1783693548897975800,1.562975830078125,0.007400625851005316,-0.012316656298935413,-0.006175177171826363
1783693548907938800,1.572938720703125,0.007795740384608507,-0.00216737505979836,0.004153311252593994
1783693548917900800,1.58290087890625,0.00959949940443039,0.010548686608672142,0.013104994781315327
1783693548927863800,1.59286376953125,0.009434767067432404,0.018132340162992477,0.02055390365421772
1783693548937826800,1.602826904296875,0.005934308748692274,0.014939210377633572,0.020985867828130722
1783693548947788800,1.612788818359375,0.0010679183760657907,0.013906940817832947,0.019874855875968933
1783693548957751800,1.622751708984375,-0.0020333328284323215,0.00396988820284605,0.011853414587676525
1783693548967714800,1.63271484375,-0.00766321737319231,-0.010916894301772118,-0.00019659404642879963
1783693548977676800,1.6426767578125,-0.00850131455808878,-0.04095655307173729,-0.01703576184809208
1783693548987639800,1.652639892578125,-0.00794034544378519,-0.03680364787578583,-0.016140243038535118
1783693548997602800,1.662602783203125,-0.00002649641828611493,-0.008999980986118317,-0.003836438525468111
1783693549007564800,1.672564697265625,0.006552474107593298,0.006938507780432701,0.008807877078652382
1783693549017527800,1.68252783203125,0.005681354086846113,0.010896497406065464,0.013636721298098564
1783693549027490800,1.69249072265625,0.007654981222003698,0.011332463473081589,0.007828312925994396
1783693549037453000,1.702453125,0.009798559360206127,0.003320609452202916,0.00708236126229167
1783693549047415800,1.712415771484375,0.012102093547582626,-0.005414851009845734,0.003962150774896145
1783693549057378800,1.72237890625,0.013313032686710358,-0.003015076043084264,0.0030683940276503563
1783693549067340800,1.7323408203125,0.015093432739377022,-0.010458036325871944,0.0023330901749432087
1783693549077303800,1.7423037109375,0.011543439701199532,-0.01528102159500122,-0.0019633874762803316
1783693549087266800,1.752266845703125,0.010909263975918293,-0.016848601400852203,-0.011928399093449116
1783693549097228800,1.762228759765625,0.007561137899756432,-0.02542291395366192,-0.015901833772659302
1783693549107191800,1.77219189453125,0.005539654288440943,-0.02407880686223507,-0.014192778617143631
1783693549117154800,1.78215478515625,0.006346059497445822,-0.001193731906823814,-0.006608895026147366
1783693549127116800,1.79211669921875,0.016507597640156746,0.0214974544942379,-0.002566748298704624
1783693549137079800,1.802079833984375,0.02303900010883808,0.02011207863688469,0.003543608821928501
1783693549147042800,1.812042724609375,0.02450232021510601,0.008014176972210407,0.00437834532931447
1783693549157004800,1.8220048828125,0.01932486891746521,-0.000249611446633935,0.00697892252355814
1783693549166967800,1.8319677734375,0.011835653334856033,-0.001878952607512474,0.011777035892009735
1783693549176930800,1.841930908203125,0.010114984586834908,-0.0025881521869450808,0.0188453309237957
1783693549186892800,1.851892822265625,0.009675296023488045,0.003362947376444936,0.021887194365262985
1783693549196855800,1.861855712890625,0.013594137504696846,0.008185399696230888,0.022551652044057846
1783693549206818800,1.87181884765625,0.019789207726716995,0.007986949756741524,0.01670585572719574
1783693549216780800,1.88178076171875,0.020130092278122902,0.0010696554090827703,0.0036955156829208136
1783693549226744000,1.891744140625,0.021377554163336754,-0.0003500276943668723,0.000006449059583246708
1783693549236706800,1.901706787109375,0.02369397133588791,0.007550239562988281,-0.0025115697644650936
1783693549246668800,1.911668701171875,0.01858951523900032,0.003643604926764965,-0.0029969550669193268
1783693549256631800,1.9216318359375,0.018859826028347015,0.005953098181635141,-0.0030302442610263824
1783693549266594000,1.931593994140625,0.026186363771557808,0.010949200950562954,0.004418510477989912
1783693549276556800,1.941556884765625,0.029848743230104446,0.011370246298611164,0.010364550165832043
1783693549286519800,1.951519775390625,0.03447150066494942,0.006830056197941303,0.01359533704817295
1783693549296481800,1.961481689453125,0.03377481922507286,0.008631951175630093,0.014849952422082424
1783693549306444800,1.97144482421875,0.029517363756895065,0.013564170338213444,0.012147695757448673
1783693549316407800,1.98140771484375,0.021630944684147835,0.012261352501809597,0.003661532886326313
1783693549326369800,1.991369873046875,0.017632927745580673,0.0013282629661262035,-0.007566673215478659
1783693549336332800,2.001332763671875,0.020894233137369156,-0.007036193273961544,-0.0124578345566988
1783693549346295800,2.0112958984375,0.02429773472249508,-0.0012803137069568038,-0.011385379359126091
1783693549356257800,2.0212578125,0.026695910841226578,0.001539441291242838,-0.00951610691845417
1783693549366220800,2.031220703125,0.028307922184467316,-0.007741169072687626,-0.012422895058989525
1783693549376183800,2.041183837890625,0.026811491698026657,-0.0175985936075449,-0.017829643562436104
1783693549386145500,2.0511455078125,0.032197631895542145,-0.023296665400266647,-0.023766787722706795
1783693549396108500,2.061108642578125,0.03407782316207886,-0.03913794457912445,-0.0277042705565691
1783693549406071600,2.071071533203125,0.03748038038611412,-0.03557809814810753,-0.022057197988033295
1783693549416033800,2.08103369140625,0.04619957134127617,-0.013274125754833221,-0.007676661480218172
1783693549425996800,2.090996826171875,0.05462390556931496,0.011834162287414074,0.009645816870033741
1783693549435959800,2.100959716796875,0.058048997074365616,0.02569032460451126,0.02008993551135063
1783693549445921500,2.110921630859375,0.05261576175689697,0.02802220731973648,0.022220037877559662
1783693549455884800,2.120884765625,0.04156284034252167,0.01725504733622074,0.024179058149456978
1783693549465847800,2.130847900390625,0.031279128044843674,0.000028376001864671707,0.020211055874824524
1783693549475809800,2.140809814453125,0.022195084020495415,-0.008099591359496117,0.01887361705303192
1783693549485772500,2.1507724609375,0.01462633814662695,-0.014812855049967766,0.01980374939739704
1783693549495735600,2.160735595703125,0.009288830682635307,-0.028335321694612503,0.016948839649558067
1783693549505697800,2.17069775390625,0.006557023618370295,-0.02674170769751072,0.014187783934175968
1783693549515660800,2.180660888671875,0.003704511560499668,-0.00740422960370779,0.015087133273482323
1783693549525623800,2.190623779296875,0.0031721473205834627,0.017149528488516808,0.015454755164682865
1783693549535585500,2.20058544921875,0.001340425107628107,0.025363251566886902,0.009687679819762707
1783693549545548800,2.210548828125,0.000019046026864089072,0.026916448026895523,0.008413624949753284
1783693549555511800,2.22051171875,-0.003952259663492441,0.026339873671531677,0.006654340773820877
1783693549565473800,2.230473876953125,-0.005557940807193518,0.013991323299705982,-0.00024010357446968555
1783693549575436500,2.2404365234375,-0.012662721797823906,-0.0006403500447049737,-0.009749186225235462
1783693549585399600,2.250399658203125,-0.012876983731985092,-0.003552268724888563,-0.01599147543311119
1783693549595361800,2.26036181640625,-0.017837120220065117,-0.001171668991446495,-0.01478586345911026
1783693549605324800,2.27032470703125,-0.02133335918188095,-0.0006731193279847503,-0.018634984269738197
1783693549615287800,2.280287841796875,-0.020856652408838272,-0.011094867251813412,-0.02303532510995865
1783693549625249500,2.29024951171875,-0.02556491829454899,-0.014072258956730366,-0.026478100568056107
1783693549635212500,2.300212646484375,-0.02588369883596897,-0.00451657036319375,-0.022056719288229942
1783693549645175800,2.31017578125,-0.02370377629995346,-0.006583734881132841,-0.02080221101641655
1783693549655137800,2.3201376953125,-0.025644157081842422,-0.019324030727148056,-0.018828274682164192
1783693549665100800,2.330100830078125,-0.01727316714823246,-0.021929649636149406,-0.016767416149377823
1783693549675063600,2.3400634765625,-0.009013372473418713,-0.022960292175412178,-0.013231270015239716
1783693549685025800,2.35002587890625,-0.00835180189460516,-0.028566785156726837,-0.01327675674110651
1783693549694988800,2.35998876953125,-0.007124617230147123,-0.024570446461439133,-0.009867111220955849
1783693549704951800,2.369951904296875,-0.006948459893465042,-0.010691373609006405,-0.011092592030763626
1783693549714913500,2.37991357421875,-0.008151676505804062,0.0024537229910492897,-0.009443562477827072
1783693549724876500,2.38987646484375,-0.011360825039446354,0.009429319761693478,-0.01285507157444954
1783693549734839600,2.399839599609375,-0.014377121813595295,0.008999219164252281,-0.021503953263163567
1783693549744801800,2.4098017578125,-0.018995393067598343,0.006543264724314213,-0.029294870793819427
1783693549754764800,2.419764892578125,-0.019721634685993195,0.0033919464331120253,-0.03459935635328293
1783693549764727600,2.4297275390625,-0.020475493744015694,0.00033995136618614197,-0.037086643278598785
1783693549774689800,2.439689697265625,-0.0188261978328228,0.0014917685184627771,-0.032990433275699615
1783693549784652800,2.44965283203125,-0.017652850598096848,-0.01127837598323822,-0.024512527510523796
1783693549794615800,2.45961572265625,-0.0162845179438591,-0.026524705812335014,-0.014267613179981709
1783693549804577500,2.46957763671875,-0.014700982719659805,-0.030775075778365135,-0.005719451233744621
1783693549814540500,2.47954052734375,-0.01666559837758541,-0.021006066352128983,0.00683442410081625
1783693549824503600,2.489503662109375,-0.01819007284939289,-0.01214118953794241,0.017397211864590645
1783693549834465800,2.4994658203125,-0.02136962115764618,0.003576786257326603,0.02650468982756138
1783693549844428800,2.5094287109375,-0.020768361166119576,0.00944557972252369,0.03204428032040596
1783693549854391800,2.519391845703125,-0.02062295190989971,-0.001690694480203092,0.029375260695815086
1783693549864353500,2.529353515625,-0.020736586302518845,-0.021067067980766296,0.027405159547924995
1783693549874316800,2.53931689453125,-0.020679859444499016,-0.02404128760099411,0.02574840746819973
1783693549884279800,2.54927978515625,-0.01880013942718506,-0.013539372943341732,0.027880320325493813
1783693549894241800,2.55924169921875,-0.018314111977815628,-0.018272075802087784,0.02834610641002655
1783693549904204500,2.56920458984375,-0.019558383151888847,-0.01745770126581192,0.027412137016654015
1783693549914167600,2.57916748046875,-0.01879165880382061,-0.010972372256219387,0.02923773229122162
1783693549924129800,2.5891298828125,-0.01848369464278221,-0.007757379207760096,0.032890044152736664
1783693549934092800,2.5990927734375,-0.019897833466529846,-0.005765335168689489,0.031090281903743744
1783693549944055800,2.609055908203125,-0.0216054730117321,-0.009245856665074825,0.02216182090342045
1783693549954017500,2.619017578125,-0.023510964587330818,-0.010425637476146221,0.00935467891395092
1783693549963980800,2.628980712890625,-0.026694998145103455,-0.008785376325249672,-0.004902819637209177
1783693549973943800,2.63894384765625,-0.02925083413720131,-0.011023229919373989,-0.015296605415642262
1783693549983905800,2.64890576171875,-0.03318987414240837,-0.012547389604151249,-0.013831229880452156
1783693549993868500,2.65886865234375,-0.03042471595108509,-0.0033877138048410416,-0.005167167633771896
1783693550003831600,2.66883154296875,-0.030851805582642555,0.010651473887264729,0.004331211093813181
1783693550013793800,2.678793701171875,-0.03196127712726593,0.017523495480418205,0.01393883116543293
1783693550023756800,2.6887568359375,-0.033239737153053284,0.016347423195838928,0.018895134329795837
1783693550033719800,2.6987197265625,-0.03441126272082329,0.014953258447349072,0.020584378391504288
1783693550043681500,2.708681640625,-0.03057030960917473,0.010733765549957752,0.016606252640485764
1783693550053644500,2.71864453125,-0.02589166909456253,-0.003664082381874323,0.0118069713935256
1783693550063607800,2.72860791015625,-0.020273422822356224,-0.014138833619654179,0.008529205806553364
1783693550073569800,2.73856982421875,-0.012310837395489216,-0.006462804041802883,0.011281848885118961
1783693550083532800,2.74853271484375,-0.004613379016518593,0.00336823589168489,0.013845034874975681
1783693550093495600,2.75849560546875,0.002066095359623432,0.0073097143322229385,0.01377552654594183
1783693550103457800,2.768457763671875,0.008534790016710758,0.006858034059405327,0.010066436603665352
1783693550113420800,2.7784208984375,0.01459161750972271,-0.004170648753643036,0.007396084256470203
1783693550123383800,2.7883837890625,0.01666112057864666,-0.011224023997783661,0.010239488445222378
1783693550133345500,2.798345458984375,0.02002309449017048,-0.0016504930099472404,0.018621254712343216
1783693550143308500,2.80830859375,0.01715855672955513,0.007455925922840834,0.028538281098008156
1783693550153271600,2.818271484375,0.012682582251727581,0.013793449848890305,0.03899678215384483
1783693550163233800,2.82823388671875,0.013724635355174541,0.02521362341940403,0.04592414200305939
1783693550173196800,2.83819677734375,0.01784321293234825,0.029160162433981895,0.04359067976474762
1783693550183159600,2.84815966796875,0.020447108894586563,0.025142790749669075,0.02772580459713936
1783693550193121800,2.858121826171875,0.02228682115674019,0.02048705331981182,0.013066167011857033
1783693550203084800,2.868084716796875,0.024397438392043114,0.01675567589700222,-0.000025559449568390846
1783693550213047800,2.8780478515625,0.021210433915257454,0.01663636602461338,-0.009051544591784477
1783693550223009500,2.888009521484375,0.021440163254737854,0.02338135614991188,-0.010580572299659252
1783693550232972500,2.89797265625,0.019201243296265602,0.020767463371157646,-0.011328919790685177
1783693550242935600,2.907935546875,0.016572169959545135,0.0178489051759243,-0.011175522580742836
1783693550252897800,2.917897705078125,0.012697270140051842,0.010371549054980278,-0.011418934911489487
1783693550262860800,2.92786083984375,0.01175430603325367,0.003181550418958068,-0.005370310507714748
1783693550272823800,2.93782373046875,0.013159124180674553,-0.0008219797164201736,0.009311163797974586
1783693550282785500,2.94778564453125,0.01269458793103695,-0.00503378314897418,0.026791300624608994
1783693550292748800,2.957748779296875,0.014888766221702099,-0.0025453255511820316,0.042801156640052795
1783693550302711800,2.9677119140625,0.017479628324508667,0.001292069093324244,0.05862065404653549
1783693550312673800,2.977673828125,0.014649488031864166,-0.0006754742935299873,0.06656832247972488
1783693550322636500,2.987636474609375,0.01282684225589037,-0.010798166505992413,0.06988028436899185
1783693550332599600,2.997599609375,0.009589503519237041,-0.015219279564917088,0.07475387305021286
1783693550342561800,3.007561767578125,0.009886939078569412,-0.020266257226467133,0.07997260242700577
1783693550352524800,3.01752490234375,0.014727766625583172,-0.023366710171103477,0.08459505438804626
1783693550362487800,3.02748779296875,0.014144944958388805,-0.023837830871343613,0.08535447716712952
1783693550372449500,3.037449462890625,0.014125237241387367,-0.013393711298704147,0.08395098894834518
1783693550382412800,3.047412841796875,0.014875119552016258,-0.009134468622505665,0.07787136733531952
1783693550392375800,3.057375732421875,0.01464129239320755,-0.004687788896262646,0.0698227658867836
1783693550402337500,3.067337646484375,0.01459555234760046,-0.0005474219797179103,0.06066511198878288
1783693550412300500,3.077300537109375,0.012568620033562183,0.00031570845749229193,0.05081700533628464
1783693550422263600,3.087263671875,0.011997269466519356,-0.003828434506431222,0.03599481284618378
1783693550432225800,3.097225830078125,0.007350851781666279,-0.00429182406514883,0.02054022252559662
1783693550442188500,3.1071884765625,0.0029192701913416386,-0.007539829704910517,0.007378293666988611
1783693550452151600,3.117151611328125,0.001316047040745616,-0.011320985853672028,0.004997693933546543
1783693550462113500,3.127113525390625,-0.0008654510602355003,-0.003058500587940216,0.008142195641994476
1783693550472076500,3.13707666015625,-0.0019674671348184347,0.0017221401212736964,0.007825812324881554
1783693550482039800,3.147039794921875,0.0007589546730741858,0.00947003997862339,0.008028157986700535
1783693550492001500,3.15700146484375,0.0026386138051748276,0.015813956037163734,0.011959781870245934
1783693550501964500,3.166964599609375,0.005256501026451588,0.020114189013838768,0.00964624248445034
1783693550511927600,3.176927490234375,0.0074762459844350815,0.01945878379046917,0.011343741789460182
1783693550521889800,3.186889892578125,0.011485675349831581,0.018159663304686546,0.01249752752482891
1783693550531852800,3.196852783203125,0.012396476231515408,0.004166615195572376,0.007342446595430374
1783693550541815600,3.206815673828125,0.018981635570526123,-0.00978275015950203,0.004726903513073921
1783693550551777500,3.216777587890625,0.027410538867115974,-0.001129607204347849,0.004749007523059845
1783693550561740500,3.226740478515625,0.03455803543329239,0.005839643068611622,0.005574109498411417
1783693550571703600,3.23670361328125,0.037234243005514145,0.006253764498978853,0.0036803358234465122
1783693550581665500,3.24666552734375,0.03841668739914894,0.011451988480985165,0.00038147816667333245
1783693550591628500,3.256628662109375,0.03475670516490936,0.020679576322436333,-0.0028515993617475033
1783693550601591600,3.266591552734375,0.026668520644307137,0.017264069989323616,-0.006475522648543119
1783693550611553800,3.2765537109375,0.021588008850812912,0.011115895584225655,-0.007607366424053907
1783693550621516800,3.286516845703125,0.016401544213294983,0.01432313397526741,-0.006114877760410309
1783693550631479600,3.2964794921875,0.007976632565259933,0.020234553143382072,-0.009893103502690792
1783693550641441500,3.306441650390625,-0.0004137794894631952,0.01893809251487255,-0.013320649974048138
1783693550651404500,3.316404541015625,-0.008336151018738747,0.005090453661978245,-0.015399513766169548
1783693550661367600,3.326367431640625,-0.016304921358823776,-0.00511529017239809,-0.014716516248881817
1783693550671329500,3.33632958984375,-0.01214985828846693,-0.002582091372460127,-0.007345152087509632
1783693550681292500,3.34629248046875,-0.004764257464557886,0.007904406636953354,0.0026063360273838043
1783693550691255600,3.356255615234375,0.003693409264087677,0.013081857934594154,0.006093212869018316
1783693550701217500,3.366217529296875,0.010492398403584957,0.01054197084158659,0.006627442315220833
1783693550711180800,3.376180908203125,0.01493215374648571,0.006117394659668207,0.0064444830641150475
1783693550721143800,3.386143798828125,0.017089806497097015,-0.0006885738112032413,0.00017987634055316448
1783693550731105500,3.39610546875,0.01723681390285492,-0.009654904715716839,-0.00684767309576273
1783693550741068500,3.406068603515625,0.021895747631788254,-0.018315505236387253,-0.004913685377687216
1783693550751031600,3.416031494140625,0.026192758232355118,-0.02533027157187462,0.0029559554532170296
1783693550760993800,3.425993896484375,0.029505953192710876,-0.026005402207374573,0.015367882326245308
1783693550770956500,3.43595654296875,0.027396198362112045,-0.020044181495904922,0.02849220670759678
1783693550780919600,3.44591943359375,0.02224750816822052,-0.009663925506174564,0.03420271724462509
1783693550790881500,3.455881591796875,0.01695846952497959,-0.0012954751728102565,0.033029597252607346
1783693550800844500,3.465844482421875,0.011359543539583683,0.010330552235245705,0.03206989914178848
1783693550810807800,3.475807861328125,0.0020770954433828592,0.00801013968884945,0.022037770599126816
1783693550820769500,3.48576953125,-0.006802558433264494,-0.0034300191327929497,0.010912309400737286
1783693550830732500,3.495732666015625,-0.012011968530714512,-0.00636722007766366,0.00807737372815609
1783693550840695600,3.505695556640625,-0.018799422308802605,-0.0022593019530177116,0.007502291351556778
1783693550850657800,3.51565771484375,-0.02305169217288494,-0.003555462695658207,-0.0005995773244649172
1783693550860620500,3.52562060546875,-0.022848697379231453,-0.00521593913435936,-0.0075415861792862415
1783693550870583600,3.53558349609375,-0.02156026102602482,-0.00564097985625267,-0.013216249644756317
1783693550880545500,3.545545654296875,-0.015075280331075191,-0.00492542888969183,-0.017008861526846886
1783693550890508500,3.555508544921875,-0.008347069844603539,0.0020099752582609653,-0.021406538784503937
1783693550900471800,3.565471923828125,-0.002794849220663309,0.007039118558168411,-0.023427342996001244
1783693550910433500,3.57543359375,0.0003367618774063885,0.006453223526477814,-0.023372214287519455
1783693550920396500,3.585396484375,0.0051809693686664104,0.0028659312520176172,-0.022048411890864372
1783693550930359600,3.595359619140625,0.008240142837166786,0.0027056089602410793,-0.015865616500377655
1783693550940321800,3.60532177734375,0.015216682106256485,0.00906314142048359,-0.00871950201690197
1783693550950284800,3.615284912109375,0.015594051219522953,0.018235333263874054,-0.007431597448885441
1783693550960247600,3.62524755859375,0.013839397579431534,0.015004891902208328,-0.01656714640557766
1783693550970209500,3.63520947265625,0.012500360608100891,-0.00008963886648416519,-0.02933007851243019
1783693550980172500,3.645172607421875,0.005058300215750933,-0.011588909663259983,-0.03674469515681267
1783693550990135600,3.655135498046875,0.0013722189469262958,-0.012089051306247711,-0.03670448064804077
1783693551000097500,3.66509765625,-0.0019529422279447317,-0.011032545939087868,-0.03031022846698761
1783693551010060500,3.675060546875,-0.010337105952203274,-0.01044452004134655,-0.016906538978219032
1783693551020023600,3.6850234375,-0.018310323357582092,-0.004427389241755009,-0.006007499061524868
1783693551029985800,3.69498583984375,-0.025108041241765022,0.005643087904900312,0.004582027904689312
1783693551039948800,3.70494873046875,-0.028195587918162346,0.006565348245203495,0.009341469965875149
1783693551049911600,3.71491162109375,-0.02906271256506443,-0.0031109810806810856,0.005625295452773571
1783693551059873500,3.72487353515625,-0.02409251593053341,-0.011904477141797543,0.0008014581399038434
1783693551069836500,3.73483642578125,-0.018249008804559708,-0.020320065319538116,-0.0015842014690861106
1783693551079799600,3.744799560546875,-0.02149302512407303,-0.02379177324473858,-0.0025109820999205112
1783693551089761800,3.75476171875,-0.024295469745993614,-0.02200053073465824,0.0022297108080238104
1783693551099724500,3.764724609375,-0.022260569036006927,-0.024991776794195175,0.01046947855502367
1783693551109687600,3.7746875,-0.015106519684195518,-0.02663441374897957,0.018635530024766922
1783693551119649500,3.7846494140625,-0.005272674839943647,-0.024503903463482857,0.029038527980446815
1783693551129612800,3.79461279296875,0.0034547701943665743,-0.01556260697543621,0.039874132722616196
1783693551139575800,3.804575927734375,0.01491222158074379,-0.005106237716972828,0.042451806366443634
1783693551149538600,3.81453857421875,0.022819148376584053,-0.003517662174999714,0.03315151482820511
1783693551159500500,3.82450048828125,0.02886269986629486,-0.002125899773091078,0.021775342524051666
1783693551169463600,3.834463623046875,0.03609717637300491,0.002471781335771084,0.0018024323508143425
1783693551179426600,3.844426513671875,0.04118530824780464,0.008805046789348125,-0.020379142835736275
1783693551189388500,3.854388427734375,0.0460977740585804,0.0018198415637016296,-0.042457547038793564
1783693551199351600,3.8643515625,0.047699522227048874,-0.002540810499340296,-0.05725982040166855
1783693551209314600,3.874314453125,0.0491165928542614,0.007628470193594694,-0.06608420610427856
1783693551219276500,3.884276611328125,0.04871457815170288,0.017487473785877228,-0.06929875165224075
1783693551229239800,3.89423974609375,0.039838794618844986,0.019097622483968735,-0.0779162049293518
1783693551239202600,3.90420263671875,0.027790838852524757,0.028260771185159683,-0.08399630337953568
1783693551249164500,3.91416455078125,0.01739172823727131,0.03463504835963249,-0.08739529550075531
1783693551259127600,3.92412744140625,0.005414037499576807,0.026634665206074715,-0.09115903824567795
1783693551269090600,3.934090576171875,-0.002691559726372361,0.015680549666285515,-0.09952615946531296
1783693551279052500,3.944052490234375,-0.0077535733580589294,-0.003792768344283104,-0.10258810222148895
1783693551289015600,3.954015625,-0.010046022944152355,-0.011135635897517204,-0.09593632072210312
1783693551298978600,3.963978515625,-0.010077017359435558,-0.006951807998120785,-0.08395513892173767
1783693551308940500,3.9739404296875,-0.005337922368198633,0.005813788156956434,-0.06558891385793686
1783693551318903800,3.98390380859375,-0.005427670665085316,0.015231790952384472,-0.04678779095411301
1783693551328866800,3.99386669921875,-0.0057698870077729225,0.017201198264956474,-0.03779269754886627
1783693551338828500,4.00382861328125,-0.008040765300393105,0.0012875061947852373,-0.03593200445175171
1783693551348791600,4.01379150390625,-0.009258895181119442,-0.012807273305952549,-0.03447738289833069
1783693551358754600,4.023754638671875,-0.010117089375853539,-0.02248544991016388,-0.029687315225601196
1783693551368716800,4.033716796875,-0.013712889514863491,-0.029918333515524864,-0.020125500857830048
1783693551378679800,4.0436796875,-0.015982968732714653,-0.03275033459067345,-0.011639072559773922
1783693551388642800,4.053642822265625,-0.01861736737191677,-0.027229072526097298,-0.0011299726320430636
1783693551398604500,4.0636044921875,-0.021909115836024284,-0.02017407864332199,0.003117128973826766
1783693551408567600,4.073567626953125,-0.025221822783350945,-0.024577615782618523,0.004803708754479885
1783693551418530800,4.08353076171875,-0.023917095735669136,-0.03216369077563286,0.006183119956403971
1783693551428492800,4.093492919921875,-0.01942567527294159,-0.03644338995218277,0.007178342901170254
1783693551438455800,4.103455810546875,-0.018611259758472443,-0.03250429779291153,0.012044206261634827
1783693551448418800,4.113418701171875,-0.013744333758950233,-0.018820177763700485,0.012335022911429405
1783693551458380800,4.123380859375,-0.019691769033670425,0.0008651600801385939,0.009486079216003418
1783693551468343800,4.13334375,-0.026178428903222084,0.017828963696956635,0.004181328229606152
1783693551478306800,4.143306884765625,-0.03551563620567322,0.030350051820278168,-0.000006863963790237904
1783693551488268800,4.153268798828125,-0.03313903138041496,0.008646621368825436,-0.012609208934009075
1783693551498231600,4.1632314453125,-0.03566737100481987,-0.018504329025745392,-0.021391410380601883
1783693551508194600,4.173194580078125,-0.034020472317934036,-0.020587453618645668,-0.026759808883070946
1783693551518156800,4.18315673828125,-0.03413351625204086,-0.00021957873832434416,-0.026290984824299812
1783693551528119800,4.193119873046875,-0.03202322870492935,0.018420685082674026,-0.022738061845302582
1783693551538082800,4.203082763671875,-0.03369930014014244,0.01576901040971279,-0.024541502818465233
1783693551548044800,4.213044921875,-0.03425243869423866,0.0067073386162519455,-0.025356430560350418
1783693551558007800,4.2230078125,-0.03089187480509281,0.003958115819841623,-0.016588769853115082
1783693551567970800,4.232970703125,-0.02703508362174034,0.010016274638473988,-0.008365994319319725
1783693551577932800,4.242932861328125,-0.022454284131526947,0.008183488622307777,0.003245814237743616
1783693551587895600,4.2528955078125,-0.017211584374308586,0.007468696683645248,0.01275862567126751
1783693551597858600,4.262858642578125,-0.011189973913133144,0.006064967717975378,0.019611097872257233
1783693551607820800,4.27282080078125,-0.0069398353807628155,0.011511131189763546,0.026660218834877014
1783693551617783800,4.28278369140625,-0.0009222578955814242,0.009015192277729511,0.03012174367904663
1783693551627746800,4.292746826171875,0.0013179931556805968,0.006728602573275566,0.0354137122631073
1783693551637708500,4.30270849609375,0.002343064406886697,0.00397088285535574,0.03910303860902786
1783693551647671800,4.312671875,0.005420879926532507,0.005421506706625223,0.0446820966899395
1783693551657634800,4.322634765625,0.005557766184210777,0.004554141312837601,0.04875907674431801
1783693551667596800,4.3325966796875,0.003814460476860404,0.0031975272577255964,0.046756114810705185
1783693551677559800,4.342559814453125,0.004705512896180153,0.0030151070095598698,0.043245747685432434
1783693551687522600,4.3525224609375,0.003284184029325843,0.007259919308125973,0.04027659073472023
1783693551697484800,4.36248486328125,0.00034208816941827536,0.012766513042151928,0.03688260167837143
1783693551707447800,4.37244775390625,0.0025226844009011984,0.0059821102768182755,0.03111499547958374
1783693551717410800,4.382410888671875,0.0021940707229077816,0.007230876479297876,0.027392694726586342
1783693551727372500,4.39237255859375,0.006155256647616625,0.012232293374836445,0.02419503778219223
1783693551737335800,4.402335693359375,0.002695339033380151,0.012681545689702034,0.013582179322838783
1783693551747298800,4.412298828125,0.0015022428706288338,0.008600251749157906,0.007592464797198772
1783693551757260800,4.4222607421875,-0.0027017411775887012,0.008249260485172272,0.0012440754799172282
1783693551767223800,4.432223876953125,-0.007048818748444319,0.012161178514361382,0.003084852360188961
1783693551777186600,4.4421865234375,-0.01060862559825182,0.015135390684008598,0.002856406383216381
1783693551787148800,4.452148681640625,-0.017932850867509842,0.009613593108952045,0.0007743468740954995
1783693551797111800,4.46211181640625,-0.018116874620318413,0.007921712473034859,0.0031093540601432323
1783693551807074800,4.47207470703125,-0.023065028712153435,0.008570192381739616,0.0070244669914245605
1783693551817036500,4.48203662109375,-0.02563018538057804,0.01488215010613203,0.01087353378534317
1783693551826999600,4.49199951171875,-0.028019839897751808,0.01684250310063362,0.015621151775121689
1783693551836962800,4.501962890625,-0.03584865480661392,0.013705287128686905,0.012460618279874325
1783693551846924800,4.5119248046875,-0.03774535655975342,0.004525371361523867,0.011066719889640808
1783693551856887800,4.5218876953125,-0.042898982763290405,0.00638346653431654,0.009283573366701603
1783693551866850800,4.531850830078125,-0.04159776493906975,0.011972643435001373,-0.000771723804064095
1783693551876812800,4.541812744140625,-0.03802908584475517,0.0034657283686101437,-0.012718664482235909
1783693551886775800,4.55177587890625,-0.03372222185134888,-0.013237884268164635,-0.02151481993496418
1783693551896738800,4.56173876953125,-0.023159347474575043,-0.007537132129073143,-0.02031453140079975
1783693551906700800,4.57170068359375,-0.006980909034609795,0.000609211390838027,-0.011384421028196812
1783693551916663600,4.58166357421875,0.00030453447834588587,0.004754180554300547,-0.006173628848046064
1783693551926626600,4.59162646484375,0.006297445856034756,0.008396852761507034,0.004353314638137817
1783693551936588800,4.6015888671875,0.016014600172638893,0.016736023128032684,0.011012067086994648
1783693551946551800,4.6115517578125,0.02116941474378109,0.01382199302315712,0.010098070837557316
1783693551956514800,4.621514892578125,0.02385023795068264,-0.004662222228944302,0.006855247542262077
1783693551966476800,4.631476806640625,0.033205658197402954,-0.02400316298007965,0.004149476066231728
1783693551976439800,4.641439697265625,0.04040881246328354,-0.04168498516082764,0.0031458926387131214
1783693551986402800,4.65140283203125,0.04052279517054558,-0.057137444615364075,0.007446364965289831
1783693551996364800,4.66136474609375,0.04359188675880432,-0.05625010281801224,0.011367976665496826
1783693552006327600,4.67132763671875,0.04328509047627449,-0.0477580800652504,0.020021386444568634
1783693552016290600,4.68129052734375,0.04694191366434097,-0.029396921396255493,0.028754740953445435
1783693552026252800,4.691252685546875,0.05112600699067116,-0.01250129472464323,0.038273945450782776
1783693552036215800,4.7012158203125,0.05344924330711365,0.008102307096123695,0.038991719484329224
1783693552046178800,4.7111787109375,0.05564954876899719,0.010489298030734062,0.032429687678813934
1783693552056140500,4.721140625,0.05658743530511856,0.0028135203756392,0.027490539476275444
1783693552066103800,4.731103759765625,0.049816880375146866,-0.0016448776004835963,0.024500075727701187
1783693552076066800,4.74106689453125,0.042071979492902756,-0.0071206046268343925,0.0202668234705925
1783693552086028800,4.75102880859375,0.030391618609428406,-0.010438637807965279,0.01869981922209263
1783693552095991800,4.76099169921875,0.024035779759287834,-0.007675070781260729,0.012477661482989788
1783693552105954600,4.77095458984375,0.014181817881762981,-0.006627915892750025,0.005502576008439064
1783693552115916800,4.780916748046875,0.00639078114181757,-0.013473311439156532,-0.003089526668190956
1783693552125879800,4.7908798828125,0.00021011702483519912,-0.04257899895310402,-0.013010334223508835
1783693552135841800,4.800841796875,-0.006626936141401529,-0.07044896483421326,-0.015464650467038155
1783693552145804500,4.810804443359375,-0.01453359518200159,-0.07994233071804047,0.00046637823106721044
1783693552155767600,4.820767578125,-0.030864566564559937,-0.06320864707231522,0.01816452294588089
1783693552165729800,4.830729736328125,-0.04180057346820831,-0.04093796759843826,0.035457756370306015
1783693552175692800,4.84069287109375,-0.058524053543806076,-0.01829630695283413,0.04924345389008522
1783693552185655800,4.85065576171875,-0.07119910418987274,-0.004493942018598318,0.0605645515024662
1783693552195617800,4.86061767578125,-0.07743895798921585,0.004694226197898388,0.0694408118724823
1783693552205580800,4.870580810546875,-0.07337497174739838,0.005211145617067814,0.06940033286809921
1783693552215543800,4.880543701171875,-0.07348452508449554,0.006258568726480007,0.062111955136060715
1783693552225505800,4.890505859375,-0.07173163443803787,-0.0007330280495807528,0.04741450026631355
1783693552235468500,4.900468505859375,-0.07269125431776047,-0.008848465979099274,0.03666241466999054
1783693552245431600,4.910431640625,-0.07087498158216476,-0.012657585553824902,0.024314934387803078
1783693552255393800,4.920393798828125,-0.06946723163127899,-0.010339037515223026,0.013188512995839119
1783693552265356800,4.930356689453125,-0.06360827386379242,-0.006578121799975634,0.0007997538195922971
1783693552275319800,4.94031982421875,-0.052076708525419235,-0.010005328804254532,-0.01164594478905201
1783693552285281500,4.950281494140625,-0.04361744597554207,-0.014999289065599442,-0.022039996460080147
1783693552295244800,4.960244873046875,-0.03085055574774742,-0.019098978489637375,-0.026425154879689217
1783693552305207800,4.970207763671875,-0.02878900244832039,-0.020309653133153915,-0.027190547436475754
1783693552315169800,4.980169677734375,-0.0312519334256649,-0.021556273102760315,-0.024814795702695847
1783693552325132800,4.9901328125,-0.03888934850692749,-0.006393564399331808,-0.012742952443659306
1783693552335095600,5.000095458984375,-0.0476759597659111,0.0036486899480223656,-0.004607316106557846
1783693552345057800,5.010057861328125,-0.05745907872915268,-0.0033194711431860924,0.0035254452377557755
1783693552355020800,5.020020751953125,-0.06395614147186279,-0.002119195181876421,0.014624436385929585
1783693552364983800,5.02998388671875,-0.06331991404294968,-0.0038356021977961063,0.025787606835365295
1783693552374945500,5.039945556640625,-0.06199720874428749,-0.01388582680374384,0.02501625008881092
1783693552384908800,5.04990869140625,-0.059077050536870956,-0.02029046230018139,0.018549295142292976
1783693552394871800,5.059871826171875,-0.05236723646521568,-0.0170185137540102,0.008933153934776783
1783693552404833800,5.069833740234375,-0.0481322780251503,-0.014321263879537582,-0.0030513370875269175
1783693552414796500,5.079796630859375,-0.04731444641947746,-0.014295121654868126,-0.015516106970608234
1783693552424759600,5.089759521484375,-0.0430414043366909,-0.005694975145161152,-0.019534818828105927
1783693552434721800,5.0997216796875,-0.033848848193883896,0.0076828631572425365,-0.02419784851372242
1783693552444684800,5.109684814453125,-0.025066541507840157,0.013949280604720116,-0.030247218906879425
1783693552454647800,5.119647705078125,-0.017306210473179817,0.016171947121620178,-0.03781603276729584
1783693552464609500,5.129609619140625,-0.010247503407299519,0.01774241216480732,-0.04536689072847366
1783693552474572500,5.139572509765625,0.001990372547879815,0.02596868760883808,-0.05600271001458168
1783693552484535800,5.149535888671875,0.016161052510142326,0.02385333925485611,-0.06382041424512863
1783693552494497800,5.159497802734375,0.023594433441758156,-0.0025716598611325026,-0.0731390193104744
1783693552504460800,5.169460693359375,0.026360657066106796,-0.023947255685925484,-0.07908852398395538
1783693552514423600,5.179423583984375,0.02779882587492466,-0.027315350249409676,-0.08051858842372894
1783693552524385800,5.1893857421875,0.022232020273804665,-0.016438469290733337,-0.07935798913240433
1783693552534348800,5.199348876953125,0.014428072609007359,-0.013564877212047577,-0.07784334570169449
1783693552544311800,5.209311767578125,0.0031463897321373224,-0.013572867028415203,-0.07459748536348343
1783693552554273500,5.2192734375,-0.007619187701493502,-0.0029053478501737118,-0.06825058162212372
1783693552564236500,5.229236572265625,-0.019307535141706467,0.0029578679241240025,-0.05819182097911835
1783693552574199600,5.239199462890625,-0.027922185137867928,-0.006078778766095638,-0.04379088431596756
1783693552584161800,5.249161865234375,-0.034050386399030685,-0.007737395819276571,-0.029256150126457214
1783693552594124800,5.259124755859375,-0.03753867372870445,-0.009654886089265347,-0.015899917110800743
1783693552604087600,5.269087646484375,-0.0395783893764019,-0.008791755884885788,-0.009797017090022564
1783693552614049800,5.2790498046875,-0.042461324483156204,-0.00360149797052145,-0.013706112280488014
1783693552624012800,5.2890126953125,-0.0471801795065403,0.0014917976222932339,-0.020144037902355194
1783693552633975800,5.298975830078125,-0.049325745552778244,0.006186170503497124,-0.02961040660738945
1783693552643937500,5.3089375,-0.04739575460553169,0.0005309482803568244,-0.03921456262469292
1783693552653900500,5.318900634765625,-0.0406833179295063,-0.005216690246015787,-0.04458488151431084
1783693552663863600,5.328863525390625,-0.030994471162557602,0.001495008240453899,-0.03970836475491524
1783693552673825800,5.33882568359375,-0.023546570912003517,-0.0005998638225719333,-0.03425378352403641
1783693552683788800,5.348788818359375,-0.020448781549930573,-0.003238789737224579,-0.03354298695921898
1783693552693751800,5.358751708984375,-0.021938864141702652,-0.004061673302203417,-0.03663608804345131
1783693552703713500,5.368713623046875,-0.019653072580695152,-0.020519210025668144,-0.03918260335922241
1783693552713676800,5.3786767578125,-0.01839320920407772,-0.035129353404045105,-0.03434603661298752
1783693552723638800,5.388638671875,-0.01063116081058979,-0.03402920067310333,-0.017654141411185265
1783693552733601800,5.398601806640625,-0.002684700069949031,-0.021028943359851837,-0.00042929674964398146
1783693552743564500,5.408564453125,0.00300620892085135,-0.011024780571460724,0.011946679092943668
1783693552753526800,5.41852685546875,0.007475521881133318,-0.01033099927008152,0.017591457813978195
1783693552763489800,5.42848974609375,0.00643289415165782,-0.00901060365140438,0.0205699373036623
1783693552773452800,5.438452880859375,0.005697949323803186,-0.015741784125566483,0.01689280942082405
1783693552783414500,5.44841455078125,0.006336309015750885,-0.026583246886730194,0.01953599788248539
1783693552793377500,5.45837744140625,0.003585278755053878,-0.02796538919210434,0.021698959171772003
1783693552803340800,5.4683408203125,0.0018419736297801137,-0.01628955826163292,0.024885963648557663
1783693552813302800,5.478302734375,0.003000391647219658,-0.008077999576926231,0.025636978447437286
1783693552823265800,5.488265869140625,0.0041005429811775684,-0.005514173768460751,0.02596215158700943
1783693552833228500,5.498228515625,0.005134440027177334,-0.0032528520096093416,0.019426483660936356
1783693552843190800,5.508190673828125,0.006588525604456663,-0.007720304653048515,0.010947509668767452
1783693552853153800,5.51815380859375,0.010611847043037415,-0.019120246171951294,0.004328598268330097
1783693552863116800,5.52811669921875,0.01055778469890356,-0.014955327846109867,0.0037530893459916115
1783693552873078500,5.53807861328125,0.011464693583548069,-0.003216914366930723,0.0032716968562453985
1783693552883041500,5.54804150390625,0.009164787828922272,0.00960887037217617,0.0023758094757795334
1783693552893004500,5.558004638671875,0.006648944225162268,0.018288344144821167,-0.002572766738012433
1783693552902966800,5.567966796875,0.009059371426701546,0.019419388845562935,-0.015082966536283493
1783693552912929800,5.5779296875,0.011015745811164379,0.009680512361228466,-0.03421277552843094
1783693552922892800,5.587892822265625,0.01677429862320423,-0.005081655457615852,-0.05288206785917282
1783693552932854500,5.5978544921875,0.02111644111573696,-0.01798149384558201,-0.06548265367746353
1783693552942817800,5.60781787109375,0.022518862038850784,-0.03951794654130936,-0.07333844900131226
1783693552952780800,5.61778076171875,0.02171657606959343,-0.03126829117536545,-0.07314733415842056
1783693552962742800,5.62774267578125,0.0240071602165699,-0.012629890814423561,-0.060461100190877914
1783693552972705500,5.63770556640625,0.018471041694283485,0.0022074102889746428,-0.04845929890871048
1783693552982668500,5.64766845703125,0.015308802947402,0.004069758579134941,-0.031211603432893753
1783693552992630800,5.657630859375,0.01277956087142229,-0.007116604130715132,-0.01106052752584219
1783693553002593800,5.66759375,0.01780388131737709,0.003883316181600094,0.00559115270152688
1783693553012556800,5.677556884765625,0.016554241999983788,0.021714791655540466,0.020749757066369057
1783693553022518500,5.6875185546875,0.015297230333089828,0.02901318296790123,0.034709516912698746
1783693553032481800,5.697481689453125,0.010510851629078388,0.03450356423854828,0.04112118110060692
1783693553042444800,5.70744482421875,0.008703364059329033,0.03753823786973953,0.04414306953549385
1783693553052406800,5.71740673828125,0.009824821725487709,0.02416890114545822,0.03982235863804817
1783693553062369500,5.72736962890625,0.010270101949572563,0.0059235855005681515,0.031131930649280548
1783693553072331800,5.737331787109375,0.015020341612398624,-0.011738226749002934,0.029183775186538696
1783693553082294800,5.747294677734375,0.021797552704811096,-0.007915258407592773,0.028815193101763725
1783693553092257800,5.7572578125,0.02652863971889019,-0.0016528461128473282,0.02204171009361744
1783693553102220800,5.767220703125,0.028183793649077415,-0.003685104427859187,0.005485636182129383
1783693553112182500,5.7771826171875,0.019702794030308723,-0.008307822048664093,-0.010903882794082165
1783693553122145500,5.7871455078125,0.01454185415059328,-0.00010635051876306534,-0.024614367634058
1783693553132107800,5.797107666015625,0.00661489088088274,-0.0003601262578740716,-0.032582659274339676
1783693553142070800,5.80707080078125,-0.00020626356126740575,-0.006050769239664078,-0.036547038704156876
1783693553152033800,5.81703369140625,-0.008040054701268673,-0.011769106611609459,-0.036920785903930664
1783693553161995800,5.826995849609375,-0.013950941152870655,-0.005567403044551611,-0.03669441491365433
1783693553171958800,5.836958740234375,-0.02119424380362034,-0.0013812013203278184,-0.035701584070920944
1783693553181921800,5.846921875,-0.027251336723566055,0.0013709092745557427,-0.02761596441268921
1783693553191883800,5.8568837890625,-0.027741238474845886,0.011630479246377945,-0.024573996663093567
1783693553201846500,5.866846435546875,-0.024797113612294197,0.0115093057975173,-0.013869420625269413
1783693553211809500,5.8768095703125,-0.024211956188082695,0.014513622038066387,-0.00021587382070720196
1783693553221771800,5.886771728515625,-0.0239323228597641,0.007914574816823006,0.011786993592977524
1783693553231734800,5.89673486328125,-0.023372052237391472,0.005610376130789518,0.025948356837034225
1783693553241697800,5.90669775390625,-0.0213155597448349,0.0014691607793793082,0.03506755083799362
1783693553251659500,5.916659423828125,-0.0156415943056345,-0.00389841478317976,0.038415729999542236
1783693553261622800,5.926622802734375,-0.007658503018319607,-0.007077430374920368,0.037265509366989136
1783693553271585800,5.936585693359375,-0.0011274698190391064,-0.007658796384930611,0.038020141422748566
1783693553281547800,5.9465478515625,0.00087629264453426,-0.005206025205552578,0.039608184248209
1783693553291510500,5.956510498046875,0.0017944511491805315,-0.0012912036618217826,0.04211976379156113
1783693553301473500,5.9664736328125,-0.000554456957615912,0.0025863589253276587,0.04157621040940285
1783693553311435800,5.976435791015625,-0.00044404188520275056,0.005325716454535723,0.033750079572200775
1783693553321398800,5.986398681640625,-0.005761575419455767,0.0022830546367913485,0.024748332798480988
1783693553331361800,5.99636181640625,-0.011296114884316921,-0.0027442006394267082,0.017115499824285507
1783693553341323500,6.006323486328125,-0.013166452758014202,-0.0077951522544026375,0.00712971156463027
1783693553351286500,6.01628662109375,-0.01494491659104824,-0.012772039510309696,-0.001017223228700459
1783693553361249800,6.026249755859375,-0.01669301651418209,-0.009452142752707005,-0.007755819242447615
1783693553371211800,6.036211669921875,-0.017006894573569298,-0.011833039112389088,-0.011167163029313087
1783693553381175000,6.046175048828125,-0.017360562458634377,-0.006860917899757624,-0.010881139896810055
1783693553391137800,6.0561376953125,-0.017790643498301506,0.0021443061996251345,-0.006755106151103973
1783693553401100000,6.06610009765625,-0.01829984039068222,0.002490783343091607,-0.004171574022620916
1783693553411063000,6.07606298828125,-0.017300954088568687,-0.003910633269697428,-0.007805834989994764
1783693553421025000,6.08602490234375,-0.016674311831593513,-0.017487959936261177,-0.013838959857821465
1783693553430987800,6.09598779296875,-0.01868325099349022,-0.01891145668923855,-0.012677336111664772
1783693553440950800,6.10595068359375,-0.020083807408809662,-0.014273295179009438,-0.009189127013087273
1783693553450913000,6.1159130859375,-0.019848445430397987,-0.009829016402363777,-0.009775341488420963
1783693553460876000,6.1258759765625,-0.01805906742811203,-0.010962191969156265,-0.008002208545804024
1783693553470839000,6.135839111328125,-0.01577356643974781,-0.008367990143597126,-0.0036165709607303143
1783693553480800800,6.14580078125,-0.01762206479907036,-0.011694543994963169,0.0017347848042845726
1783693553490763800,6.155763671875,-0.013663418591022491,-0.013888208195567131,0.005987483076751232
1783693553500727000,6.16572705078125,-0.012685239315032959,-0.014536688104271889,0.009973702020943165
1783693553510689000,6.17568896484375,-0.009444914758205414,-0.016949480399489403,0.0073576741851866245
1783693553520652000,6.185652099609375,-0.010746401734650135,-0.02361776866018772,0.005186665337532759
1783693553530614800,6.19561474609375,-0.013905437663197517,-0.02632569894194603,-0.0003457276616245508
1783693553540577000,6.205576904296875,-0.01608310453593731,-0.030272237956523895,-0.0032589593902230263
1783693553550540000,6.2155400390625,-0.01077714841812849,-0.018299445509910583,-0.0018010417697951198
1783693553560503000,6.2255029296875,-0.00879016425460577,-0.004252335987985134,0.0009278994402848184
1783693553570464800,6.23546484375,-0.007937496528029442,-0.009790955111384392,0.0038430008571594954
1783693553580427800,6.245427734375,-0.005098034627735615,-0.021845752373337746,0.003442727727815509
1783693553590391000,6.25539111328125,0.004620103631168604,-0.022375695407390594,0.0029678300488740206
1783693553600353000,6.26535302734375,0.0029811940621584654,-0.018100788816809654,0.001639445312321186
1783693553610316000,6.27531591796875,0.010010363534092903,-0.0065879602916538715,-0.0039030699990689754
1783693553620278800,6.28527880859375,0.01576226018369198,0.0019413455156609416,-0.010911977849900723
1783693553630241000,6.295240966796875,0.014209982939064503,-0.0031197108328342438,-0.018542680889368057
1783693553640204000,6.3052041015625,0.014598271809518337,-0.003846753854304552,-0.017442261800169945
1783693553650167000,6.3151669921875,0.01569448970258236,0.010270134545862675,-0.016229407861828804
1783693553660128800,6.325128662109375,0.01295702625066042,0.029796697199344635,-0.011678863316774368
1783693553670091800,6.335091796875,0.0060628363862633705,0.048640184104442596,-0.00853165052831173
1783693553680054000,6.345053955078125,-0.005783969536423683,0.11016985774040222,-0.0032852233853191137
1783693553690017000,6.35501708984375,-0.016072148457169533,0.22590602934360504,-0.0018365686992183328
1783693553699980000,6.36497998046875,-0.022602485492825508,0.19395768642425537,-0.02896272949874401
1783693553709941800,6.374941650390625,-0.034249089658260345,0.06565753370523453,-0.07210951298475266
1783693553719905000,6.384905029296875,-0.03344001993536949,-0.02297007292509079,-0.09929080307483673
1783693553729868000,6.394867919921875,-0.022395268082618713,-0.010029812343418598,-0.09764879196882248
1783693553739830000,6.404830078125,-0.01211946178227663,0.039471160620450974,-0.0840325802564621
1783693553749793000,6.41479296875,-0.012410513125360012,0.058565009385347366,-0.06460940837860107
1783693553759755800,6.424755859375,-0.018594639375805855,0.05148313194513321,-0.049941521137952805
1783693553769718000,6.434718017578125,-0.016896892338991165,0.049997612833976746,-0.0415528267621994
1783693553779681000,6.444680908203125,-0.009019794873893261,0.048176009207963943,-0.030863964930176735
1783693553789644000,6.45464404296875,-0.002833047416061163,0.037903137505054474,-0.018653159961104393
1783693553799605800,6.464605712890625,0.004591579549014568,0.02813812531530857,-0.0016081290086731315
1783693553809568800,6.47456884765625,0.007047597318887711,0.01780473068356514,0.012794950045645237
1783693553819532000,6.484531982421875,0.007202326785773039,0.010895958170294762,0.02053942158818245
1783693553829494000,6.494493896484375,0.008508173748850822,0.008548939600586891,0.03136468678712845
1783693553839457000,6.50445703125,0.006945697590708733,0.011422224342823029,0.04473402351140976
1783693553849419800,6.514419677734375,0.008777892217040062,0.013297085650265217,0.05090717971324921
1783693553859382000,6.524382080078125,0.011309226974844933,0.015366627834737301,0.05365023389458656
1783693553869345000,6.534344970703125,0.0130314314737916,0.017089955508708954,0.05033135041594505
1783693553879308000,6.54430810546875,0.015099109150469303,0.013458202593028545,0.04238501191139221
1783693553889270000,6.55427001953125,0.01676681824028492,0.004126241430640221,0.03376755118370056
1783693553899232800,6.564232666015625,0.018500003963708878,-0.008293676190078259,0.02454209327697754
1783693553909195000,6.574195068359375,0.016293948516249657,-0.02097408100962639,0.018121112138032913
1783693553919158000,6.584157958984375,0.012997487559914589,-0.02157808654010296,0.017882758751511574
1783693553929121000,6.59412109375,0.012667316943407059,-0.003154600504785776,0.021216023713350296
1783693553939082800,6.604082763671875,0.012204458937048912,0.014144761487841606,0.023927919566631317
1783693553949046000,6.6140458984375,0.010637044906616211,0.02165674977004528,0.01854950562119484
1783693553959009000,6.624009033203125,0.01153186708688736,0.016568779945373535,0.005503478460013866
1783693553968971000,6.633970947265625,0.006270356941968203,0.018642608076334,-0.009708183817565441
1783693553978934000,6.64393408203125,0.007117774803191423,0.02406054176390171,-0.026977449655532837
1783693553988896800,6.653896728515625,0.006879131775349379,0.025455258786678314,-0.04705588147044182
1783693553998859000,6.66385888671875,0.008665579371154308,0.021006980910897255,-0.06578455865383148
1783693554008822000,6.673822021484375,0.009510261006653309,0.02665283903479576,-0.08020024001598358
1783693554018785000,6.683784912109375,0.008245792239904404,0.033294495195150375,-0.08767253905534744
1783693554028746800,6.693746826171875,0.006298876367509365,0.040534041821956635,-0.09823905676603317
1783693554038709800,6.703709716796875,0.007566274609416723,0.050336871296167374,-0.11080518364906311
1783693554048673000,6.713673095703125,0.005765425972640514,0.06310725212097168,-0.12369514256715775
1783693554058635000,6.723635009765625,0.009891195222735405,0.049668941646814346,-0.1316249668598175
1783693554068598000,6.733597900390625,0.0038813455030322075,0.026648545637726784,-0.13335640728473663
1783693554078560800,6.743560791015625,0.0004554552142508328,0.00893905758857727,-0.12553150951862335
1783693554088523000,6.75352294921875,0.004655112978070974,0.008836029097437859,-0.10686934739351273
1783693554098486000,6.763486083984375,-0.0013343365862965584,0.020048735663294792,-0.08456350862979889
1783693554108449000,6.773448974609375,-0.017672255635261536,0.04017743468284607,-0.06805585324764252
1783693554118411000,6.783410888671875,-0.03690586984157562,0.07049272209405899,-0.044098325073719025
1783693554128373800,6.793373779296875,-0.05180549994111061,0.09792062640190125,-0.012144171632826328
1783693554138337000,6.8033369140625,-0.05599705129861832,0.11035706102848053,0.022217264398932457
1783693554148299000,6.813299072265625,-0.05309895798563957,0.10748349875211716,0.04986705631017685
1783693554158262000,6.823261962890625,-0.045887380838394165,0.08382157981395721,0.06862343102693558
1783693554168223700,6.8332236328125,-0.034879785031080246,0.05813223496079445,0.06664884835481644
1783693554178187000,6.84318701171875,-0.02160073257982731,0.04795869067311287,0.04454195126891136
1783693554188150000,6.85314990234375,-0.014022216200828552,0.03656835854053497,0.022815829142928123
1783693554198112000,6.863112060546875,-0.003675036132335663,0.047594379633665085,0.001142490771599114
1783693554208075000,6.873074951171875,0.0020680991001427174,0.054466087371110916,-0.01251941081136465
1783693554218037800,6.883037841796875,0.005529941990971565,0.06839761883020401,-0.019546959549188614
1783693554228000000,6.893,0.007446432486176491,0.06759868562221527,-0.011729465797543526
1783693554237963000,6.902962890625,0.006857341155409813,0.08015282452106476,-0.006749620661139488
1783693554247926000,6.912926025390625,0.006150173023343086,0.0703054890036583,-0.0024129790253937244
1783693554257887700,6.9228876953125,0.010529741644859314,0.09263183176517487,-0.0058607072569429874
1783693554267850800,6.932850830078125,0.0221882164478302,0.14518295228481293,-0.0008096013916656375
1783693554277814000,6.94281396484375,0.025467365980148315,0.209712952375412,0.017227722331881523
1783693554287776000,6.95277587890625,0.027490884065628052,0.23827822506427765,0.03487079590559006
1783693554297739000,6.962739013671875,0.027212850749492645,0.23625394701957703,0.04409465566277504
1783693554307702000,6.972701904296875,0.02964826300740242,0.21580226719379425,0.04548439383506775
1783693554317664000,6.9826640625,0.03703693673014641,0.17969779670238495,0.03165140375494957
1783693554327627000,6.992626953125,0.04035696014761925,0.1447397917509079,0.0034505543299019337
1783693554337589000,7.002589111328125,0.04610086604952812,0.10565178096294403,-0.02101084589958191
1783693554347552000,7.012552001953125,0.05197655409574509,0.0858977884054184,-0.033466238528490067
1783693554357514800,7.0225146484375,0.0578317791223526,0.08649513870477676,-0.04491916298866272
1783693554367477000,7.03247705078125,0.05767194926738739,0.08366606384515762,-0.0625528022646904
1783693554377439700,7.042439697265625,0.06211596727371216,0.0946526750922203,-0.09329420328140259
1783693554387402800,7.05240283203125,0.07827162742614746,0.10228980332612991,-0.1378231644630432
1783693554397364700,7.06236474609375,0.10262330621480942,0.08960836380720139,-0.19009995460510254
1783693554407327700,7.07232763671875,0.12318545579910278,0.0665864497423172,-0.2419484555721283
1783693554417290800,7.082290771484375,0.12303978204727173,0.023984400555491447,-0.27418363094329834
1783693554427252700,7.092252685546875,0.11353613436222076,0.007000593468546867,-0.2797982096672058
1783693554437215700,7.1022158203125,0.10850143432617188,0.029256364330649376,-0.2678680419921875
1783693554447178500,7.112178466796875,0.10382077842950821,0.06072188913822174,-0.24319002032279968
1783693554457140700,7.122140625,0.09321260452270508,0.09460155665874481,-0.21177883446216583
1783693554467103700,7.132103759765625,0.08080248534679413,0.1198776438832283,-0.1813259720802307
1783693554477066800,7.142066650390625,0.0675593838095665,0.13035984337329865,-0.1490173041820526
1783693554487028500,7.152028564453125,0.057501014322042465,0.1430409848690033,-0.11000128835439682
1783693554496991700,7.16199169921875,0.048840414732694626,0.15203794836997986,-0.06195679306983948
1783693554506954800,7.171954833984375,0.03579006344079971,0.14392516016960144,0.006480799987912178
1783693554516916700,7.181916748046875,0.010573389939963818,0.13101361691951752,0.08467600494623184
1783693554526879700,7.191879638671875,-0.006198381073772907,0.11716440320014954,0.15753155946731567
1783693554536841700,7.201841796875,-0.014399319887161255,0.08747228980064392,0.20256881415843964
1783693554546804700,7.2118046875,-0.01500706560909748,0.05365036800503731,0.2144196778535843
1783693554556767700,7.221767822265625,-0.007711336482316256,0.027458978816866875,0.20701609551906586
1783693554566729700,7.231729736328125,-0.010987515561282635,0.022943846881389618,0.19324812293052673
1783693554576692500,7.2416923828125,-0.021530436351895332,0.0111977094784379,0.17765052616596222
1783693554586655700,7.25165576171875,-0.030678890645503998,-0.0005657181609421968,0.1514149159193039
1783693554596617700,7.26161767578125,-0.03791389986872673,-0.008455333299934864,0.1263473778963089
1783693554606580700,7.271580810546875,-0.03595491871237755,-0.014237582683563232,0.09787308424711227
1783693554616543700,7.281543701171875,-0.0320667065680027,-0.032597947865724564,0.06065647676587105
1783693554626505700,7.291505615234375,-0.023729948326945305,-0.07014025747776031,0.023549320176243782
1783693554636468700,7.30146875,-0.012540142983198166,-0.09492257237434387,-0.0061308108270168304
1783693554646431700,7.311431640625,0.005826352164149284,-0.09457851946353912,-0.026960667222738266
1783693554656393700,7.321393798828125,0.022341413423419,-0.0860912948846817,-0.0427742525935173
1783693554666356700,7.331356689453125,0.02326107770204544,-0.0717591792345047,-0.05538938567042351
1783693554676319500,7.341319580078125,0.013312572613358498,-0.06039174646139145,-0.07040855288505554
1783693554686281700,7.35128173828125,0.0022552486043423414,-0.0517074353992939,-0.08542228490114212
1783693554696244700,7.36124462890625,-0.008285276591777802,-0.06586240231990814,-0.11120274662971497
1783693554706207700,7.371207763671875,-0.014207299798727036,-0.08902607858181,-0.14226840436458588
1783693554716169500,7.38116943359375,-0.012116452679038048,-0.09139815717935562,-0.16011931002140045
1783693554726132700,7.3911328125,-0.01670256070792675,-0.07711135596036911,-0.16184094548225403
1783693554736094700,7.4010947265625,-0.02536742016673088,-0.06524244695901871,-0.1687859296798706
1783693554746057700,7.4110576171875,-0.028912009671330452,-0.07384230941534042,-0.18019379675388336
1783693554756020700,7.421020751953125,-0.026586005464196205,-0.08646542578935623,-0.19767211377620697
1783693554765982700,7.430982666015625,-0.023410405963659286,-0.07626395672559738,-0.21046823263168335
1783693554775945700,7.44094580078125,-0.017475550994277,-0.04802566021680832,-0.2031027227640152
1783693554785908700,7.45090869140625,-0.015163707546889782,-0.023199904710054398,-0.18298718333244324
1783693554795870700,7.46087060546875,-0.01196232158690691,-0.017092743888497353,-0.15929996967315674
1783693554805833700,7.470833740234375,-0.004873719532042742,-0.02104356698691845,-0.1353716105222702
1783693554815796700,7.480796630859375,-0.0017852517776191235,-0.030461039394140244,-0.11375287175178528
1783693554825758700,7.4907587890625,0.0008200285956263542,-0.03912239521741867,-0.09303151816129684
1783693554835721700,7.5007216796875,0.003299431409686804,-0.04243084043264389,-0.07650101184844971
1783693554845684700,7.510684814453125,0.0036074668169021606,-0.052093107253313065,-0.0672297403216362
1783693554855646700,7.520646728515625,0.0065726302564144135,-0.06529280543327332,-0.05995505303144455
1783693554865609700,7.530609619140625,0.015152680687606335,-0.06703931093215942,-0.046284884214401245
1783693554875572700,7.54057275390625,0.022818589583039284,-0.05160336196422577,-0.02885635942220688
1783693554885534700,7.55053466796875,0.020243454724550247,-0.03289277106523514,-0.007586918771266937
1783693554895497700,7.560497802734375,0.022459737956523895,-0.021634258329868317,0.014733566902577877
1783693554905459700,7.570459716796875,0.02337067760527134,-0.022354356944561005,0.02833895944058895
1783693554915422700,7.580422607421875,0.02554861083626747,-0.02960108406841755,0.03633776679635048
1783693554925385700,7.5903857421875,0.026832791045308113,-0.029333731159567833,0.04159943014383316
1783693554935347700,7.60034765625,0.02669830247759819,-0.026688680052757263,0.04317469149827957
1783693554945310700,7.610310791015625,0.02592380717396736,-0.026740044355392456,0.04401133954524994
1783693554955273700,7.620273681640625,0.02423509769141674,-0.024504587054252625,0.05037496238946915
1783693554965235700,7.630235595703125,0.020862657576799393,-0.023224687203764915,0.05420933663845062
1783693554975198700,7.64019873046875,0.018908962607383728,-0.014621611684560776,0.060956455767154694
1783693554985161700,7.65016162109375,0.015424991957843304,-0.005307720974087715,0.06804493069648743
1783693554995123700,7.660123779296875,0.008889860473573208,-0.004678682424128056,0.07113020122051239
1783693555005086700,7.670086669921875,0.006127914413809776,-0.016636265441775322,0.06378360092639923
1783693555015049700,7.6800498046875,0.006620865780860186,-0.025598866865038872,0.049802009016275406
1783693555025011700,7.69001171875,0.005989696364849806,-0.027957096695899963,0.03673015162348747
1783693555034974700,7.699974609375,0.0041824751533567905,-0.029788818210363388,0.026641564443707466
1783693555044937700,7.709937744140625,0.005190183408558369,-0.03239982947707176,0.018714994192123413
1783693555054899700,7.719899658203125,0.0033555319532752037,-0.030299929901957512,0.00646871468052268
1783693555064862700,7.72986279296875,0.0017638771096244454,-0.03116355650126934,-0.003269087988883257
1783693555074824700,7.73982470703125,0.00236575142480433,-0.037256598472595215,-0.011938476003706455
1783693555084787700,7.74978759765625,0.004286858253180981,-0.04338935390114784,-0.023836195468902588
1783693555094750700,7.759750732421875,0.00780063308775425,-0.046342797577381134,-0.03207548335194588
1783693555104712700,7.769712646484375,0.008836681954562664,-0.05740528926253319,-0.045110542327165604
1783693555114675700,7.77967578125,0.010826862417161465,-0.07136371731758118,-0.059506792575120926
1783693555124638700,7.789638671875,0.018348591402173042,-0.07005157321691513,-0.06225581467151642
1783693555134600700,7.7996005859375,0.02784062922000885,-0.059727564454078674,-0.05879370495676994
1783693555144563700,7.809563720703125,0.034334875643253326,-0.05864820256829262,-0.0519966185092926
1783693555154526700,7.819526611328125,0.041723813861608505,-0.076959028840065,-0.04443963244557381
1783693555164488700,7.82948876953125,0.04360509291291237,-0.09002584964036942,-0.0332026369869709
1783693555174451700,7.83945166015625,0.04624508321285248,-0.07902779430150986,-0.0341603085398674
1783693555184414700,7.849414794921875,0.04883992299437523,-0.0664893314242363,-0.037446603178977966
1783693555194376700,7.859376708984375,0.037867967039346695,-0.040525373071432114,-0.03369127959012985
1783693555204339700,7.869339599609375,0.02781600132584572,-0.019181715324521065,-0.029957959428429604
1783693555214301700,7.8793017578125,0.025871362537145615,-0.014609601348638535,-0.019421961158514023
1783693555224264700,7.8892646484375,0.028567630797624588,0.0015978512819856405,-0.006623764988034964
1783693555234227700,7.899227783203125,0.033129360526800156,0.007522852160036564,0.002144693164154887
1783693555244189700,7.909189697265625,0.029351094737648964,-0.0018440396524965763,0.014030651189386845
1783693555254152700,7.919152587890625,0.019302722066640854,0.0029360682237893343,0.01789489947259426
1783693555264115700,7.92911572265625,0.009106932207942009,0.0039978791028261185,0.020889194682240486
1783693555274077700,7.93907763671875,-0.0035332292318344116,0.0011134094092994928,0.02073686197400093
1783693555284040700,7.949040771484375,-0.012103614397346973,0.003792839590460062,0.017730575054883957
1783693555294003700,7.959003662109375,-0.014883955009281635,0.015330452471971512,0.01350573543459177
1783693555303965700,7.968965576171875,-0.017336362972855568,0.02507471852004528,0.006004455033689737
1783693555313928700,7.9789287109375,-0.015370417386293411,0.029608750715851784,0.003216658253222704
1783693555323891700,7.9888916015625,-0.015667395666241646,0.033955272287130356,-0.0020129845943301916
1783693555333853700,7.998853759765625,-0.015126241371035576,0.031491052359342575,0.0005873258924111724
1783693555343816700,8.008816650390624,-0.01166626252233982,0.023065607994794846,0.0016848145751282573
1783693555353779700,8.01877978515625,-0.00680359685793519,0.014855881221592426,0.008797585032880306
1783693555363741700,8.02874169921875,-0.0026357676833868027,0.009213697165250778,0.011941982433199883
1783693555373704700,8.03870458984375,0.0010503134690225124,0.002728633815422654,0.014508204534649849
1783693555383667000,8.0486669921875,0.00578850694000721,-0.00942496582865715,0.022056294605135918
1783693555393630000,8.0586298828125,0.01168341375887394,-0.016317760571837425,0.03548155725002289
1783693555403593000,8.068593017578126,0.015416656620800495,-0.01602855697274208,0.055641211569309235
1783693555413555200,8.07855517578125,0.020623136311769485,-0.011857780627906322,0.07372833788394928
1783693555423518200,8.088518310546876,0.02080521173775196,-0.011281992308795452,0.0883905291557312
1783693555433481000,8.09848095703125,0.018293052911758423,-0.011444179341197014,0.09626469761133194
1783693555443443000,8.10844287109375,0.0170711949467659,-0.015016809105873108,0.09780240803956985
1783693555453406200,8.11840625,0.011672966182231903,-0.018713010475039482,0.0929887443780899
1783693555463369200,8.128369140625,0.006187448278069496,-0.024317629635334015,0.07963303476572037
1783693555473331000,8.1383310546875,0.007231673691421747,-0.03181762248277664,0.0734047070145607
1783693555483294000,8.1482939453125,0.006453885231167078,-0.021211309358477592,0.07124018669128418
1783693555493257000,8.158257080078124,0.00390683813020587,-0.008491519838571548,0.06645262241363525
1783693555503219200,8.16821923828125,0.00012647375115193427,-0.0037808911874890327,0.05469124764204025
1783693555513182200,8.17818212890625,-0.0014338722685351968,-0.011729095131158829,0.03866514191031456
1783693555523144000,8.18814404296875,-0.00041606550803408027,-0.010471849702298641,0.023508302867412567
1783693555533107000,8.19810693359375,-0.006353316828608513,-0.009383149445056915,0.0006336127989925444
1783693555543070000,8.208070068359374,-0.011462646536529064,-0.014345715753734112,-0.023361461237072945
1783693555553032200,8.2180322265625,-0.015819845721125603,-0.01750768907368183,-0.0394647978246212
1783693555562995000,8.227994873046875,-0.019821636378765106,-0.014515606686472893,-0.044472236186265945
1783693555572958000,8.2379580078125,-0.02008848451077938,-0.003856038674712181,-0.0400061160326004
1783693555582920200,8.247920166015625,-0.015598746947944164,0.007124453783035278,-0.03766530752182007
1783693555592883200,8.25788330078125,-0.007991161197423935,0.011998305097222328,-0.033685214817523956
1783693555602846200,8.26784619140625,-0.0010571307502686977,0.011875273659825325,-0.03399978578090668
1783693555612808000,8.277807861328125,0.004026311449706554,0.007411282975226641,-0.03715323656797409
1783693555622771000,8.28777099609375,0.009885168634355068,0.0024495215620845556,-0.039875831454992294
1783693555632734000,8.29773388671875,0.012423960492014885,-0.00010072148870676756,-0.048071179538965225
1783693555642696200,8.3076962890625,0.014167779125273228,-0.008259059861302376,-0.05542070046067238
1783693555652659200,8.3176591796875,0.024279801174998283,-0.015940416604280472,-0.05237697437405586
1783693555662622000,8.3276220703125,0.035819023847579956,-0.014744616113603115,-0.042327601462602615
1783693555672584000,8.337583984375,0.04149502143263817,-0.010889691300690174,-0.023247379809617996
1783693555682547200,8.347547119140625,0.04530857130885124,-0.019014757126569748,-0.0070021445862948895
1783693555692509200,8.35750927734375,0.0483592227101326,-0.027821030467748642,0.0016563241370022297
1783693555702472000,8.367471923828125,0.04818781092762947,-0.01979503594338894,0.014075489714741707
1783693555712435000,8.37743505859375,0.04059247300028801,0.004459703806787729,0.03670090436935425
1783693555722397200,8.387397216796876,0.03709064796566963,0.020683659240603447,0.05148625001311302
1783693555732360200,8.397360107421875,0.034525755792856216,0.023789703845977783,0.052712369710206985
1783693555742323200,8.4073232421875,0.03398515284061432,0.0155213987454772,0.05369747057557106
1783693555752285000,8.417284912109375,0.02984047494828701,-0.0009260178776457906,0.04896103963255882
1783693555762248000,8.427248046875,0.03145505115389824,-0.010214322246611118,0.04205881431698799
1783693555772211200,8.437211181640626,0.028595877811312675,-0.010151737369596958,0.04656461626291275
1783693555782173200,8.447173095703125,0.028547964990139008,-0.004660583566874266,0.050290971994400024
1783693555792136200,8.45713623046875,0.02741239406168461,-0.007681140676140785,0.04652206599712372
1783693555802099000,8.467098876953125,0.0313742533326149,-0.0036035552620887756,0.03804932162165642
1783693555812061200,8.477061279296874,0.030029620975255966,0.006006195209920406,0.03410757705569267
1783693555822024200,8.487024169921876,0.03030577301979065,0.011557276360690594,0.025152433663606644
1783693555831986200,8.496986083984375,0.025002354755997658,0.0008495051297359169,0.018498525023460388
1783693555841949000,8.506948974609376,0.020768634974956512,-0.014724618755280972,0.012950988486409187
1783693555851912000,8.516911865234375,0.018510008230805397,-0.02083737403154373,0.009956263937056065
1783693555861874200,8.526874267578124,0.014195713214576244,-0.019336698576807976,0.005885947961360216
1783693555871837200,8.536837158203125,0.009273924864828587,-0.01858462207019329,-0.0008220220915973186
1783693555881800200,8.54680029296875,0.001984114060178399,-0.013466821052134037,-0.006090768147259951
1783693555891762000,8.556761962890626,-0.004937441553920507,-0.010585281066596508,-0.0066529614850878716
1783693555901725000,8.566724853515625,-0.0072175017558038235,-0.0023555606603622437,-0.000131312757730484
1783693555911688200,8.576688232421875,-0.010860173963010311,0.0028482559137046337,0.009740758687257767
1783693555921650200,8.586650146484375,-0.007973426952958107,0.001263399957679212,0.01672053523361683
1783693555931613000,8.596613037109375,-0.005890036933124065,0.004665055777877569,0.026517238467931747
1783693555941575200,8.6065751953125,-0.006167314480990171,0.01117249671369791,0.029176615178585052
1783693555951538200,8.6165380859375,-0.0069470880553126335,0.014788802713155746,0.03061365708708763
1783693555961501200,8.626501220703124,-0.006063692271709442,0.004224024713039398,0.024478858336806297
1783693555971463000,8.636462890625,0.0031010438688099384,-0.007380965165793896,0.02612788788974285
1783693555981426000,8.646426025390625,0.01216341182589531,-0.0015859248815104365,0.03814662620425224
1783693555991389000,8.656388916015626,0.017666567116975784,0.005707674194127321,0.049065057188272476
1783693556001351200,8.66635107421875,0.023292750120162964,0.00326365209184587,0.05670119822025299
1783693556011314200,8.676314208984374,0.029008159413933754,0.002995471702888608,0.05875103548169136
1783693556021277200,8.686277099609375,0.03206053003668785,0.002527030184864998,0.057953257113695145
1783693556031239000,8.696239013671875,0.03656020760536194,-0.0015374860959127545,0.04860369488596916
1783693556041202200,8.7062021484375,0.04201839864253998,-0.00818820483982563,0.032876987010240555
1783693556051165200,8.716165283203125,0.04497184231877327,-0.010711283423006535,0.02099422737956047
1783693556061127200,8.726127197265624,0.04737114906311035,-0.010252614505589008,0.015178075060248375
1783693556071090000,8.73608984375,0.04634317010641098,-0.0029137413948774338,0.013641164638102055
1783693556081053000,8.746052978515625,0.04074401408433914,0.006730020046234131,0.018801596015691757
1783693556091015200,8.75601513671875,0.030308950692415237,0.0159956905990839,0.02068285271525383
1783693556100978200,8.765978271484375,0.017734253779053688,0.010733052156865597,0.015377453528344631
1783693556110940000,8.77593994140625,0.010582602582871914,0.002634379779919982,0.0010781432501971722
1783693556120903000,8.78590283203125,0.005871760658919811,0.0015635051531717181,-0.012602190487086773
1783693556130866200,8.7958662109375,-0.0017579294508323073,0.002788559067994356,-0.027588864788413048
1783693556140828200,8.805828125,-0.005639682523906231,0.00018829305190593004,-0.03964021056890488
1783693556150791200,8.815791259765625,-0.008180604316294193,0.0015073566464707255,-0.04388688877224922
1783693556160754000,8.82575390625,-0.011994624510407448,0.007118305191397667,-0.03834003955125809
1783693556170716200,8.835716064453125,-0.01227505598217249,0.009609159082174301,-0.026344629004597664
1783693556180679200,8.84567919921875,-0.007890723645687103,0.006432320456951857,-0.01908736675977707
1783693556190642200,8.85564208984375,-0.002947098109871149,0.0009576602024026215,-0.0034769829362630844
1783693556200604000,8.86560400390625,0.0023861366789788008,-0.0006165736122056842,0.007955498993396759
1783693556210567000,8.87556689453125,0.00934204738587141,-0.0007790265372022986,0.018705882132053375
1783693556220529200,8.885529052734375,0.014383260160684586,0.0001792160328477621,0.021455904468894005
1783693556230492200,8.8954921875,0.01929173246026039,0.002056478289887309,0.02557235211133957
1783693556240455200,8.905455078125,0.025312714278697968,-0.0014328259276226163,0.025614066049456596
1783693556250417000,8.9154169921875,0.026331907138228416,-0.005080025177448988,0.027888406068086624
1783693556260380000,8.9253798828125,0.026662785559892654,-0.010421755723655224,0.025060703977942467
1783693556270343200,8.93534326171875,0.022040337324142456,-0.01879846304655075,0.02653289958834648
1783693556280305200,8.94530517578125,0.018999608233571053,-0.020036058500409126,0.02735433168709278
1783693556290268200,8.95526806640625,0.015003267675638199,-0.015515608713030815,0.026433410122990608
1783693556300231000,8.96523095703125,0.011164648458361626,-0.0034882365725934505,0.023899996653199196
1783693556310193200,8.975193115234376,0.009657831862568855,-0.0021151104010641575,0.016147801652550697
1783693556320156200,8.98515625,0.005561580881476402,-0.003423248650506139,0.008579043671488762
1783693556330119200,8.995119140625,-0.0037709344178438187,-0.003058927832171321,0.002554973354563117
1783693556340081000,9.005080810546875,-0.010319286026060581,0.002561966422945261,-0.005683204624801874
1783693556350044000,9.0150439453125,-0.01833966188132763,0.0042277732864022255,-0.011171713471412659
1783693556360006100,9.025006103515626,-0.024890612810850143,0.00024122209288179874,-0.008268049918115139
1783693556369969200,9.03496923828125,-0.02433188073337078,-0.0016392359975725412,-0.001295894500799477
1783693556379932000,9.044931884765624,-0.02509765699505806,0.0009920260636135936,0.004108228720724583
1783693556389894000,9.054893798828125,-0.02274688333272934,-0.0030413311906158924,0.0038613537326455116
1783693556399857200,9.064857177734375,-0.023239336907863617,-0.009951191022992134,-0.0013765443582087755
1783693556409820200,9.074820068359376,-0.020155662670731544,-0.024143708869814873,-0.00970451533794403
1783693556419782000,9.084781982421875,-0.019139498472213745,-0.0342877134680748,-0.013530192896723747
1783693556429745000,9.094744873046874,-0.019602354615926743,-0.032766517251729965,-0.009658223018050194
1783693556439708000,9.1047080078125,-0.019636543467640877,-0.02089540846645832,-0.003069531172513962
1783693556449670100,9.114670166015625,-0.02110900543630123,-0.01538346242159605,0.010626306757330894
1783693556459633000,9.1246328125,-0.024148782715201378,-0.0006005838513374329,0.01993253082036972
1783693556469595000,9.134594970703125,-0.02746468409895897,0.03349240496754646,0.029449069872498512
1783693556479558000,9.144557861328124,-0.02871297486126423,0.04736430570483208,0.030090779066085815
1783693556489521200,9.154521240234375,-0.027050897479057312,0.04029787331819534,0.015039391815662384
1783693556499483100,9.164483154296875,-0.020948588848114014,0.018254084512591362,-0.00863909162580967
1783693556509446000,9.17444580078125,-0.009733219631016254,-0.007940768264234066,-0.03145519271492958
1783693556519409000,9.184408935546875,0.006149649620056152,-0.021572431549429893,-0.049505509436130524
1783693556529371100,9.19437109375,0.023842891678214073,-0.02377246879041195,-0.06347032636404037
1783693556539334100,9.204334228515625,0.037546318024396896,-0.018935054540634155,-0.06842696666717529
1783693556549297200,9.214297119140625,0.04901069402694702,-0.009572711773216724,-0.06113283336162567
1783693556559259000,9.2242587890625,0.04969899356365204,0.002503876108676195,-0.040129054337739944
1783693556569222000,9.234221923828125,0.04950591176748276,0.00567809771746397,-0.019063714891672134
1783693556579185000,9.244184814453124,0.04789870232343674,0.0014899825910106301,0.0014006084529682994
1783693556589147100,9.254147216796875,0.033680882304906845,-0.018145237118005753,0.021386034786701202
1783693556599110000,9.26410986328125,0.03610466420650482,-0.006344216410070658,0.023971159011125565
1783693556609071900,9.27407177734375,0.029497891664505005,0.002763794269412756,0.03687683492898941
1783693556619035000,9.284034912109375,0.014501048251986504,0.006090650334954262,0.04460281878709793
1783693556628998100,9.293998046875,0.004628444090485573,-0.0002921479754149914,0.04358415678143501
1783693556638959900,9.3039599609375,-0.006820683367550373,-0.003987308591604233,0.042440980672836304
1783693556648923000,9.3139228515625,-0.012839427217841148,-0.004307153634727001,0.03951975703239441
1783693556658886000,9.323885986328126,-0.014636596664786339,-0.007937551476061344,0.03605513647198677
1783693556668848000,9.33384814453125,-0.004011116456240416,-0.012545619159936905,0.028514927253127098
1783693556678811100,9.34381103515625,0.0093147661536932,-0.0003914771368727088,0.023976845666766167
1783693556688774100,9.353774169921875,0.018908005207777023,0.013865755870938301,0.024977128952741623
1783693556698735900,9.36373583984375,0.024038325995206833,0.022107144817709923,0.021233852952718735
1783693556708699000,9.373698974609376,0.025087878108024597,0.022115135565400124,0.011482154950499535
1783693556718661000,9.3836611328125,0.024941105395555496,0.013832484371960163,-0.002511014696210623
1783693556728624000,9.3936240234375,0.02381085976958275,0.0013449216494336724,-0.010581990703940392
1783693556738587000,9.4035869140625,0.028078969568014145,-0.0014474226627498865,-0.015230104327201843
1783693556748548900,9.413548828125,0.030323214828968048,0.003076222725212574,-0.008510416373610497
1783693556758512000,9.42351220703125,0.02899830974638462,0.007819057442247868,-0.001446652109734714
1783693556768475100,9.43347509765625,0.02761799283325672,0.010702461935579777,-0.00046580994967371225
1783693556778436900,9.443436767578126,0.025930769741535187,0.01490143034607172,-0.0019636121578514576
1783693556788399900,9.45339990234375,0.022197283804416656,0.017208527773618698,-0.010066546499729156
1783693556798363000,9.46336279296875,0.020554007962346077,0.01644047349691391,-0.024241860955953598
1783693556808325000,9.4733251953125,0.022957777604460716,0.008951131254434586,-0.033546678721904755
1783693556818288000,9.4832880859375,0.025366581976413727,0.005899433046579361,-0.034968066960573196
1783693556828249900,9.493249755859376,0.026818804442882538,0.006469349376857281,-0.03331291303038597
1783693556838212900,9.503212890625,0.029733574017882347,0.012165047228336334,-0.025582605972886086
1783693556848176000,9.513176025390624,0.026842180639505386,0.012278764508664608,-0.019513795152306557
1783693556858138000,9.52313818359375,0.021972984075546265,0.007577200420200825,-0.02338799647986889
1783693556868100900,9.533100830078125,0.022231044247746468,0.0011669714003801346,-0.03693230077624321
1783693556878063900,9.54306396484375,0.02391669899225235,-0.010839072056114674,-0.04318423941731453
1783693556888026000,9.553026123046875,0.024731891229748726,-0.014195187017321587,-0.04956357553601265
1783693556897989000,9.562989013671874,0.02363651618361473,-0.0055271415039896965,-0.04366253688931465
1783693556907952000,9.5729521484375,0.016721351072192192,0.013397547416388988,-0.01922989822924137
1783693556917913900,9.582913818359375,0.012416042387485504,0.025220924988389015,0.0048767137341201305
1783693556927876900,9.592876953125,0.004994345363229513,0.02704678848385811,0.020491626113653183
1783693556937839900,9.60283984375,0.0025608339346945286,0.017121706157922745,0.025785034522414207
1783693556947802000,9.612802001953124,0.0006540106842294335,-0.0011848639696836472,0.024701127782464027
1783693556957765000,9.62276513671875,0.0027289038989692926,-0.013774709776043892,0.02047288604080677
1783693556967726800,9.632726806640624,0.004841323476284742,-0.019518615677952766,0.0205402635037899
1783693556977689900,9.64268994140625,0.0074021946638822556,-0.015116925351321697,0.02332720346748829
1783693556987653000,9.652653076171875,0.007669576443731785,-0.010142939165234566,0.025300605222582817
1783693556997615000,9.662614990234376,0.010221761651337147,-0.0037587936967611313,0.027814678847789764
1783693557007577900,9.672577880859375,0.014084942638874054,0.00423574959859252,0.03147439658641815
1783693557017540900,9.682540771484375,0.017997296527028084,0.0066205840557813644,0.030462082475423813
1783693557027503000,9.692503173828126,0.02049241214990616,0.0026554036885499954,0.01859423704445362
1783693557037466000,9.702466064453125,0.018849076703190804,0.0003035636618733406,0.00366359855979681
1783693557047429000,9.71242919921875,0.01605302467942238,-0.0025438880547881126,-0.015486660413444042
1783693557057390800,9.722390869140625,0.014579079113900661,-0.008358064107596874,-0.03549894317984581
1783693557067353900,9.732353759765624,0.013465344905853271,-0.018988870084285736,-0.05350164324045181
1783693557077316000,9.742316162109375,0.00978725403547287,-0.02069489099085331,-0.07397443056106567
1783693557087279000,9.752279052734375,0.007899338379502296,-0.00939110480248928,-0.08803725242614746
1783693557097241900,9.762241943359374,0.004491213709115982,0.0052306996658444405,-0.09110898524522781
1783693557107203800,9.772203857421875,-0.0029147707391530275,0.010153819806873798,-0.08096873760223389
1783693557117167000,9.7821669921875,-0.007437943946570158,0.010754890739917755,-0.06449820101261139
1783693557127130000,9.792130126953126,-0.009961022064089775,0.00752021512016654,-0.04484354332089424
1783693557137091800,9.802091796875,-0.012332893908023834,0.009594546630978584,-0.032358426600694656
1783693557147054800,9.812054931640626,-0.006285388022661209,0.010673127137124538,-0.021342795342206955
1783693557157017900,9.822017822265625,-0.008020281791687012,0.012599688954651356,-0.011943338438868523
1783693557166980000,9.83197998046875,-0.011295437812805176,0.0005965555901639163,-0.003965307027101517
1783693557176943000,9.841943115234375,-0.014455974102020264,-0.010578603483736515,0.007402503397315741
1783693557186904800,9.85190478515625,-0.0161856971681118,-0.028414592146873474,0.017845025286078453
1783693557196867800,9.861867919921876,-0.022973839193582535,-0.07597868889570236,0.036553528159856796
1783693557206831000,9.8718310546875,-0.006475022993981838,-0.06751223653554916,0.0561370849609375
1783693557216793000,9.88179296875,-0.004792601335793734,-0.04851217940449715,0.10096405446529388
1783693557226756000,9.891756103515625,-0.007208621129393578,-0.018776120617985725,0.13838624954223633
1783693557236718800,9.90171875,-0.01655871979892254,-0.013113413006067276,0.1638723909854889
1783693557246681000,9.91168115234375,-0.030611155554652214,-0.02365793287754059,0.16739708185195923
1783693557256644000,9.92164404296875,-0.035694144666194916,-0.05133857950568199,0.17706084251403809
1783693557266607000,9.931607177734374,-0.03699083626270294,-0.06682512909173965,0.18609747290611267
1783693557276568800,9.94156884765625,-0.04336918517947197,-0.04307533800601959,0.2069888561964035
1783693557286531800,9.95153173828125,-0.055077239871025085,-0.020807849243283272,0.22470234334468842
1783693557296494000,9.961494140625,-0.06745927035808563,-0.029978664591908455,0.2372940331697464
1783693557306457000,9.97145703125,-0.06970778107643127,-0.051758795976638794,0.25219014286994934
1783693557316420000,9.981420166015624,-0.06662488728761673,-0.04230456054210663,0.2633322775363922
1783693557326381800,9.9913818359375,-0.05842367932200432,-0.008042197674512863,0.26664260029792786
1783693557336344800,10.0013447265625,-0.05787643790245056,0.02580629102885723,0.2570810616016388
1783693557346308000,10.01130810546875,-0.0676177442073822,0.0469784215092659,0.22512897849082947
1783693557356270000,10.02127001953125,-0.07617833465337753,0.0391487181186676,0.1831180304288864
1783693557366232800,10.03123291015625,-0.0774577185511589,0.01602315902709961,0.1285325437784195
1783693557376195800,10.04119580078125,-0.07184342294931412,-0.033251989632844925,0.07681700587272644
1783693557386158300,10.051158447265625,-0.05735981836915016,-0.08019553124904633,0.03338724374771118
1783693557396121300,10.061121337890626,-0.0313851498067379,-0.06965260207653046,0.008601787500083447
1783693557406083300,10.071083251953125,-0.009370926767587662,-0.02436475083231926,-0.009661106392741203
1783693557416046000,10.081046142578124,0.0008700711186975241,0.009928256273269653,-0.03222096338868141
1783693557426009000,10.091009033203125,0.006977231707423925,0.018533729016780853,-0.06829054653644562
1783693557435971300,10.100971435546874,0.010885026305913925,0.009242512285709381,-0.10895825177431107
1783693557445934300,10.110934326171876,0.01621188037097454,-0.004810455720871687,-0.1455623358488083
1783693557455897300,10.1208974609375,0.024037253111600876,-0.010677936486899853,-0.17929399013519287
1783693557465859000,10.130859130859376,0.02112215757369995,-0.0076057142578065395,-0.18507198989391327
1783693557475822300,10.140822265625,0.02054026536643505,0.0000764115247875452,-0.17095530033111572
1783693557485785300,10.150785400390625,0.020452912896871567,0.010456082411110401,-0.1481461226940155
1783693557495747300,10.160747314453126,0.021319521591067314,0.025318928062915802,-0.11464302241802216
1783693557505710000,10.1707099609375,0.018678998574614525,0.03326660022139549,-0.0652962476015091
1783693557515672300,10.18067236328125,0.0028958262410014868,0.038236889988183975,-0.028638115152716637
1783693557525635300,10.19063525390625,-0.010850612074136734,0.025548260658979416,-0.0018246107501909137
1783693557535598300,10.200598388671875,-0.02544313669204712,0.016320407390594482,0.02327355183660984
1783693557545560000,10.21056005859375,-0.031791046261787415,0.012634058482944965,0.04891553148627281
1783693557555523000,10.220523193359375,-0.027212876826524734,0.018262606114149094,0.07016890496015549
1783693557565486000,10.230486083984376,-0.01720311865210533,0.023103434592485428,0.08366260677576065
1783693557575448300,10.2404482421875,-0.0122165996581316,0.02140887640416622,0.08525064587593079
1783693557585411300,10.250411376953124,-0.009680471383035183,0.013640168122947216,0.07740896940231323
1783693557595374300,10.260374267578126,-0.0074068354442715645,-0.004677559714764357,0.05377798527479172
1783693557605336000,10.270336181640625,-0.0028472375124692917,-0.018114272505044937,0.021566789597272873
1783693557615299300,10.28029931640625,0.006012841127812862,-0.02801113948225975,-0.0010993124451488256
1783693557625262300,10.290262451171875,0.01306702196598053,-0.034247998148202896,-0.01711023598909378
1783693557635224300,10.300224365234374,0.02360990270972252,-0.03148522600531578,-0.025146113708615303
1783693557645187000,10.31018701171875,0.02608371339738369,-0.014425285160541534,-0.03097604028880596
1783693557655149300,10.3201494140625,0.025662295520305634,0.00459581334143877,-0.03281212970614433
1783693557665112300,10.3301123046875,0.019671514630317688,0.015832222998142242,-0.041667405515909195
1783693557675075300,10.340075439453125,0.010411351919174194,0.016063399612903595,-0.0663188025355339
1783693557685037000,10.350037109375,-0.002307638293132186,0.0147017240524292,-0.08858096599578857
1783693557695000000,10.36,-0.010482124984264374,0.010681136511266232,-0.10767491906881332
1783693557704963300,10.36996337890625,-0.017185568809509277,0.011641738936305046,-0.12930165231227875
1783693557714925300,10.37992529296875,-0.018610196188092232,0.020196080207824707,-0.13890831172466278
1783693557724888300,10.389888427734375,-0.01926480047404766,0.02008076384663582,-0.1366739273071289
1783693557734851000,10.39985107421875,-0.019180936738848686,0.02392505668103695,-0.11607389897108078
1783693557744813300,10.409813232421875,-0.016579294577240944,0.018200591206550598,-0.10201507061719894
1783693557754776300,10.4197763671875,-0.012557019479572773,0.012719538062810898,-0.07960259914398193
1783693557764738300,10.42973828125,-0.014984757639467716,0.014426890760660172,-0.03536403179168701
1783693557774701300,10.439701416015625,-0.02959911897778511,0.0177766140550375,0.019384168088436127
1783693557784664000,10.4496640625,-0.04336260259151459,0.017580073326826096,0.06962497532367706
1783693557794626300,10.459626220703125,-0.04201245680451393,0.0014628729550167918,0.09412173926830292
1783693557804589300,10.46958935546875,-0.03227274492383003,-0.014365891925990582,0.10305345058441162
1783693557814552300,10.47955224609375,-0.014372076839208603,-0.021639006212353706,0.10321564227342606
1783693557824514000,10.48951416015625,-0.0004493369779083878,-0.010338681749999523,0.09463866800069809
1783693557834477300,10.499477294921874,0.007665048353374004,-0.0024682411458343267,0.0665321946144104
1783693557844440300,10.5094404296875,0.016077974811196327,-0.016438649967312813,0.03259367495775223
1783693557854402300,10.51940234375,0.03282415494322777,-0.026386084035038948,-0.002398987067863345
1783693557864365300,10.529365234375,0.04312313348054886,-0.01905892975628376,-0.02698342502117157
1783693557874327300,10.539327392578125,0.05294084921479225,-0.02708461321890354,-0.046776898205280304
1783693557884290300,10.549290283203124,0.05943629890680313,-0.020560134202241898,-0.051899753510951996
1783693557894253300,10.55925341796875,0.057778336107730865,0.0015446431934833527,-0.05599825456738472
1783693557904215300,10.56921533203125,0.05503208562731743,0.00558838713914156,-0.07667823880910873
1783693557914178000,10.579177978515625,0.04895045980811119,0.006501267664134502,-0.1014852449297905
1783693557924141000,10.58914111328125,0.030089421197772026,0.04480684548616409,-0.11026275902986526
1783693557934103300,10.599103271484376,0.01783140003681183,0.0834948718547821,-0.10703080147504807
1783693557944066300,10.60906640625,-0.003533277427777648,0.1642102152109146,-0.021148119121789932
1783693557954028000,10.619028076171874,0.004083259962499142,0.08719426393508911,-0.0226686242967844
1783693557963991000,10.628990966796875,0.017739418894052505,0.05451648309826851,-0.0142357237637043
1783693557973954300,10.638954345703125,0.004895179532468319,0.026602013036608696,0.005452177487313747
1783693557983916300,10.648916259765626,-0.0037883236072957516,-0.020151643082499504,0.007368854712694883
1783693557993879300,10.65887939453125,-0.01535943802446127,-0.07783887535333633,-0.0049016703851521015
1783693558003842300,10.66884228515625,-0.014541581273078918,-0.12366387993097305,-0.021077444776892662
1783693558013804300,10.67880419921875,-0.019822442904114723,-0.144535630941391,-0.0024167229421436787
1783693558023767300,10.688767333984375,-0.04038497433066368,-0.1278035193681717,0.05938059836626053
1783693558033730300,10.698730224609376,-0.040505703538656235,-0.06825122982263565,0.15498743951320648
