time,seconds_elapsed,z,y,x
1783693599605801200,0.05980126953125,-0.0026787591632455587,-0.01809580996632576,0.0434529148042202
1783693599615764000,0.069763916015625,-0.005417842883616686,-0.014741847291588783,0.022427015006542206
1783693599625726000,0.079725830078125,-0.01027171965688467,-0.01083845179527998,-0.00032596709206700325
1783693599635689000,0.08968896484375,-0.012634292244911194,-0.00741525087505579,-0.02243395894765854
1783693599645651200,0.099651123046875,-0.015351781621575356,-0.0032886832486838102,-0.03882598131895065
1783693599655614000,0.109614013671875,-0.01560731790959835,-0.0015751848695799708,-0.04721059277653694
1783693599665577000,0.119576904296875,-0.01847953535616398,0.010260169394314289,-0.055956680327653885
1783693599675539000,0.1295390625,-0.01987309940159321,0.012955518439412117,-0.06742411106824875
1783693599685502000,0.139501953125,-0.020707201212644577,0.010193819180130959,-0.07863868027925491
1783693599695464000,0.1494638671875,-0.020128265023231506,0.004970632493495941,-0.08640410751104355
1783693599705427000,0.159427001953125,-0.018314918503165245,-0.005772292613983154,-0.09062042087316513
1783693599715389000,0.169388916015625,-0.020416036248207092,-0.015770375728607178,-0.0819002240896225
1783693599725352000,0.17935205078125,-0.022854957729578018,-0.01216818392276764,-0.058183979243040085
1783693599735314000,0.18931396484375,-0.021154820919036865,-0.00007127737626433372,-0.02821391262114048
1783693599745277000,0.19927685546875,-0.022768430411815643,0.010500140488147736,0.0017857986968010664
1783693599755240000,0.209239990234375,-0.023863835260272026,0.008410364389419556,0.02200525626540184
1783693599765202000,0.219201904296875,-0.025706475600600243,-0.003373856656253338,0.03883989900350571
1783693599775165200,0.229165283203125,-0.02474864199757576,-0.0060500651597976685,0.0576920360326767
1783693599785127000,0.239126953125,-0.02126416191458702,-0.007938778959214687,0.06337948888540268
1783693599795090000,0.24908984375,-0.012207421474158764,-0.015369029715657234,0.06357861310243607
1783693599805052200,0.25905224609375,0.002184034790843725,-0.02526640146970749,0.05974632874131203
1783693599815015200,0.26901513671875,0.012461334466934204,-0.020902544260025024,0.06212441995739937
1783693599824978000,0.27897802734375,0.023132355883717537,-0.0170779787003994,0.05611259862780571
1783693599834940000,0.28893994140625,0.029423227533698082,-0.016499532386660576,0.04582102224230766
1783693599844903000,0.29890283203125,0.03200596198439598,-0.014951704069972038,0.037286125123500824
1783693599854865200,0.308865234375,0.026517024263739586,-0.00711455475538969,0.02819260209798813
1783693599864828000,0.318827880859375,0.022721754387021065,0.000261868117377162,0.013815527781844139
1783693599874790000,0.328789794921875,0.018195560202002525,0.0036025464069098234,-0.0008852913742884994
1783693599884753000,0.3387529296875,0.0163049828261137,-0.0022968880366533995,-0.016011247411370277
1783693599894715100,0.348715087890625,0.016168154776096344,-0.005807994864881039,-0.02619379572570324
1783693599904678100,0.35867822265625,0.017366310581564903,-0.0045746853575110435,-0.031949419528245926
1783693599914640000,0.368639892578125,0.020546438172459602,-0.0070389145985245705,-0.0403902493417263
1783693599924603000,0.378602783203125,0.018859324976801872,-0.013705072924494743,-0.03704451769590378
1783693599934566100,0.388566162109375,0.016545988619327545,-0.01755441538989544,-0.02785191684961319
1783693599944528100,0.398528076171875,0.008835604414343834,-0.014588453806936741,-0.018485845997929573
1783693599954491000,0.408490966796875,0.003168534953147173,-0.021493731066584587,-0.011518675833940506
1783693599964452900,0.418452880859375,-0.004562887828797102,-0.023578986525535583,-0.0034229326993227005
1783693599974416100,0.428416015625,-0.009074063040316105,-0.021990139037370682,0.005343333818018436
1783693599984378000,0.438378173828125,-0.01654769293963909,-0.014288009144365788,0.020583540201187134
1783693599994340900,0.4483408203125,-0.02082991600036621,-0.010393423028290272,0.03472776710987091
1783693600004304000,0.458303955078125,-0.019968649372458458,-0.006726516410708427,0.047100283205509186
1783693600014266000,0.46826611328125,-0.01894981600344181,-0.005798177793622017,0.05007794871926308
1783693600024229000,0.47822900390625,-0.012473274022340775,-0.016911813989281654,0.04777191951870918
1783693600034190800,0.48819091796875,-0.007490280084311962,-0.021666349843144417,0.04165857285261154
1783693600044153900,0.49815380859375,-0.000051538474508561194,-0.016350414603948593,0.029693257063627243
1783693600054116000,0.5081162109375,0.004822856746613979,-0.01817759871482849,0.012414122931659222
1783693600064079000,0.5180791015625,0.006737935822457075,-0.029322395101189613,-0.0062487768009305
1783693600074040800,0.528040771484375,0.009548299014568329,-0.03824181854724884,-0.022679027169942856
1783693600084003800,0.53800390625,0.006253968924283981,-0.0329463891685009,-0.02673528902232647
1783693600093966800,0.547966796875,-0.0025790061336010695,-0.022251415997743607,-0.03091702237725258
1783693600103929000,0.55792919921875,-0.0053582810796797276,-0.014456075616180897,-0.034264348447322845
1783693600113892000,0.56789208984375,-0.011002179235219955,-0.009106604382395744,-0.03382980450987816
1783693600123853800,0.577853759765625,-0.014840327203273773,-0.005088959354907274,-0.029730932787060738
1783693600133816800,0.58781689453125,-0.015259381383657455,-0.0020603924058377743,-0.018132250756025314
1783693600143779000,0.597779052734375,-0.01257384940981865,0.002525571035221219,-0.004203916992992163
1783693600153742000,0.6077421875,-0.009996823966503143,0.006587947718799114,0.010985059663653374
1783693600163703800,0.617703857421875,-0.008993078954517841,0.003514926414936781,0.02093995362520218
1783693600173667000,0.6276669921875,-0.006011310964822769,-0.003449253737926483,0.024609912186861038
1783693600183630000,0.637630126953125,-0.0009989754762500525,-0.009605683386325836,0.01985723339021206
1783693600193592000,0.647592041015625,0.0005346812540665269,-0.011765511706471443,0.010524936951696873
1783693600203555000,0.65755517578125,0.004108110908418894,-0.0036620446480810642,0.0003900110023096204
1783693600213517000,0.66751708984375,0.007577317766845226,-0.001977315405383706,-0.010871019214391708
1783693600223480000,0.67747998046875,0.014509792439639568,-0.005501209758222103,-0.019334811717271805
1783693600233442000,0.687442138671875,0.01991170272231102,-0.007820017635822296,-0.020506396889686584
1783693600243405000,0.697405029296875,0.017726045101881027,-0.0038047698326408863,-0.01536303386092186
1783693600253367000,0.707366943359375,0.01695982925593853,-0.0017620958387851715,-0.010870099999010563
1783693600263330000,0.717330078125,0.011914471164345741,0.003137588035315275,-0.011244273744523525
1783693600273293000,0.72729296875,0.005187002010643482,0.009236488491296768,-0.012452598661184311
1783693600283255000,0.737255126953125,0.004447442013770342,0.019215619191527367,-0.012500535696744919
1783693600293217800,0.7472177734375,0.005994922481477261,0.02235737442970276,-0.012067905627191067
1783693600303180000,0.757179931640625,0.004511541686952114,0.023168573155999184,-0.007698457688093185
1783693600313143000,0.76714306640625,0.008083225227892399,0.025257781147956848,-0.0026576854288578033
1783693600323105000,0.77710498046875,0.010182595811784267,0.022908339276909828,0.0008968354668468237
1783693600333067800,0.78706787109375,0.013363093137741089,0.012504692189395428,0.002450426807627082
1783693600343030000,0.797030029296875,0.01734425313770771,0.004121860489249229,0.00041230960050597787
1783693600352993000,0.806992919921875,0.024846967309713364,-0.001550934393890202,-0.002003129106014967
1783693600362956000,0.8169560546875,0.02861107885837555,-0.0022153928875923157,-0.002273972611874342
1783693600372918000,0.82691796875,0.025286853313446045,-0.0035198251716792583,0.006627606227993965
1783693600382881000,0.836881103515625,0.020596228539943695,-0.0015128670493140817,0.012578173540532589
1783693600392843000,0.846843017578125,0.011036590673029423,0.00016731454525142908,0.017020920291543007
1783693600402806000,0.856805908203125,0.000016430087271146476,0.006359164137393236,0.024039946496486664
1783693600412768000,0.86676806640625,-0.009699580259621143,0.014157433062791824,0.025086835026741028
1783693600422731000,0.87673095703125,-0.015328970737755299,0.01551564410328865,0.023928094655275345
1783693600432693000,0.88669287109375,-0.012939605861902237,0.01074169110506773,0.016144389286637306
1783693600442656000,0.896656005859375,-0.007103022187948227,0.012679141014814377,0.014155540615320206
1783693600452618800,0.90661865234375,0.0009105088538490236,0.006029254756867886,0.011839678511023521
1783693600462581000,0.9165810546875,0.011580729857087135,0.0012627292890101671,0.007663842290639877
1783693600472544000,0.9265439453125,0.02044759877026081,0.0010334106627851725,0.006182508077472448
1783693600482506000,0.936506103515625,0.028012573719024658,0.0015663092490285635,0.003538787830621004
1783693600492468700,0.94646875,0.02982368692755699,0.0011167176999151707,0.002899361774325371
1783693600502431000,0.956430908203125,0.026227885857224464,0.0046030618250370026,0.006230975966900587
1783693600512394000,0.96639404296875,0.02191184088587761,0.009309432469308376,0.003149772761389613
1783693600522356000,0.97635595703125,0.01602758653461933,0.008313942700624466,-0.0003038144204765558
1783693600532318700,0.986318603515625,0.013553598895668983,0.007328877225518227,-0.003972573671489954
1783693600542282000,0.996281982421875,0.011865421198308468,0.012162514962255955,-0.006169947795569897
1783693600552244000,1.006243896484375,0.01081995852291584,0.015101033262908459,-0.009345113299787045
1783693600562207000,1.01620703125,0.011616243980824947,0.014828592538833618,-0.012334511615335941
1783693600572169000,1.0261689453125,0.01762322522699833,0.014506303705275059,-0.01573691889643669
1783693600582132000,1.036132080078125,0.019631249830126762,0.01325009111315012,-0.015984326601028442
1783693600592094000,1.046093994140625,0.024036115035414696,0.014876268804073334,-0.016153546050190926
1783693600602057000,1.056056884765625,0.022229161113500595,0.015152971260249615,-0.01416389737278223
1783693600612019000,1.06601904296875,0.020129062235355377,0.01577771268785,-0.013296892866492271
1783693600621982000,1.07598193359375,0.015710612758994102,0.01993304304778576,-0.01277304906398058
1783693600631945000,1.085945068359375,0.008807871490716934,0.02292485162615776,-0.014304754324257374
1783693600641907000,1.095906982421875,0.0017859148792922497,0.015570267103612423,-0.020909661427140236
1783693600651870000,1.105869873046875,-0.005969569552689791,0.016005441546440125,-0.0283927321434021
1783693600661832000,1.11583203125,-0.007606082130223513,0.018611077219247818,-0.03186709061264992
1783693600671795000,1.125794921875,-0.005513114854693413,0.011387507431209087,-0.03554277494549751
1783693600681757000,1.1357568359375,-0.003615878988057375,0.003938380163162947,-0.032184261828660965
1783693600691720000,1.145719970703125,0.0021690281573683023,0.0036416929215192795,-0.023536432534456253
1783693600701682000,1.155681884765625,-0.0020286464132368565,0.007156532723456621,-0.010080278851091862
1783693600711645000,1.16564501953125,-0.004175085108727217,0.010219716466963291,0.00045548920752480626
1783693600721607000,1.17560693359375,-0.009654538705945015,0.015478926710784435,0.00653814896941185
1783693600731570000,1.18556982421875,-0.010246350429952145,0.022218000143766403,0.010423492640256882
1783693600741533000,1.195532958984375,-0.011369406245648861,0.017548147588968277,0.012467735446989536
1783693600751495000,1.205494873046875,-0.0042303167283535,0.007786920759826899,0.01626070775091648
1783693600761458000,1.2154580078125,-0.0018350699683651328,0.002900020219385624,0.020484481006860733
1783693600771420000,1.225419921875,0.004371137823909521,0.0017905249260365963,0.023201195523142815
1783693600781383000,1.2353828125,0.005499785766005516,0.0007199341780506074,0.02143791690468788
1783693600791345000,1.245344970703125,0.008488256484270096,0.000049115391448140144,0.014922833070158958
1783693600801308000,1.255307861328125,0.008326869457960129,0.0012435431126505136,0.008836178109049797
1783693600811270000,1.265269775390625,0.00705244205892086,0.004443067125976086,0.0026143924333155155
1783693600821233200,1.275233154296875,0.007471091113984585,0.003912299405783415,-0.004704240709543228
1783693600831196000,1.28519580078125,0.005468220915645361,0.002399610122665763,-0.011384125798940659
1783693600841158000,1.295157958984375,0.0016255457885563374,0.0032853775192052126,-0.016435876488685608
1783693600851121000,1.305120849609375,-0.0053096492774784565,0.006552805192768574,-0.01771077886223793
1783693600861083100,1.315083251953125,-0.00892915204167366,0.014872786588966846,-0.019556351006031036
1783693600871046100,1.325046142578125,-0.012631477788090706,0.02040870115160942,-0.02023572288453579
1783693600881007900,1.3350078125,-0.015199830755591393,0.02010989375412464,-0.01735072024166584
1783693600890971000,1.344970947265625,-0.01795223169028759,0.017806287854909897,-0.01575610600411892
1783693600900933000,1.35493310546875,-0.01878766529262066,0.015234474092721939,-0.014394165016710758
1783693600910896000,1.364896240234375,-0.017016420140862465,0.011986725963652134,-0.013633274473249912
1783693600920859000,1.37485888671875,-0.01382941473275423,0.013204854913055897,-0.013670559041202068
1783693600930820900,1.38482080078125,-0.010199815034866333,0.002632350195199251,-0.015179215930402279
1783693600940783900,1.394783935546875,-0.006838373374193907,-0.003633002517744899,-0.01427826751023531
1783693600950746000,1.40474609375,-0.006493899505585432,-0.002579435706138611,-0.009434159845113754
1783693600960708900,1.414708984375,-0.0060749840922653675,-0.0076876450330019,-0.0045089093036949635
1783693600970670800,1.4246708984375,-0.001520677236840129,-0.013006261549890041,0.0035711938980966806
1783693600980633900,1.4346337890625,-0.0001238492113770917,-0.005228233989328146,0.013921303674578667
1783693600990596000,1.44459619140625,0.003322269767522812,0.0035316902212798595,0.02498595044016838
1783693601000558800,1.454558837890625,0.0019462144700810313,0.0035458053462207317,0.02932077646255493
1783693601010521900,1.46452197265625,0.0004762622993439436,-0.000973251648247242,0.028813432902097702
1783693601020484000,1.474484130859375,-0.003247103188186884,0.0011274497956037521,0.02754417061805725
1783693601030447000,1.484447021484375,-0.005835565738379955,0.004107975866645575,0.02424747869372368
1783693601040408800,1.494408935546875,-0.006402286235243082,0.003698647953569889,0.014518417418003082
1783693601050371800,1.504371826171875,-0.00393305066972971,-0.001807112363167107,0.004106355831027031
1783693601060334000,1.514333984375,0.0009599752957001328,0.0012366145383566618,-0.005028818733990192
1783693601070297000,1.524297119140625,0.006340694148093462,0.003806048072874546,-0.010592127218842506
1783693601080258800,1.5342587890625,0.007420073729008436,0.002029985887929797,-0.014771424233913422
1783693601090221800,1.544221923828125,0.009186283685266972,0.0038265022449195385,-0.01719985343515873
1783693601100184000,1.55418408203125,0.004398719407618046,0.011959795840084553,-0.01012782845646143
1783693601110147000,1.56414697265625,-0.0026068012230098248,0.016789792105555534,-0.008146427571773529
1783693601120110000,1.574110107421875,-0.00740448571741581,0.013832619413733482,-0.006750131957232952
1783693601130071800,1.58407177734375,-0.013232541270554066,0.007523220032453537,-0.01115904189646244
1783693601140034800,1.594034912109375,-0.014343878254294395,0.002549767028540373,-0.01341074425727129
1783693601149997000,1.6039970703125,-0.008967130444943905,0.00034524104557931423,-0.012331884354352951
1783693601159960000,1.6139599609375,-0.004879977088421583,-0.003498499281704426,-0.009309196844696999
1783693601169921800,1.623921875,-0.00040959520265460014,0.00190345651935786,-0.0053155203349888325
1783693601179884800,1.633884765625,0.004927379544824362,0.007982388138771057,0.00405854033306241
1783693601189847000,1.643846923828125,0.003993002697825432,0.009150470606982708,0.007466671988368034
1783693601199810000,1.65381005859375,0.0021514268592000008,0.005987167824059725,0.010586032643914223
1783693601209773000,1.66377294921875,0.0030029795598238707,-0.00139966222923249,0.01294684037566185
1783693601219734800,1.67373486328125,0.002727342303842306,0.0006214108434505761,0.018133345991373062
1783693601229698000,1.683697998046875,0.0013479978078976274,0.005099795758724213,0.02396261692047119
1783693601239660000,1.693659912109375,0.006608007475733757,0.005420174449682236,0.01883470080792904
1783693601249623000,1.703623046875,0.010786518454551697,0.003899520495906472,0.017148375511169434
1783693601259585000,1.7135849609375,0.015149574726819992,0.004022025968879461,0.014619705267250538
1783693601269548000,1.723548095703125,0.015188354067504406,0.004982578568160534,0.01243218407034874
1783693601279510000,1.733510009765625,0.016705824062228203,0.0010392357362434268,0.001470346818678081
1783693601289473000,1.74347314453125,0.020156605169177055,0.0012640788918361068,-0.0021190871484577656
1783693601299435000,1.75343505859375,0.021776072680950165,0.005969884339720011,0.00002981757279485464
1783693601309398000,1.76339794921875,0.020151235163211823,0.008448443375527859,0.00046582717914134264
1783693601319361000,1.773361083984375,0.018411925062537193,0.0085469800978899,-0.001681479625403881
1783693601329323000,1.783322998046875,0.015464546158909798,0.014270108193159103,-0.0036882199347019196
1783693601339285800,1.79328564453125,0.015980934724211693,0.0158110149204731,-0.0058544352650642395
1783693601349248000,1.803248046875,0.016512125730514526,0.01486617885529995,-0.01061984896659851
1783693601359211000,1.8132109375,0.016941960901021957,0.008657018654048443,-0.015824997797608376
1783693601369173000,1.823173095703125,0.0172289852052927,0.005938129499554634,-0.014990555122494698
1783693601379135700,1.8331357421875,0.01728437840938568,0.011630902998149395,-0.010386747308075428
1783693601389098000,1.843097900390625,0.020266002044081688,0.01144613791257143,-0.008438816294074059
1783693601399061000,1.85306103515625,0.02154858037829399,0.007336348295211792,-0.004060845822095871
1783693601409024000,1.86302392578125,0.02052921988070011,0.00746225006878376,0.0062812380492687225
1783693601418985700,1.87298583984375,0.020535878837108612,0.008020714856684208,0.007959828712046146
1783693601428949000,1.882948974609375,0.01753825694322586,-0.0008172175148501992,0.007973641157150269
1783693601438911200,1.8929111328125,0.011533361859619617,-0.001572756445966661,0.007700933609157801
1783693601448874000,1.9028740234375,0.006194118410348892,0.0034113177098333836,0.010421013459563255
1783693601458836000,1.9128359375,0.006992267910391092,0.0025947927497327328,0.010449775494635105
1783693601468799200,1.92279931640625,0.005073504522442818,-0.004574391525238752,0.005445913411676884
1783693601478761200,1.93276123046875,0.006671401206403971,0.002337576588615775,0.005140182562172413
1783693601488724200,1.94272412109375,0.007391206920146942,0.0038715640548616648,0.0035997494123876095
1783693601498686000,1.95268603515625,0.01008685864508152,0.0012004135642200708,-0.004612373653799295
1783693601508649200,1.962649169921875,0.01242150366306305,0.0013566982233896852,-0.013774773105978966
1783693601518612200,1.9726123046875,0.010084046982228756,0.0042132046073675156,-0.021819382905960083
1783693601528574200,1.98257421875,0.00868197251111269,-0.0007892497815191746,-0.030978238210082054
1783693601538537000,1.992536865234375,0.009716078639030457,-0.008309749886393547,-0.03359958902001381
1783693601548499200,2.002499267578125,0.009697320871055126,-0.007360609248280525,-0.026819275692105293
1783693601558462200,2.012462158203125,0.0063958000391721725,-0.001985817216336727,-0.012994805350899696
1783693601568424200,2.022424072265625,0.006124725565314293,0.0010448419488966465,0.003212199779227376
1783693601578387000,2.032386962890625,0.004278622567653656,-0.0018665256211534142,0.017781822010874748
1783693601588349200,2.04234912109375,0.0014430158771574497,-0.0034487417433410883,0.03071965090930462
1783693601598312200,2.052312255859375,-0.001210291520692408,-0.004636777564883232,0.034357525408267975
1783693601608274200,2.062274169921875,-0.0007753296522423625,-0.012562276795506477,0.031170185655355453
1783693601618237000,2.07223681640625,-0.0006179368356242776,-0.018677426502108574,0.029692132025957108
1783693601628200000,2.082199951171875,-0.0038136986549943686,-0.016693338751792908,0.032704927027225494
1783693601638162200,2.092162109375,-0.003934073727577925,-0.0144197978079319,0.03321758285164833
1783693601648125200,2.102125244140625,-0.00549717154353857,-0.009088986553251743,0.03204285353422165
1783693601658087000,2.1120869140625,-0.004145617596805096,-0.0038795773871243,0.026732778176665306
1783693601668050200,2.12205029296875,-0.0018479933496564627,-0.00206622201949358,0.021001486107707024
1783693601678012200,2.13201220703125,0.002210131613537669,-0.002072613686323166,0.010247375816106796
1783693601687975200,2.14197509765625,0.005970478523522615,-0.0024214698933064938,0.0001941345981322229
1783693601697937000,2.15193701171875,0.008537232875823975,-0.004629496484994888,-0.003984897863119841
1783693601707900200,2.161900146484375,0.0054109166376292706,-0.0007024329388514161,-0.004306569695472717
1783693601717863200,2.17186328125,0.0074983020313084126,0.003498703707009554,-0.00430843373760581
1783693601727825200,2.1818251953125,0.006153522524982691,-0.001896637724712491,-0.004730339627712965
1783693601737788200,2.1917880859375,0.0019025849178433418,0.0018845184240490198,-0.0028133965097367764
1783693601747750100,2.201750244140625,-0.0017181572038680315,0.010398948565125465,-0.001009358442388475
1783693601757713200,2.211713134765625,-0.005760569125413895,0.008189057931303978,-0.0031795683316886425
1783693601767675100,2.221675048828125,-0.005044190213084221,0.0019066499080508947,-0.009647308848798275
1783693601777638100,2.23163818359375,-0.0020915435161441565,0.003788439556956291,-0.009038510732352734
1783693601787600100,2.24160009765625,0.0006540674949064851,0.008665274828672409,-0.0025560639332979918
1783693601797563100,2.251563232421875,0.005320191849023104,0.007050333544611931,0.0006788778118789196
1783693601807525000,2.261525146484375,0.013737753033638,0.00414157472550869,-0.003077024593949318
1783693601817488100,2.271488037109375,0.01853916607797146,0.0032835041638463736,-0.0003265117993578315
1783693601827451100,2.281451171875,0.019898992031812668,0.004690526518970728,0.0007383491611108184
1783693601837413000,2.2914130859375,0.0185325238853693,-0.002857671119272709,-0.0017096285009756684
1783693601847376100,2.301376220703125,0.022075345739722252,-0.0072987983003258705,-0.004953790921717882
1783693601857338000,2.311338134765625,0.02284153737127781,-0.0006438253913074732,-0.00767740560695529
1783693601867301000,2.321301025390625,0.02347777970135212,-0.0003607720136642456,-0.008448293432593346
1783693601877263000,2.33126318359375,0.026502065360546112,-0.00842003058642149,-0.013759701512753963
1783693601887226000,2.34122607421875,0.02761613391339779,-0.010680771432816982,-0.012662709690630436
1783693601897188000,2.35118798828125,0.020176326856017113,-0.008060221560299397,-0.006804287433624268
1783693601907151000,2.361151123046875,0.012240024283528328,-0.00991908274590969,0.0009802643908187747
1783693601917113000,2.371113037109375,0.0034494621213525534,-0.0018680805806070566,0.011936509050428867
1783693601927076000,2.381076171875,-0.008242102339863777,0.012552380561828613,0.02070632204413414
1783693601937039000,2.3910390625,-0.017988473176956177,0.018536770716309547,0.02341848611831665
1783693601947001300,2.40100146484375,-0.024900754913687706,0.01345919445157051,0.01983887143433094
1783693601956964000,2.410964111328125,-0.023975038900971413,0.010032239370048046,0.012558321468532085
1783693601966926000,2.420926025390625,-0.020985156297683716,0.006874801591038704,0.00397862121462822
1783693601976889000,2.43088916015625,-0.014107542112469673,0.001576975453644991,-0.0031155075412243605
1783693601986851300,2.440851318359375,-0.00716257281601429,-0.0014891444006934762,-0.012610184960067272
1783693601996814000,2.45081396484375,0.0017488969024270773,-0.00015330268070101738,-0.02007981948554516
1783693602006776000,2.460776123046875,0.007847986184060574,-0.0038553383201360703,-0.027508040890097618
1783693602016739000,2.470739013671875,0.013668591156601906,-0.008104678243398666,-0.03053472377359867
1783693602026701300,2.480701416015625,0.013265331275761127,-0.004950967151671648,-0.02956484816968441
1783693602036664000,2.4906640625,0.01093399990350008,-0.0032793008722364902,-0.022388428449630737
1783693602046627000,2.500626953125,0.005630824714899063,0.003069652244448662,-0.011466514319181442
1783693602056589000,2.510589111328125,-0.0030974193941801786,0.011264731176197529,0.001778450794517994
1783693602066552000,2.520552001953125,-0.013841086067259312,0.0150458924472332,0.01657741889357567
1783693602076514000,2.53051416015625,-0.015416345559060574,0.01158697810024023,0.022585511207580566
1783693602086477000,2.54047705078125,-0.01385395135730505,0.009077507071197033,0.01697063446044922
1783693602096439000,2.55043896484375,-0.010388113558292389,0.005634572356939316,0.006129970774054527
1783693602106402000,2.560402099609375,-0.00314797624014318,-0.002260086825117469,-0.005227044224739075
1783693602116364000,2.570364013671875,0.0037943522911518812,-0.0082905488088727,-0.01754176802933216
1783693602126327000,2.5803271484375,0.00993502140045166,-0.013093818910419941,-0.027722826227545738
1783693602136290000,2.5902900390625,0.014841096475720406,-0.013108466751873493,-0.03356100991368294
1783693602146252000,2.600251953125,0.014876924455165863,-0.0059280721470713615,-0.03433021157979965
1783693602156215300,2.61021533203125,0.012881417758762836,-0.0022438550367951393,-0.03152963146567345
1783693602166177000,2.620177001953125,0.010310276411473751,-0.006391748320311308,-0.029464703053236008
1783693602176140000,2.63014013671875,0.0072287325747311115,-0.0070154606364667416,-0.020675739273428917
1783693602186102300,2.640102294921875,-0.0003472085518296808,-0.007787770591676235,-0.0112114567309618
1783693602196065300,2.650065185546875,-0.005892442539334297,-0.012033116072416306,-0.0008008936420083046
1783693602206027000,2.660027099609375,-0.011569236405193806,-0.011019783094525337,0.010497300885617733
1783693602215990000,2.669989990234375,-0.015873704105615616,-0.0010225428268313408,0.021087627857923508
1783693602225952300,2.6799521484375,-0.018502045422792435,0.008591186255216599,0.027056533843278885
1783693602235915300,2.689915283203125,-0.018344387412071228,0.010224237106740475,0.02546875737607479
1783693602245878300,2.699878173828125,-0.013259533792734146,0.0108391884714365,0.020193858072161674
1783693602255840000,2.709840087890625,-0.0022439011372625828,0.007918765768408775,0.010858946479856968
1783693602265803000,2.719802978515625,0.007951734587550163,-0.0017855383921414614,0.0009618527255952358
1783693602275765200,2.72976513671875,0.015502594411373138,-0.011037626303732395,-0.008526723831892014
1783693602285728300,2.739728271484375,0.019086051732301712,-0.019232692196965218,-0.018900921568274498
1783693602295690000,2.74968994140625,0.023793188855051994,-0.02104257605969906,-0.025583326816558838
1783693602305653000,2.759653076171875,0.02250000461935997,-0.015625182539224625,-0.026663711294531822
1783693602315615200,2.769615234375,0.017286067828536034,-0.006494000554084778,-0.020602090284228325
1783693602325578200,2.779578125,0.01000366359949112,0.00010079657658934593,-0.012872809544205666
1783693602335541000,2.789541015625,0.0025276378728449345,0.005125116091221571,-0.0036502829752862453
1783693602345503000,2.7995029296875,-0.0004992174217477441,0.0034510395489633083,-0.0005068322643637657
1783693602355466200,2.80946630859375,-0.0012973668053746223,-0.0021386691369116306,-0.00020083505660295486
1783693602365428200,2.81942822265625,-0.00223793787881732,-0.0035008713603019714,-0.002072722651064396
1783693602375391000,2.829390869140625,0.0024875751696527004,-0.004893438424915075,-0.002380318008363247
1783693602385353200,2.839353271484375,0.005757868755608797,-0.008247439749538898,-0.007371383719146252
1783693602395316200,2.849316162109375,0.00897869560867548,-0.007567001972347498,-0.01066731195896864
1783693602405278200,2.8592783203125,0.01412703562527895,-0.0037882174365222454,-0.011048011481761932
1783693602415241000,2.869240966796875,0.016665028408169746,-0.0013474303996190429,-0.006217037793248892
1783693602425203200,2.879203125,0.019666481763124466,0.0016179631929844618,-0.0008887051371857524
1783693602435166200,2.889166259765625,0.01884276606142521,0.0005588240455836058,-0.0011153401574119925
1783693602445129200,2.899129150390625,0.016500987112522125,0.0014286598889157176,-0.002562660723924637
1783693602455091000,2.909091064453125,0.015659162774682045,-0.003244655206799507,-0.005025818478316069
1783693602465054000,2.919053955078125,0.01745976321399212,-0.003724840935319662,-0.004796979017555714
1783693602475016200,2.92901611328125,0.014972370117902756,-0.0034047290682792664,-0.0027410187758505344
1783693602484979200,2.938979248046875,0.014024889096617699,0.0002549507189542055,0.0039926632307469845
1783693602494941000,2.94894091796875,0.01487204059958458,0.0017196893459185958,0.010599167086184025
1783693602504904000,2.958904052734375,0.018215730786323547,0.001678448636084795,0.013103881850838661
1783693602514866200,2.9688662109375,0.021317780017852783,0.0017309129470959306,0.016023239120841026
1783693602524829200,2.9788291015625,0.02255825884640217,-0.0023866230621933937,0.018305059522390366
1783693602534791000,2.988791015625,0.025829419493675232,-0.004708899650722742,0.02285187505185604
1783693602544754000,2.99875390625,0.023083120584487915,-0.007574719842523336,0.023546366021037102
1783693602554717200,3.00871728515625,0.023027194663882256,-0.006407456938177347,0.02528967149555683
1783693602564679200,3.01867919921875,0.022220533341169357,0.0012459468562155962,0.031194154173135757
1783693602574642200,3.02864208984375,0.01881301961839199,0.004545337054878473,0.02994593046605587
1783693602584604000,3.03860400390625,0.01592632383108139,-0.0007966840639710426,0.02530844509601593
1783693602594567200,3.048567138671875,0.013145985081791878,-0.0032571787014603615,0.01850007474422455
1783693602604529200,3.058529052734375,0.011475848965346813,-0.001724811503663659,0.015365232713520527
1783693602614492200,3.0684921875,0.01136026717722416,-0.0060340724885463715,0.004939755890518427
1783693602624454100,3.0784541015625,0.011831149458885193,-0.004200237803161144,-0.0002834290498867631
1783693602634417200,3.088417236328125,0.010531793348491192,0.0024358269292861223,0.0006848963676020503
1783693602644379100,3.098379150390625,0.008172379806637764,0.00033703248482197523,0.0005467371083796024
1783693602654342100,3.108342041015625,0.00923311710357666,-0.003189525566995144,0.003024009522050619
1783693602664305000,3.118304931640625,0.010385550558567047,0.0003292844630777836,0.006108617410063744
1783693602674267100,3.12826708984375,0.008581259287893772,-0.0010443739593029022,0.00209283665753901
1783693602684230100,3.138230224609375,0.004265872295945883,-0.007123039104044437,0.0022398431319743395
1783693602694192000,3.148192138671875,0.00001946197880897671,-0.010388340801000595,0.0006270327721722424
1783693602704155000,3.15815478515625,-0.003381312359124422,-0.008242391049861908,0.0021483637392520905
1783693602714117000,3.1681171875,-0.0035251230001449585,-0.0058729760348796844,0.004588352050632238
1783693602724080000,3.178080078125,-0.002428191713988781,-0.008631449192762375,0.006427712272852659
1783693602734042000,3.1880419921875,-0.0049531348049640656,-0.006173351313918829,0.015363150276243687
1783693602744004900,3.1980048828125,-0.007442010100930929,-0.0005178535357117653,0.015569108538329601
1783693602753967000,3.207967041015625,-0.01188203226774931,0.0006262405076995492,0.008141286671161652
1783693602763930000,3.21793017578125,-0.01738647185266018,-0.0013024276122450829,0.0050025456584990025
1783693602773893000,3.22789306640625,-0.020419280976057053,-0.00007604178972542286,0.001963612623512745
1783693602783854800,3.237854736328125,-0.022398851811885834,-0.0025432396214455366,-0.0010800653835758567
1783693602793818000,3.247818115234375,-0.022282738238573074,-0.0039568450301885605,-0.0028769001364707947
1783693602803780000,3.257780029296875,-0.021696925163269043,-0.004622610751539469,-0.0017300097970291972
1783693602813743000,3.2677431640625,-0.019590897485613823,-0.0052015818655490875,-0.005446717143058777
1783693602823704800,3.277704833984375,-0.020151017233729362,-0.003942177630960941,-0.009189305827021599
1783693602833668000,3.287668212890625,-0.021231727674603462,0.0019213041523471475,-0.008723785169422626
1783693602843630000,3.297630126953125,-0.017935430631041527,0.00405076565220952,-0.007277047261595726
1783693602853593000,3.307593017578125,-0.013560921885073185,0.0018640439957380295,-0.006120702717453241
1783693602863555000,3.31755517578125,-0.010014262050390244,-0.002277736086398363,0.0005275390576571226
1783693602873518000,3.32751806640625,-0.005615518894046545,-0.0021658833138644695,0.00972316786646843
1783693602883481000,3.337481201171875,0.00015913732931949198,-0.0023064257111400366,0.013910697773098946
1783693602893443000,3.347443115234375,0.0025298832915723324,0.0014092165511101484,0.015400203876197338
1783693602903406000,3.357406005859375,0.005937930662184954,0.003943480551242828,0.01011489424854517
1783693602913368000,3.3673681640625,0.009412556886672974,-0.003007103456184268,0.0024500503204762936
1783693602923331000,3.3773310546875,0.009454994462430477,-0.0052542919293046,-0.005503091961145401
1783693602933293000,3.38729296875,0.010745562613010406,-0.0059150224551558495,-0.008220581337809563
1783693602943256000,3.397256103515625,0.006159530952572823,-0.0025493353605270386,-0.008633141405880451
1783693602953218000,3.407218017578125,-0.00095244066324085,0.004822294693440199,-0.002284697722643614
1783693602963181000,3.41718115234375,-0.005963193252682686,0.007857006974518299,-0.004438761621713638
1783693602973143000,3.42714306640625,-0.013533761724829674,0.006874833256006241,-0.00479349447414279
1783693602983106000,3.43710595703125,-0.01784086599946022,0.005503010004758835,-0.0021076099947094917
1783693602993069000,3.447069091796875,-0.021411897614598274,0.00303639005869627,0.0016309353522956371
1783693603003031000,3.457031005859375,-0.02175731025636196,-0.006043657660484314,0.0026549207977950573
1783693603012994000,3.466994140625,-0.020338110625743866,0.00020145508460700512,0.011429770849645138
1783693603022956000,3.4769560546875,-0.01994706690311432,0.00956751313060522,0.022456709295511246
1783693603032919300,3.486919189453125,-0.015998130664229393,0.013797145336866379,0.030948998406529427
1783693603042881000,3.496881103515625,-0.010911853052675724,0.01456335000693798,0.032438382506370544
1783693603052844000,3.506843994140625,-0.005873951595276594,0.013560669496655464,0.02638847939670086
1783693603062806000,3.516805908203125,0.001504346844740212,0.0051000844687223434,0.017295902594923973
1783693603072769300,3.526769287109375,0.010449904948472977,-0.003908324055373669,-0.00017789611592888832
1783693603082731000,3.53673095703125,0.017293544486165047,-0.011044521816074848,-0.00887248758226633
1783693603092694000,3.546694091796875,0.020888011902570724,-0.012113780714571476,-0.011780126951634884
1783693603102657000,3.556656982421875,0.018414411693811417,-0.0011498170206323266,-0.0027091829106211662
1783693603112619300,3.566619384765625,0.01320020854473114,0.008325709961354733,0.006277387961745262
1783693603122582000,3.57658203125,0.0098032895475626,0.00857124850153923,0.012390625663101673
1783693603132544000,3.5865439453125,0.003459107130765915,0.010232262313365936,0.010883542709052563
1783693603142507000,3.596507080078125,-0.0032527281437069178,0.011275124736130238,0.011000650934875011
1783693603152469200,3.60646923828125,-0.007295140530914068,0.008635399863123894,0.0032814783044159412
1783693603162432000,3.616431884765625,-0.013098341412842274,0.00716372299939394,-0.008022187277674675
1783693603172394000,3.62639404296875,-0.012031745165586472,0.003506137989461422,-0.010530352592468262
1783693603182357000,3.63635693359375,-0.0069246371276676655,0.001532220747321844,-0.013047113083302975
1783693603192320000,3.646320068359375,-0.00130323669873178,0.0014430048177018762,-0.012370403856039047
1783693603202282200,3.6562822265625,0.004698970355093479,-0.0015322491526603699,-0.009698539972305298
1783693603212245000,3.666244873046875,0.006962923798710108,0.0001322263851761818,-0.003501364029943943
1783693603222207000,3.67620703125,0.0058098058216273785,0.005475892685353756,0.0020030844025313854
1783693603232170000,3.686169921875,0.005180500913411379,0.004558699671179056,-0.0012664784444496036
1783693603242132200,3.69613232421875,0.002043219283223152,-0.0026595587842166424,0.0015971969114616513
1783693603252095000,3.706094970703125,0.00009192118886858225,-0.009198950603604317,0.004147972445935011
1783693603262057000,3.716056884765625,-0.00004806723154615611,-0.011462384834885597,0.008879199624061584
1783693603272020200,3.726020263671875,-0.004074234049767256,-0.005984262563288212,0.016468143090605736
1783693603281982200,3.735982177734375,-0.002196179237216711,0.000413500820286572,0.018942639231681824
1783693603291945000,3.745945068359375,0.0005277020391076803,0.002843901515007019,0.023583462461829185
1783693603301908000,3.755907958984375,0.0032390563283115625,-0.0023295660503208637,0.016584690660238266
1783693603311870200,3.7658701171875,0.008410115726292133,-0.005440404638648033,0.006921410094946623
1783693603321833200,3.775833251953125,0.011457351967692375,-0.005719244014471769,-0.006177818868309259
1783693603331795000,3.785794921875,0.013798537664115429,-0.007195434533059597,-0.01819826290011406
1783693603341758000,3.795758056640625,0.013529547490179539,-0.007392785511910915,-0.02821013703942299
1783693603351720200,3.80572021484375,0.010852804407477379,-0.0002978583797812462,-0.03430371358990669
1783693603361683200,3.81568310546875,0.0046507674269378185,0.002040381310507655,-0.03316338360309601
1783693603371645000,3.82564501953125,-0.002503548748791218,0.001957290805876255,-0.03502653166651726
1783693603381608000,3.83560791015625,-0.0018620507325977087,0.0036827484145760536,-0.03450353816151619
1783693603391570200,3.845570068359375,-0.00313264480791986,0.007838611491024494,-0.030737025663256645
1783693603401533200,3.855533203125,-0.0036122906021773815,0.0079315435141325,-0.028196627274155617
1783693603411496200,3.86549609375,-0.001609061029739678,0.006193831562995911,-0.0289982371032238
1783693603421458000,3.8754580078125,-0.0024040977004915476,0.004260667599737644,-0.025799116119742393
1783693603431421000,3.8854208984375,-0.002415283117443323,0.0014896485954523087,-0.025100836530327797
1783693603441383000,3.8953828125,-0.007234852761030197,0.0009631484281271696,-0.020316794514656067
1783693603451346000,3.905345947265625,-0.006773593369871378,-0.0003093099221587181,-0.018433406949043274
1783693603461307600,3.9153076171875,-0.006720246281474829,-0.0010448999237269163,-0.014969829469919205
1783693603471271000,3.92527099609375,-0.006263248156756163,-0.00041666021570563316,-0.00838782824575901
1783693603481233000,3.93523291015625,-0.006753615569323301,0.0006267393473535776,-0.0037369071505963802
1783693603491196000,3.94519580078125,-0.009566978551447392,0.003112001344561577,0.001198729150928557
1783693603501158000,3.955157958984375,-0.011627653613686562,0.0009029361535795033,0.00912192277610302
1783693603511121000,3.965120849609375,-0.014289483428001404,-0.0034185752738267183,0.012361126020550728
1783693603521084000,3.975083984375,-0.016430065035820007,-0.004444409161806107,0.020426811650395393
1783693603531046000,3.9850458984375,-0.015858815982937813,-0.0031618308275938034,0.028624553233385086
1783693603541008600,3.995008544921875,-0.015091768465936184,-0.0005508631002157927,0.03394053503870964
1783693603550971000,4.004970947265625,-0.01900315284729004,0.0018579659517854452,0.028389977291226387
1783693603560934000,4.014933837890625,-0.023498892784118652,0.002286730334162712,0.015063471160829067
1783693603570896000,4.024895751953125,-0.025986019521951675,-0.0015905658947303891,-0.001991146244108677
1783693603580858600,4.034858642578125,-0.025248656049370766,-0.002762638730928302,-0.01266193576157093
1783693603590820900,4.04482080078125,-0.022099202498793602,0.0033485169988125563,-0.018716897815465927
1783693603600784000,4.054783935546875,-0.017933998256921768,0.004901695065200329,-0.019248757511377335
1783693603610745900,4.064745849609375,-0.014765901491045952,0.00725619588047266,-0.018042610958218575
1783693603620708900,4.074708984375,-0.009979469701647758,0.008122505620121956,-0.021019794046878815
1783693603630671600,4.084671630859375,-0.008598354645073414,0.006249505095183849,-0.02761138416826725
1783693603640633900,4.0946337890625,-0.012161722406744957,0.01172176469117403,-0.032641876488924026
1783693603650596900,4.104596923828125,-0.012453870847821236,0.007397589273750782,-0.03713089972734451
1783693603660558800,4.114558837890625,-0.012102453969419003,-0.0008302044589072466,-0.0395204983651638
1783693603670521900,4.12452197265625,-0.013123509474098682,-0.0017311517149209976,-0.034308161586523056
1783693603680483800,4.13448388671875,-0.013345438987016678,0.0035685007460415363,-0.021568672731518745
1783693603690446800,4.14444677734375,-0.010845263488590717,0.0024957796558737755,-0.010360492393374443
1783693603700408800,4.154408935546875,-0.010951915755867958,0.00668357964605093,0.0017900958191603422
1783693603710371800,4.164371826171875,-0.008297809399664402,0.010368595831096172,0.009081831201910973
1783693603720333800,4.174333740234375,-0.006374892313033342,0.0045328205451369286,0.008996706455945969
1783693603730296800,4.184296875,-0.002877362770959735,-0.007157125044614077,0.0013560971710830927
1783693603740259800,4.194259765625,0.0016951696015894413,-0.008123328909277916,0.001762665226124227
1783693603750221800,4.204221923828125,0.0028712216299027205,-0.003740565152838826,0.008749468252062798
1783693603760184800,4.214184814453125,0.003701418172568083,-0.005106728058308363,0.010535393841564655
1783693603770146800,4.224146728515625,0.00008351387805305421,-0.007248442620038986,0.012937831692397594
1783693603780109800,4.23410986328125,-0.0006240983493626118,-0.006475870497524738,0.011517048813402653
1783693603790071800,4.24407177734375,-0.004097925499081612,0.001357284956611693,0.006781148724257946
1783693603800034800,4.254034912109375,-0.007067882921546698,0.006957912817597389,-0.0018560150638222694
1783693603809996800,4.263996826171875,-0.004036939237266779,0.008437564596533775,-0.0028230089228600264
1783693603819959800,4.273959716796875,-0.0011052594054490328,0.007368003483861685,0.003644624724984169
1783693603829921800,4.283921875,0.0021059801802039146,0.00007094210013747215,-0.0005402667447924614
1783693603839884800,4.293884765625,0.0031364571768790483,-0.007815959863364697,-0.008041062392294407
1783693603849847800,4.303847900390625,0.006816413253545761,-0.008401589468121529,-0.010807819664478302
1783693603859809800,4.313809814453125,0.00566790672019124,-0.00748172402381897,-0.013576080091297626
1783693603869772800,4.323772705078125,0.004836467560380697,-0.007381322793662548,-0.019386032596230507
1783693603879734800,4.33373486328125,0.005552294198423624,-0.0037946111988276243,-0.020971374586224556
1783693603889697800,4.34369775390625,0.0012552838306874037,0.004686491563916206,-0.014419997110962868
1783693603899659800,4.35365966796875,-0.0004707944463007152,0.01036091335117817,-0.0001730193616822362
1783693603909622800,4.363622802734375,0.00449173990637064,0.003424976719543338,0.004449429456144571
1783693603919584800,4.373584716796875,0.005083347670733929,-0.0022633117623627186,0.012668951414525509
1783693603929547800,4.3835478515625,0.00837501510977745,-0.001948792370967567,0.01957053318619728
1783693603939509800,4.393509765625,0.009991693310439587,-0.004226082004606724,0.01797441579401493
1783693603949473000,4.40347314453125,0.013125700876116753,-0.003923280630260706,0.016450555995106697
1783693603959434800,4.413434814453125,0.017569486051797867,-0.0036774366162717342,0.014492296613752842
1783693603969397800,4.423397705078125,0.02011599950492382,-0.011903675273060799,0.006140623241662979
1783693603979360800,4.43336083984375,0.023862728849053383,-0.01795647107064724,-0.0028950972482562065
1783693603989323000,4.443322998046875,0.02389868162572384,-0.0073805260471999645,-0.007607294246554375
1783693603999286000,4.4532861328125,0.01684562675654888,0.0012611178681254387,-0.011037285439670086
1783693604009247700,4.463247802734375,0.010964302346110344,0.0035042983945459127,-0.015504205599427223
1783693604019210800,4.473210693359375,0.0007167819421738386,0.00913609005510807,-0.014203469268977642
1783693604029173000,4.483173095703125,-0.00555656012147665,0.010261275805532932,-0.012424477376043797
1783693604039136000,4.493135986328125,-0.009847676381468773,0.010028496384620667,-0.009731150232255459
1783693604049097700,4.50309765625,-0.010629047639667988,0.006514189764857292,-0.006574505474418402
1783693604059060700,4.513060791015625,-0.009010378271341324,-0.002070243936032057,-0.005211233161389828
1783693604069023000,4.52302294921875,-0.0028954939916729927,-0.007886054925620556,-0.0025539312046021223
1783693604078986000,4.532986083984375,0.0016675194492563605,-0.0073717921040952206,0.0007275552488863468
1783693604088948700,4.54294873046875,0.003882470540702343,0.002132763620465994,0.007192378863692284
1783693604098910700,4.55291064453125,0.005803545471280813,0.003900068812072277,0.013029833324253559
1783693604108873700,4.562873779296875,0.009221978485584259,0.0005974828964099288,0.013222912326455116
1783693604118836000,4.5728359375,0.010211843997240067,-0.00783545058220625,0.014383022673428059
1783693604128798700,4.582798828125,0.011442489922046661,-0.009552390314638615,0.02175811491906643
1783693604138760700,4.5927607421875,0.007724033668637276,-0.011009663343429565,0.02302055060863495
1783693604148724000,4.602723876953125,0.003719704458490014,-0.012482923455536366,0.025477582588791847
1783693604158686000,4.61268603515625,0.003404762363061309,-0.010425571352243423,0.025492211803793907
1783693604168648700,4.622648681640625,0.00664076954126358,-0.0038699344731867313,0.02232890948653221
1783693604178610700,4.632610595703125,0.00977372843772173,-0.0025501116178929806,0.02599778026342392
1783693604188574000,4.642573974609375,0.013530116528272629,-0.006382400635629892,0.024410536512732506
1783693604198537000,4.652536865234375,0.016328973695635796,-0.007710538804531097,0.01677570305764675
1783693604208498700,4.662498779296875,0.017721807584166527,-0.005770958960056305,0.01029996108263731
1783693604218461700,4.672461669921875,0.014140409417450428,-0.0001324918121099472,0.0012664932291954756
1783693604228424000,4.682423828125,0.009144851937890053,0.001308278413489461,-0.007796776480972767
1783693604238387000,4.692386962890625,0.0023528551682829857,0.000578806851990521,-0.018628191202878952
1783693604248348700,4.7023486328125,0.0022239582613110542,-0.002007122617214918,-0.024821104481816292
1783693604258311700,4.712311767578125,0.00306384707801044,-0.0006443469319492579,-0.02270803414285183
1783693604268274000,4.72227392578125,0.005616753362119198,-0.007062564603984356,-0.02049201726913452
1783693604278237000,4.73223681640625,0.009707901626825333,-0.014803574420511723,-0.012689488008618355
1783693604288198700,4.74219873046875,0.011721251532435417,-0.009544630534946918,-0.0014235177077353
1783693604298161700,4.75216162109375,0.01109631173312664,-0.0041844891384243965,0.009730975143611431
1783693604308124700,4.762124755859375,0.004199523478746414,-0.003533079754561186,0.013489495031535625
1783693604318087000,4.7720869140625,-0.0024780398234725,-0.0024627624079585075,0.008443930186331272
1783693604328050000,4.7820498046875,-0.008124740794301033,-0.00468916492536664,-0.0028561283834278584
1783693604338011600,4.79201171875,-0.008162985555827618,-0.009015471674501896,-0.012923301197588444
1783693604347974700,4.801974609375,-0.013124188408255577,-0.010987542569637299,-0.015724945813417435
1783693604357937000,4.81193701171875,-0.013892452232539654,-0.011741746217012405,-0.014430602081120014
1783693604367900000,4.82189990234375,-0.01515931822359562,-0.01255507580935955,-0.009066196158528328
1783693604377861600,4.831861572265625,-0.014497627504169941,-0.008881774730980396,0.0001346498029306531
1783693604387825000,4.841824951171875,-0.016781020909547806,-0.0014539523981511593,0.00416081678122282
1783693604397787000,4.851786865234375,-0.016569718718528748,-0.0007255688542500138,0.008671775460243225
1783693604407750000,4.86175,-0.01808985136449337,-0.0038182977586984634,0.011818831786513329
1783693604417711600,4.871711669921875,-0.019912539049983025,-0.0072529991157352924,0.012059874832630157
1783693604427675000,4.8816748046875,-0.018362844362854958,-0.006740074139088392,0.01117570511996746
1783693604437638400,4.891638427734375,-0.017116151750087738,-0.010100968182086945,0.013173909857869148
1783693604447600000,4.90160009765625,-0.010929894633591175,-0.0162198469042778,0.013806677423417568
1783693604457563100,4.911563232421875,-0.0058837635442614555,-0.017593208700418472,0.018592556938529015
1783693604467525000,4.921525146484375,-0.003101026639342308,-0.019287511706352234,0.02416948229074478
1783693604477488400,4.93148828125,-0.00032228438067249954,-0.016215022653341293,0.030375977978110313
1783693604487450000,4.9414501953125,0.0006401820573955774,-0.015588115900754929,0.03572200983762741
1783693604497413000,4.9514130859375,0.0009464615141041577,-0.01295455638319254,0.039472904056310654
1783693604507375400,4.961375244140625,-0.0019214965868741274,-0.006144586950540543,0.04506740719079971
1783693604517338400,4.97133837890625,-0.0028692944906651974,-0.0011154511012136936,0.04980727657675743
1783693604527300400,4.98130029296875,-0.002836271421983838,-0.0030089584179222584,0.04932950437068939
1783693604537263000,4.99126318359375,-0.0059033664874732494,-0.007304888218641281,0.03831657022237778
1783693604547226000,5.00122607421875,-0.006116152741014957,-0.003684054361656308,0.028066596016287804
1783693604557188400,5.011188232421875,-0.0066802105866372585,0.001987679861485958,0.01637158915400505
1783693604567151400,5.0211513671875,-0.0027768155559897423,0.0004544979892671108,-0.004192009102553129
1783693604577113000,5.031113037109375,0.0018617430469021201,-0.007836753502488136,-0.023207049816846848
1783693604587076000,5.041076171875,0.006028258241713047,-0.005884389393031597,-0.03825177997350693
1783693604597038300,5.051038330078125,0.007099621929228306,-0.0022776410914957523,-0.041219692677259445
1783693604607001300,5.06100146484375,0.00905118603259325,-0.00031595665495842695,-0.0417906753718853
1783693604616963000,5.070963134765625,0.009257560595870018,0.004533370956778526,-0.03335854783654213
1783693604626926000,5.080926025390625,0.009790992364287376,0.013117271475493908,-0.01825842447578907
1783693604636888300,5.090888427734375,0.007263861130923033,0.012431503273546696,-0.010688969865441322
1783693604646851300,5.100851318359375,0.004058746621012688,0.00848816055804491,-0.0006943922489881516
1783693604656814300,5.110814453125,0.0016686273738741875,0.003631901927292347,0.008088748902082443
1783693604666776000,5.120776123046875,0.0008268021047115326,-0.0026219990104436874,0.017043359577655792
1783693604676739300,5.1307392578125,0.0006147466483525932,-0.008799216710031033,0.01922845095396042
1783693604686701300,5.140701416015625,0.0024131792597472668,-0.011243999004364014,0.020044442266225815
1783693604696664300,5.150664306640625,0.00008191599044948816,-0.005707004573196173,0.019579224288463593
1783693604706626300,5.160626220703125,-0.001958864275366068,-0.0002001203829422593,0.023931626230478287
1783693604716589300,5.17058935546875,0.00019130404689349234,0.0004621921107172966,0.02068733051419258
1783693604726551300,5.18055126953125,0.0020435326732695103,-0.004642555024474859,0.013386006467044353
1783693604736514300,5.190514404296875,0.006789467763155699,-0.0052934070117771626,0.012720081023871899
1783693604746476300,5.200476318359375,0.008534104563295841,-0.004633209202438593,0.01416830811649561
1783693604756439300,5.210439208984375,0.007822173647582531,-0.0031996453180909157,0.018128659576177597
1783693604766402300,5.22040234375,0.003932361491024494,0.0022696885280311108,0.019424287602305412
1783693604776364300,5.2303642578125,0.0013109687715768814,0.00519139738753438,0.01573825627565384
1783693604786327000,5.2403271484375,0.0018915379187092185,0.009502789005637169,0.008019084110856056
1783693604796289300,5.250289306640625,0.0024817008525133133,0.009685811586678028,-0.0026310207322239876
1783693604806252300,5.260252197265625,0.0007759460713714361,0.006764323450624943,-0.01880333386361599
1783693604816214300,5.27021435546875,0.004591065458953381,0.0042899600230157375,-0.02995380386710167
1783693604826177300,5.28017724609375,0.007750905584543943,0.0022164229303598404,-0.03128857910633087
1783693604836139300,5.29013916015625,0.007374904118478298,0.0016337053384631872,-0.03211808204650879
1783693604846102300,5.300102294921875,0.005194041412323713,0.005267854779958725,-0.03373781591653824
1783693604856064300,5.310064208984375,0.001528837252408266,0.01360088400542736,-0.029822859913110733
1783693604866027300,5.32002734375,0.000987416598945856,0.013194218277931213,-0.022991320118308067
1783693604875990300,5.329990234375,0.00351058435626328,0.006843150593340397,-0.02105732262134552
1783693604885952300,5.3399521484375,0.004338560625910759,-0.002055269666016102,-0.019833067432045937
1783693604895915300,5.349915283203125,0.00877927802503109,-0.009103056974709034,-0.01311508659273386
1783693604905877200,5.359877197265625,0.01374793704599142,-0.00895631592720747,-0.0018262137891724706
1783693604915840300,5.36984033203125,0.017202073708176613,-0.011506067588925362,0.0006455658003687859
1783693604925802200,5.37980224609375,0.01609046943485737,-0.016693638637661934,-0.003112953621894121
1783693604935765200,5.38976513671875,0.014513611793518066,-0.014528755098581314,-0.0006676389602944255
1783693604945727200,5.399727294921875,0.011563362553715706,-0.004303281661123037,0.0030687758699059486
1783693604955690200,5.409690185546875,0.011834930628538132,-0.0018403546418994665,0.0006515433196909726
1783693604965652200,5.41965234375,0.013095138594508171,-0.001999611733481288,-0.0012638021726161242
1783693604975615200,5.429615234375,0.013874546624720097,0.007386649958789349,0.0029400005005300045
1783693604985578200,5.439578125,0.01543489284813404,0.008871362544596195,0.002272878773510456
1783693604995540200,5.449540283203125,0.014837979339063168,0.004141120705753565,-0.003389502875506878
1783693605005503200,5.459503173828125,0.013294943608343601,-0.0015156998997554183,-0.014245612546801567
1783693605015465200,5.46946533203125,0.010516822338104248,0.0007827983936294913,-0.024037810042500496
1783693605025428200,5.47942822265625,0.007710116915404797,0.006128828041255474,-0.030114876106381416
1783693605035390200,5.48939013671875,0.0027694632299244404,0.007676435634493828,-0.03333575278520584
1783693605045353200,5.499353271484375,-0.0014396627666428685,0.0053307232446968555,-0.037577901035547256
1783693605055315200,5.509315185546875,-0.008034005761146545,0.006804478354752064,-0.0345618799328804
1783693605065278200,5.5192783203125,-0.010269196704030037,0.002275240607559681,-0.03252775967121124
1783693605075240200,5.529240234375,-0.012240016832947731,-0.005506542976945639,-0.02879216894507408
1783693605085203200,5.539203125,-0.01632956601679325,-0.007921230979263783,-0.020620524883270264
1783693605095166200,5.549166259765625,-0.01516797672957182,-0.004189052619040012,-0.010754978284239769
1783693605105128200,5.559128173828125,-0.013182590715587139,-0.008206430822610855,-0.0013377745635807514
1783693605115091200,5.56909130859375,-0.0074279168620705605,-0.014305061660706997,0.007398822344839573
1783693605125053200,5.57905322265625,0.0018065940821543336,-0.013572159223258495,0.01613905094563961
1783693605135016200,5.58901611328125,0.008033424615859985,-0.008253839798271656,0.025608573108911514
1783693605144978200,5.598978271484375,0.01100790873169899,-0.013076291419565678,0.026834692806005478
1783693605154941400,5.60894140625,0.012873024679720402,-0.018105674535036087,0.024929841980338097
1783693605164903200,5.618903076171875,0.014134298078715801,-0.011625404469668865,0.022390784695744514
1783693605174866200,5.6288662109375,0.012617628090083599,-0.007950508035719395,0.02080114372074604
1783693605184828200,5.638828125,0.011622937396168709,-0.014718400314450264,0.014465750195086002
1783693605194791400,5.64879150390625,0.010881535708904266,-0.017858510836958885,0.007733521051704884
1783693605204754400,5.65875439453125,0.0015681945951655507,-0.015040085650980473,0.0016830851091071963
1783693605214716200,5.668716064453125,-0.006971962284296751,-0.013966018334031105,-0.007268296554684639
1783693605224679200,5.67867919921875,-0.01751222088932991,-0.011442672461271286,-0.010347443632781506
1783693605234641400,5.688641357421875,-0.02655322104692459,-0.005268183536827564,-0.010338920168578625
1783693605244604400,5.6986044921875,-0.030353019014000893,-0.0013687831815332174,-0.013325654901564121
1783693605254566100,5.708566162109375,-0.02991289272904396,-0.0013314852258190513,-0.01605897955596447
1783693605264529200,5.718529052734375,-0.027168238535523415,-0.0033783908002078533,-0.02068782038986683
1783693605274491400,5.728491455078125,-0.026898089796304703,-0.005564848892390728,-0.024616671726107597
1783693605284454400,5.738454345703125,-0.022530771791934967,-0.011950843036174774,-0.023454999551177025
1783693605294417200,5.748417236328125,-0.01825798489153385,-0.015545299276709557,-0.022041674703359604
1783693605304379100,5.758379150390625,-0.01753413863480091,-0.016075801104307175,-0.01828954555094242
1783693605314342100,5.768342041015625,-0.0166740994900465,-0.01577065698802471,-0.012052739039063454
1783693605324304400,5.778304443359375,-0.015714561566710472,-0.011834771372377872,-0.004097343888133764
1783693605334267100,5.78826708984375,-0.017143359407782555,-0.009259720332920551,0.006443352904170752
1783693605344229000,5.79822900390625,-0.016552137210965157,-0.013336753472685814,0.012441057711839676
1783693605354192400,5.8081923828125,-0.015246100723743439,-0.010147329419851303,0.01781662367284298
1783693605364154400,5.818154296875,-0.018243221566081047,-0.007334765046834946,0.023450274020433426
1783693605374117000,5.8281171875,-0.019999517127871513,-0.01392027735710144,0.020768627524375916
1783693605384079000,5.8380791015625,-0.020509246736764908,-0.018213558942079544,0.02615087665617466
1783693605394042400,5.84804248046875,-0.01774783805012703,-0.008928151801228523,0.028241639956831932
1783693605404005400,5.85800537109375,-0.016933178529143333,-0.0038705426268279552,0.02323170192539692
1783693605413967000,5.867967041015625,-0.014171457849442959,-0.0010528960265219212,0.018858233466744423
1783693605423930000,5.87793017578125,-0.011484860442578793,0.004713380243629217,0.006580529734492302
1783693605433892400,5.887892333984375,-0.01150478795170784,-0.003998092375695705,-0.009564290754497051
1783693605443855400,5.89785546875,-0.01192663237452507,-0.013155904598534107,-0.02125876396894455
1783693605453817300,5.9078173828125,-0.012769545428454876,-0.017800213769078255,-0.02926047332584858
1783693605463780400,5.9177802734375,-0.01367022655904293,-0.018001815304160118,-0.029845569282770157
1783693605473742300,5.927742431640625,-0.016034210100769997,-0.015480070374906063,-0.02743210457265377
1783693605483705300,5.937705322265625,-0.020775435492396355,-0.012457381933927536,-0.018797338008880615
1783693605493668400,5.94766845703125,-0.02667521871626377,-0.0064687589183449745,-0.0019675162620842457
1783693605503630300,5.95763037109375,-0.03577204421162605,-0.0035238356795161963,0.011066526174545288
1783693605513593300,5.96759326171875,-0.04039924219250679,-0.006897482555359602,0.020668238401412964
1783693605523555300,5.977555419921875,-0.03696802631020546,-0.01276788953691721,0.024407850578427315
1783693605533518300,5.987518310546875,-0.02803647518157959,-0.021869244053959846,0.023476386442780495
1783693605543480300,5.997480224609375,-0.016704192385077477,-0.032334402203559875,0.024915292859077454
1783693605553443300,6.007443359375,-0.0034271185286343098,-0.03600584343075752,0.024986036121845245
1783693605563405300,6.0174052734375,0.005475562531501055,-0.031575676053762436,0.029962152242660522
1783693605573368300,6.027368408203125,0.007168545853346586,-0.02369915321469307,0.030564920976758003
1783693605583331300,6.037331298828125,0.0029756648000329733,-0.012411077506840229,0.03036997653543949
1783693605593293300,6.047293212890625,-0.005784526467323303,0.004375689197331667,0.02807607688009739
1783693605603256300,6.05725634765625,-0.013417945243418217,0.017108527943491936,0.01695178635418415
1783693605613218300,6.06721826171875,-0.020348450168967247,0.021230248734354973,0.00259463582187891
1783693605623181300,6.077181396484375,-0.02234662137925625,0.0205407552421093,-0.011389622464776039
1783693605633143600,6.0871435546875,-0.02124122343957424,0.015694361180067062,-0.01689823716878891
1783693605643106300,6.097106201171875,-0.019638799130916595,0.008144565857946873,-0.01883195899426937
1783693605653068300,6.107068359375,-0.011512313969433308,0.00787373073399067,-0.016200127080082893
1783693605663031300,6.11703125,-0.011656390503048897,0.00923220906406641,-0.01239100657403469
1783693605672994300,6.126994384765625,-0.003283133963122964,0.009896893985569477,-0.005986541509628296
1783693605682956300,6.136956298828125,-0.002551829908043146,0.016826970502734184,0.0014721737243235111
1783693605692919300,6.146919189453125,-0.0005626583006232977,0.023127535358071327,0.00584608968347311
1783693605702881300,6.15688134765625,0.003772701369598508,0.021967727690935135,0.011758574284613132
1783693605712844300,6.16684423828125,0.004135921597480774,0.02160678245127201,0.015686077997088432
1783693605722806300,6.17680615234375,0.0032967599108815193,0.01878329925239086,0.01975964941084385
1783693605732769300,6.186769287109375,-0.00021289195865392685,0.011719337664544582,0.017157455906271935
1783693605742731300,6.196731201171875,0.001015357905998826,0.009381081908941269,0.017151329666376114
1783693605752694300,6.2066943359375,0.0007139812805689871,0.005681138951331377,0.017755189910531044
1783693605762657300,6.2166572265625,0.0039004532154649496,0.0039937603287398815,0.019501691684126854
1783693605772619300,6.226619384765625,0.00681670755147934,0.0045713866129517555,0.023110661655664444
1783693605782582300,6.236582275390625,0.007416451815515757,0.008386630564928055,0.02568008005619049
1783693605792544300,6.246544189453125,0.010604324750602245,0.012777400203049183,0.017136961221694946
1783693605802507500,6.256507568359375,0.01237905491143465,0.01071584690362215,0.007195114158093929
1783693605812469200,6.26646923828125,0.010637114755809307,0.006831927224993706,-0.002828794065862894
1783693605822432300,6.276432373046875,0.012016366235911846,0.004016966093331575,-0.009484033100306988
1783693605832394200,6.286394287109375,0.01243606861680746,0.0067874412052333355,-0.013969050720334053
1783693605842357500,6.296357421875,0.01236682664602995,0.012373687699437141,-0.010673122480511665
1783693605852320500,6.306320556640625,0.012398287653923035,0.01725870557129383,-0.008093778043985367
1783693605862282200,6.3162822265625,0.012711209245026112,0.017820633947849274,-0.006650877650827169
1783693605872245200,6.326245361328125,0.013527896255254745,0.01703020930290222,-0.005379859823733568
1783693605882207500,6.33620751953125,0.0076364511623978615,0.016808368265628815,-0.007170835509896278
1783693605892170500,6.34617041015625,0.005839534103870392,0.015831278637051582,-0.011502866633236408
1783693605902132200,6.35613232421875,0.004550564102828503,0.010900169610977173,-0.019474774599075317
1783693605912095200,6.36609521484375,0.008725695312023163,0.011147030629217625,-0.026262251660227776
1783693605922057500,6.376057373046875,0.01088019274175167,0.0009641685173846781,-0.03380059450864792
1783693605932020500,6.3860205078125,0.01190200075507164,-0.008575799874961376,-0.03510267660021782
1783693605941983200,6.395983154296875,0.013682590797543526,-0.013035529293119907,-0.03040938638150692
1783693605951945200,6.4059453125,0.01127957459539175,-0.006413891911506653,-0.017446935176849365
1783693605961908200,6.415908203125,0.005617960821837187,0.0002522669965401292,-0.002378236036747694
1783693605971870500,6.425870361328125,0.000616949051618576,0.007325388491153717,0.011564284563064575
1783693605981833200,6.435833251953125,-0.0005356670590117574,0.005136802792549133,0.02608410455286503
1783693605991795200,6.445795166015625,-0.0014763296348974109,-0.0009701262461021543,0.03586513176560402
1783693606001758500,6.455758544921875,-0.001952769118361175,-0.005301491357386112,0.03548243269324303
1783693606011720400,6.465720458984375,-0.002320517785847187,-0.012910907156765461,0.027871884405612946
1783693606021683200,6.47568310546875,-0.0032755271531641483,-0.017550399526953697,0.016869833692908287
1783693606031646200,6.485646240234375,-0.0021445404272526503,-0.021143009886145592,0.00596866849809885
1783693606041608400,6.4956083984375,-0.0005687478696927428,-0.015135450288653374,-0.00021599058527499437
1783693606051571500,6.505571533203125,-0.001954112434759736,-0.011435029096901417,-0.008771033957600594
1783693606061533200,6.515533203125,-0.004092630930244923,-0.003584829391911626,-0.01067865639925003
1783693606071496200,6.52549609375,-0.006346534006297588,-0.001477485871873796,-0.009791062213480473
1783693606081458400,6.53545849609375,-0.0044160084798932076,-0.006020838860422373,-0.005390721373260021
1783693606091421400,6.54542138671875,-0.0033406466245651245,-0.006860503926873207,-0.00212896429002285
1783693606101384400,6.555384521484375,-0.0049350811168551445,-0.006702045910060406,0.0020977389067411423
1783693606111346200,6.56534619140625,-0.006529342383146286,-0.006369402632117271,-0.0009138841414824128
1783693606121309200,6.57530908203125,-0.009410083293914795,-0.007426677271723747,0.0001844034413807094
1783693606131271400,6.585271484375,-0.008149910718202591,-0.005197061225771904,0.0016583907417953014
1783693606141234400,6.595234375,-0.011637852527201176,-0.0028508163522928953,0.0018490729853510857
1783693606151196200,6.605196044921875,-0.015897316858172417,0.001752509386278689,0.005672728642821312
1783693606161159200,6.6151591796875,-0.018709881231188774,0.0059496513567864895,0.010609163902699947
1783693606171121400,6.625121337890625,-0.019931364804506302,0.00408671610057354,0.01192418672144413
1783693606181084400,6.63508447265625,-0.02123764529824257,-0.002391955815255642,0.007701478432863951
1783693606191047400,6.64504736328125,-0.020283168181777,-0.007123061455786228,0.00369448633864522
1783693606201009200,6.655009033203125,-0.0169233251363039,-0.007659422233700752,0.0032129865139722824
1783693606210972400,6.664972412109375,-0.015856171026825905,-0.008017647080123425,0.0006820023991167545
1783693606220934400,6.674934326171875,-0.012832152657210827,-0.009547100402414799,-0.004016612656414509
1783693606230897400,6.6848974609375,-0.009602201171219349,-0.010019529610872269,-0.004646679386496544
1783693606240859400,6.694859375,-0.002937907353043556,-0.005965664982795715,-0.00007429835386574268
1783693606250822400,6.704822509765625,0.0044409711845219135,-0.002073184587061405,0.0013571991585195065
1783693606260784400,6.714784423828125,0.007769390009343624,-0.003158955369144678,0.003025403246283531
1783693606270747400,6.724747314453125,0.008274533785879612,-0.00045851455070078373,0.0051580145955085754
1783693606280710100,6.734710205078125,0.009037795476615429,0.002312770811840892,0.006340458057820797
1783693606290672400,6.74467236328125,0.00951374787837267,0.003660856280475855,0.005633181892335415
1783693606300635400,6.754635498046875,0.011707394383847713,0.00671709980815649,0.006217479705810547
1783693606310597400,6.764597412109375,0.017027776688337326,0.009083290584385395,0.007726933807134628
1783693606320560000,6.77456005859375,0.021915210410952568,0.0037567024119198322,0.007977536879479885
1783693606330522400,6.7845224609375,0.028423869982361794,0.0046669733710587025,0.007471427787095308
1783693606340485400,6.7944853515625,0.028798578307032585,0.00568723026663065,0.009325254708528519
1783693606350447400,6.804447265625,0.02722885273396969,0.00386535725556314,0.004109138622879982
1783693606360410000,6.81441015625,0.02303304336965084,0.00008926109876483679,0.0004986908170394599
1783693606370373400,6.824373291015625,0.016710927709937096,0.00492003932595253,0.0013712289510294795
1783693606380335400,6.83433544921875,0.009299085475504398,0.010535314679145813,0.005630156025290489
1783693606390298400,6.84429833984375,0.0036675301380455494,0.00976397655904293,0.00840051844716072
1783693606400260000,6.854260009765625,-0.0005972559447400272,0.012819155119359493,0.010640769265592098
1783693606410223400,6.864223388671875,-0.0007566277636215091,0.01300029270350933,0.01584038883447647
1783693606420185300,6.874185302734375,-0.003934844397008419,0.01260561216622591,0.016360770910978317
1783693606430148400,6.8841484375,-0.004817797802388668,0.008057723753154278,0.011224500834941864
1783693606440110300,6.8941103515625,-0.004302209708839655,0.007256112061440945,0.005601502023637295
1783693606450073600,6.904073486328125,-0.003210545750334859,0.008315233513712883,-0.0015932221431285143
1783693606460036400,6.914036376953125,-0.001868845196440816,0.007893388159573078,-0.009083363227546215
1783693606469998300,6.923998291015625,0.0003220103681087494,0.00882312934845686,-0.014286838471889496
1783693606479961300,6.93396142578125,0.0035127438604831696,0.0070518609136343,-0.014435974881052971
1783693606489923600,6.943923583984375,0.007196971680969,0.005059243179857731,-0.011543156579136848
1783693606499886300,6.95388623046875,0.008261969313025475,0.00984121486544609,-0.004695103969424963
1783693606509848300,6.963848388671875,0.009432452730834484,0.016947615891695023,0.0037913029082119465
1783693606519811300,6.973811279296875,0.009642843157052994,0.01879851333796978,0.009530947543680668
1783693606529774300,6.9837744140625,0.011436539702117443,0.01562695950269699,0.0163782499730587
1783693606539736300,6.993736328125,0.0073347389698028564,0.011065764352679253,0.018400121480226517
1783693606549699300,7.00369921875,0.006734218914061785,-0.0009336179355159402,0.01722484454512596
1783693606559661300,7.013661376953125,0.005984272807836533,-0.004090263042598963,0.014252491295337677
1783693606569624300,7.023624267578125,0.006630494724959135,-0.006233062595129013,0.010652344673871994
1783693606579586300,7.03358642578125,0.006751668639481068,-0.004208261612802744,0.011208146810531616
1783693606589549300,7.04354931640625,0.010496928356587887,-0.0031081577762961388,0.008402393199503422
1783693606599512300,7.05351220703125,0.01340057235211134,-0.002270327415317297,0.006862552836537361
1783693606609474300,7.063474365234375,0.015986837446689606,0.0005931195919401944,0.012227796018123627
1783693606619437600,7.0734375,0.012194497510790825,0.002436026930809021,0.017340000718832016
1783693606629399300,7.0833994140625,0.00657000532373786,0.006436891388148069,0.01949566975235939
1783693606639362300,7.0933623046875,-0.0020280100870877504,0.006175635382533073,0.01884372904896736
1783693606649324500,7.103324462890625,-0.007165073417127132,0.006919203791767359,0.01864973083138466
1783693606659287600,7.11328759765625,-0.015701036900281906,0.004873363301157951,0.010884486138820648
1783693606669249300,7.123249267578125,-0.01613977551460266,-0.00655719917267561,-0.0007237979443743825
1783693606679212300,7.13321240234375,-0.015977323055267334,-0.013315503485500813,-0.007657604292035103
1783693606689175300,7.14317529296875,-0.00921185128390789,-0.009315671399235725,-0.008102700114250183
1783693606699137500,7.153137451171875,-0.0110707376152277,0.0010296436958014965,-0.007873136550188065
1783693606709100300,7.163100341796875,-0.013296017423272133,0.002197710797190666,-0.009764198213815689
1783693606719062300,7.173062255859375,-0.017573585733771324,0.005376193672418594,-0.004588610492646694
1783693606729025300,7.183025390625,-0.01992252841591835,0.0038307267241179943,-0.000022054999135434628
1783693606738987500,7.192987548828125,-0.018044734373688698,-0.0029728510417044163,0.0027068862691521645
1783693606748950500,7.202950439453125,-0.01519996952265501,-0.008164653554558754,0.003736914601176977
1783693606758913300,7.212913330078125,-0.012778623029589653,-0.008970792405307293,0.00900864228606224
1783693606768875300,7.222875244140625,-0.010778392665088177,-0.012401492334902287,0.013414271175861359
1783693606778838300,7.23283837890625,-0.006013465113937855,-0.010843543335795403,0.02117658592760563
1783693606788800500,7.242800537109375,-0.004649810492992401,-0.007973711006343365,0.027430586516857147
1783693606798763300,7.25276318359375,-0.00041884637903422117,-0.0002601318992674351,0.03285198286175728
1783693606808725200,7.262725341796875,-0.0010418999008834362,-0.0024119983427226543,0.027713071554899216
1783693606818688500,7.2726884765625,0.000023098269593901932,-0.011614285409450531,0.019719326868653297
1783693606828650500,7.282650390625,0.00360278133302927,-0.01884208247065544,0.010215125046670437
1783693606838613200,7.29261328125,0.004159382078796625,-0.016990121454000473,0.007893647067248821
1783693606848576300,7.302576171875,0.004070799332112074,-0.019111916422843933,0.0013177146902307868
1783693606858538500,7.31253857421875,0.0019634398631751537,-0.015712391585111618,-0.0000958913005888462
1783693606868501500,7.32250146484375,-0.0010169344022870064,-0.00183139240834862,0.0013899795012548566
1783693606878463200,7.332463134765625,-0.0019327955087646842,0.00208478607237339,0.0016616219654679298
1783693606888426200,7.34242626953125,-0.001986905699595809,0.005604373756796122,-0.0020510470494627953
1783693606898388500,7.352388427734375,-0.002576263155788183,0.011403140611946583,-0.004165863152593374
1783693606908351500,7.3623515625,-0.003167322836816311,0.008958361111581326,-0.00900280475616455
1783693606918314500,7.372314453125,-0.002098862547427416,0.007247280329465866,-0.013444424606859684
1783693606928276200,7.382276123046875,-0.0024381130933761597,0.006175392307341099,-0.016816552728414536
1783693606938239200,7.3922392578125,-0.0012077325955033302,0.0016623993869870901,-0.027208473533391953
1783693606948201500,7.402201416015625,-0.0011272472329437733,0.0001398748718202114,-0.03658754378557205
1783693606958164500,7.41216455078125,-0.001442032866179943,0.001424317480996251,-0.04607745260000229
1783693606968126200,7.422126220703125,0.0025819798465818167,0.003420600201934576,-0.05118750408291817
1783693606978089200,7.432089111328125,0.004259771201759577,0.008233465254306793,-0.05455347150564194
1783693606988052500,7.442052490234375,0.005172157660126686,0.008435587398707867,-0.05957698076963425
1783693606998014500,7.452014404296875,0.00006181816570460796,0.006323967128992081,-0.05702167749404907
1783693607007977200,7.461977294921875,-0.0015761759132146835,0.011583453044295311,-0.0418519489467144
1783693607017939500,7.471939453125,-0.003693389007821679,0.016528677195310593,-0.01777298003435135
1783693607027902500,7.48190234375,-0.006254330277442932,0.01725040003657341,0.00428885268047452
1783693607037864400,7.491864501953125,-0.007719601504504681,0.016855984926223755,0.02125159092247486
1783693607047827500,7.501827392578125,-0.00816015899181366,0.015274052508175373,0.02842237986624241
1783693607057790200,7.511790283203125,-0.007206214591860771,0.00815409142524004,0.02374134212732315
1783693607067752400,7.52175244140625,-0.002194966422393918,-0.0071316249668598175,0.015629805624485016
1783693607077715500,7.531715576171875,0.005341779440641403,-0.014425490982830524,0.00867336057126522
1783693607087677400,7.541677490234375,0.011910362169146538,-0.013190047815442085,0.0069557796232402325
1783693607097640200,7.55164013671875,0.01496367622166872,-0.009811827912926674,0.005446299910545349
1783693607107602400,7.5616025390625,0.01328788697719574,-0.0031731207855045795,0.0029537612572312355
1783693607117565400,7.5715654296875,0.0072936443611979485,0.002377706114202738,-0.0026213000528514385
1783693607127527400,7.58152734375,0.004950839094817638,0.005938648711889982,-0.002851213328540325
1783693607137490200,7.591490234375,0.002678629942238331,0.009288106113672256,-0.0012834103545174003
1783693607147453200,7.601453125,0.0002283820358570665,0.006676844786852598,-0.001672040787525475
1783693607157415400,7.61141552734375,0.001996454782783985,0.001375023741275072,-0.004024943336844444
1783693607167378400,7.62137841796875,0.005202264059334993,0.005755393300205469,-0.001150702708400786
1783693607177340200,7.631340087890625,0.00784571748226881,0.00583422277122736,0.0014349604025483131
1783693607187303400,7.641303466796875,0.011575324460864067,0.0007135060150176287,-0.004378356039524078
1783693607197265400,7.651265380859375,0.011939112097024918,-0.00405381852760911,-0.008997875265777111
1783693607207228400,7.661228515625,0.011003879830241203,-0.00284099904820323,-0.012280449271202087
1783693607217191400,7.67119140625,0.007348957937210798,0.0009817022364586592,-0.011711599305272102
1783693607227153400,7.6811533203125,0.001945750555023551,0.0022229766473174095,-0.011180433444678783
1783693607237116400,7.691116455078125,0.004344193264842033,0.006433433853089809,-0.004384845495223999
1783693607247078400,7.701078369140625,0.0023736516013741493,0.009647373110055923,0.005038075149059296
1783693607257041400,7.71104150390625,-0.0012168220710009336,0.007303792051970959,0.011248832568526268
1783693607267003400,7.72100341796875,-0.0058310264721512794,0.005125048104673624,0.018669741228222847
1783693607276966400,7.73096630859375,-0.009161309339106083,0.005682714283466339,0.020244469866156578
1783693607286929400,7.740929443359375,-0.008962361142039299,0.004280785098671913,0.020761216059327126
1783693607296891400,7.750891357421875,-0.009077942930161953,0.00005301681812852621,0.018877562135457993
1783693607306854100,7.760854248046875,-0.0046401070430874825,-0.004606934264302254,0.01715780608355999
1783693607316816400,7.77081640625,0.00046810219646431506,-0.010314354673027992,0.014986797235906124
1783693607326779400,7.780779296875,0.003849505912512541,-0.014300852082669735,0.011585419066250324
1783693607336741400,7.790741455078125,0.005500399507582188,-0.010698660276830196,0.006266287062317133
1783693607346704400,7.800704345703125,0.006202339194715023,-0.004043170716613531,0.006316050887107849
1783693607356666400,7.810666259765625,0.003953033126890659,-0.0006947782821953297,0.008892659097909927
1783693607366629400,7.82062939453125,0.00012130066170357168,-0.0004076665500178933,0.009768816642463207
1783693607376592400,7.83059228515625,-0.0008411657181568444,-0.004011988639831543,0.008771196939051151
1783693607386554400,7.840554443359375,-0.0037220593076199293,-0.0063729239627718925,0.0074408832006156445
1783693607396517400,7.850517333984375,-0.004239245317876339,-0.005175833590328693,0.009342379868030548
1783693607406479400,7.860479248046875,-0.005788115318864584,-0.0007379190064966679,0.01354722399264574
1783693607416442400,7.8704423828125,-0.009343435056507587,0.00022001995239406824,0.012809261679649353
1783693607426404400,7.880404296875,-0.01299893669784069,0.00007861293852329254,0.009836846962571144
1783693607436367400,7.890367431640625,-0.012411442585289478,-0.0011144831078127027,0.007220025174319744
1783693607446330400,7.900330322265625,-0.010575298219919205,0.0003374743973836303,0.005049440078437328
1783693607456292000,7.9102919921875,-0.006036205682903528,-0.0011554937809705734,0.0013463149080052972
1783693607466255000,7.920255126953125,-0.003479953622445464,-0.006419773679226637,-0.0060139610432088375
1783693607476217300,7.93021728515625,0.00014167916378937662,-0.004117736592888832,-0.005169738549739122
1783693607486180400,7.940180419921875,0.0012073260731995106,0.0034182192757725716,-0.0013405482750386
1783693607496142000,7.95014208984375,0.0007157064974308014,0.0011835607001557946,0.0023442013189196587
1783693607506105000,7.96010498046875,0.0011348071275278926,-0.004517443478107452,0.0007584235281683505
1783693607516067300,7.9700673828125,0.001561179175041616,-0.002848440082743764,0.0005168748321011662
1783693607526030300,7.9800302734375,0.00194769655354321,-0.0008039447711780667,0.0038829646073281765
1783693607535993300,7.989993408203125,0.0029415881726890802,-0.0035744314081966877,0.003434754442423582
1783693607545955000,7.999955078125,0.0030262768268585205,-0.00608632480725646,0.005195902660489082
1783693607555918300,8.00991845703125,0.0030739472713321447,0.0012144648935645819,0.012807750143110752
1783693607565880300,8.01988037109375,0.0006838521221652627,0.0038417119067162275,0.013919632881879807
1783693607575843300,8.02984326171875,-0.0002772826992440969,0.0042462460696697235,0.008362147957086563
1783693607585805000,8.03980517578125,-0.0028391508385539055,0.007705093361437321,0.004103447776287794
1783693607595768300,8.049768310546876,-0.0023304871283471584,0.00481156911700964,-0.005595252383500338
1783693607605731300,8.0597314453125,-0.004840978886932135,-0.005731603130698204,-0.013180163688957691
1783693607615693300,8.069693359375,-0.004535248037427664,-0.010608917102217674,-0.020158177241683006
1783693607625656000,8.079656005859375,-0.000836893159430474,-0.008052258752286434,-0.016419388353824615
1783693607635618300,8.089618408203124,0.0016430423129349947,-0.007436003535985947,-0.009119931608438492
1783693607645581300,8.099581298828125,-0.0005955082015134394,-0.001117176259867847,0.0009853806113824248
1783693607655543300,8.109543212890625,-0.0034546777606010437,0.007937837392091751,0.013254031538963318
1783693607665506000,8.119506103515626,-0.0025672882329672575,0.006182038690894842,0.01885863021016121
1783693607675468300,8.12946826171875,0.0011374350870028138,0.006782048847526312,0.017819732427597046
1783693607685431300,8.139431396484374,0.0002976248797494918,0.008120330981910229,0.011733140796422958
1783693607695394300,8.149394287109375,0.0029996680095791817,0.004121594130992889,0.004232614301145077
1783693607705356000,8.15935595703125,0.0062715234234929085,-0.00186439068056643,-0.0015337710501626134
1783693607715319000,8.169319091796876,0.011165348812937737,-0.004591467324644327,-0.004870978184044361
1783693607725281300,8.17928125,0.014214077964425087,-0.0066943042911589146,-0.004228405654430389
1783693607735244300,8.189244384765624,0.01957635208964348,-0.007969691418111324,-0.003909359686076641
1783693607745206300,8.199206298828125,0.019398974254727364,-0.0035533830523490906,0.001973309088498354
1783693607755169300,8.209169189453124,0.01296477671712637,0.006003104150295258,0.011166274547576904
1783693607765131300,8.21913134765625,0.004733918700367212,0.007726182695478201,0.018942583352327347
1783693607775094300,8.22909423828125,-0.0022219917736947536,0.009281468577682972,0.022843049839138985
1783693607785057300,8.239057373046874,-0.011536616832017899,0.010618102736771107,0.0248950757086277
1783693607795019300,8.249019287109375,-0.013215207494795322,0.005606033839285374,0.02271953970193863
1783693607804982300,8.258982177734374,-0.012062140740454197,-0.00017806130927056074,0.017798416316509247
1783693607814944300,8.2689443359375,-0.008293768391013145,0.0003971814876422286,0.012810316868126392
1783693607824907300,8.2789072265625,-0.004428721498697996,0.0018786457367241383,0.008230053819715977
1783693607834869200,8.288869140625,0.0018403594149276614,0.0030975746922194958,0.0017689585220068693
1783693607844832300,8.298832275390625,0.009653553366661072,0.0022006335202604532,0.00013909273548051715
1783693607854795300,8.308795166015624,0.012553735636174679,-0.006216287147253752,-0.0027491054497659206
1783693607864757200,8.31875732421875,0.016168421134352684,-0.008408624678850174,0.0012043796014040709
1783693607874720300,8.32872021484375,0.015976672992110252,-0.006152660585939884,0.007117129862308502
1783693607884682200,8.33868212890625,0.014811273664236069,-0.004451381042599678,0.008532227016985416
1783693607894645200,8.348645263671875,0.012045580893754959,0.0004783966578543186,0.012900876812636852
1783693607904607200,8.358607177734376,0.011010270565748215,0.005222572013735771,0.019298939034342766
1783693607914570200,8.3685703125,0.008654704317450523,0.0046417368575930595,0.02113678678870201
1783693607924532200,8.3785322265625,0.005036361049860716,-0.0009922463214024901,0.015568078495562077
1783693607934495200,8.3884951171875,0.006012675818055868,-0.002791211474686861,0.010198879055678844
1783693607944458200,8.398458251953125,0.005978795699775219,0.003452883567661047,0.004635114688426256
1783693607954420200,8.408420166015626,0.0074315499514341354,0.006611392833292484,-0.003882473334670067
1783693607964383200,8.41838330078125,0.00531257688999176,0.006103791296482086,-0.011310453526675701
1783693607974345200,8.42834521484375,0.005959725007414818,0.006812458857893944,-0.01982404664158821
1783693607984308200,8.43830810546875,0.005135824903845787,0.0056829871609807014,-0.024563807994127274
1783693607994270200,8.448270263671875,0.00433980580419302,0.0023186160251498222,-0.030093595385551453
1783693608004233200,8.458233154296876,0.002502420684322715,0.0036454391665756702,-0.030170440673828125
1783693608014195200,8.4681953125,0.001371375983580947,0.006841232534497976,-0.025539735332131386
1783693608024158200,8.478158203125,0.005730624310672283,0.003688555210828781,-0.017967861145734787
1783693608034121200,8.488121337890625,0.006035822443664074,-0.0017157976981252432,-0.009147737175226212
1783693608044083500,8.49808349609375,0.004919795785099268,0.00026053201872855425,0.0027420546393841505
1783693608054046200,8.508046142578126,0.002655576216056943,0.002812372986227274,0.01616598479449749
1783693608064008200,8.51800830078125,-0.0012868167832493782,-0.0026734815910458565,0.023537516593933105
1783693608073971200,8.52797119140625,-0.0018154543358832598,-0.003965381067246199,0.028341326862573624
1783693608083933400,8.537933349609375,-0.002074950374662876,-0.007991544902324677,0.031150853261351585
1783693608093896200,8.547896240234374,-0.0004152683250140399,-0.010533532127737999,0.02944030426442623
1783693608103859200,8.557859130859375,-0.0017123554134741426,-0.007701814640313387,0.024746131151914597
1783693608113821200,8.5678212890625,-0.0013853192795068026,-0.00739049119874835,0.012823158875107765
1783693608123784200,8.5777841796875,0.002732668537646532,-0.007388578727841377,0.007350473664700985
1783693608133746200,8.58774609375,0.0029427919071167707,-0.006491092965006828,0.002318963408470154
1783693608143709200,8.597709228515624,0.0006739874370396137,-0.00738751795142889,-0.004421811550855637
1783693608153671200,8.607671142578125,0.0009051497327163815,-0.0072980355471372604,-0.006369647569954395
1783693608163634200,8.61763427734375,-0.0004967496497556567,-0.006536649540066719,-0.013973493129014969
1783693608173596200,8.62759619140625,-0.0010424313368275762,-0.007769159972667694,-0.01572718471288681
1783693608183559200,8.63755908203125,-0.0015828220639377832,-0.00830843299627304,-0.024946589022874832
1783693608193521200,8.647521240234376,-0.002882444765418768,0.000005956506356596947,-0.02576817385852337
1783693608203484400,8.657484375,-0.004768171347677708,0.001947405282407999,-0.018113134428858757
1783693608213447400,8.667447509765625,-0.0036096961703151464,-0.005442333873361349,-0.017491819337010384
1783693608223409200,8.6774091796875,0.0018650342244654894,-0.009094895794987679,-0.010115250945091248
1783693608233372200,8.6873720703125,0.0078435642644763,-0.0036740312352776527,0.004455701448023319
1783693608243334400,8.69733447265625,0.009008882567286491,-0.006811209954321384,0.018525049090385437
1783693608253297400,8.70729736328125,0.013797512277960777,-0.01673974096775055,0.02809778042137623
1783693608263259100,8.717259033203124,0.014353557489812374,-0.01499406062066555,0.034463293850421906
1783693608273222100,8.72722216796875,0.00650628749281168,-0.009734051302075386,0.038790397346019745
1783693608283185200,8.73718505859375,-0.0019980664364993572,-0.00993349775671959,0.03366048261523247
1783693608293147400,8.7471474609375,-0.0080722039565444,-0.007582992315292358,0.027270494028925896
1783693608303110100,8.757110107421875,-0.01419628132134676,0.0015383029822260141,0.023416027426719666
1783693608313072000,8.767072021484376,-0.01586182415485382,0.00022722873836755753,0.016485150903463364
1783693608323035100,8.77703515625,-0.015319393947720528,-0.008189164102077484,0.00447371369227767
1783693608332997400,8.786997314453124,-0.01467384397983551,-0.005508425645530224,0.0017554252408444881
1783693608342960400,8.79696044921875,-0.016635969281196594,-0.0025874320417642593,-0.004648930858820677
1783693608352922000,8.806922119140625,-0.01513234805315733,-0.0007152297766879201,-0.00835392065346241
1783693608362885000,8.816885009765626,-0.010910323821008205,-0.0002473557833582163,-0.01199479028582573
1783693608372848400,8.826848388671875,-0.008151022717356682,0.0028054257854819298,-0.010965478606522083
1783693608382810400,8.836810302734374,-0.008712265640497208,0.003123184200376272,-0.009474579244852066
1783693608392773000,8.846773193359375,-0.009555955417454243,0.006971452385187149,-0.004624962341040373
1783693608402735400,8.8567353515625,-0.008642027154564857,0.006963180378079414,0.00023313931887969375
1783693608412698400,8.866698486328126,-0.010826352052390575,0.009870287030935287,0.003628936130553484
1783693608422660400,8.876660400390625,-0.010987509042024612,0.010118777863681316,0.007809760048985481
1783693608432623000,8.886623046875,-0.009150460362434387,0.006250270642340183,0.011855634860694408
1783693608442584800,8.896584716796875,-0.005000513978302479,0.0012041080044582486,0.015094256028532982
1783693608452547800,8.9065478515625,-0.005719301290810108,-0.0005149624776095152,0.03674255684018135
1783693608462510800,8.9165107421875,-0.007193638943135738,0.015537762083113194,0.045535799115896225
1783693608472472800,8.926472900390625,-0.0019781040027737617,0.0028078523464500904,0.03617505356669426
1783693608482435800,8.936435791015626,0.0025771150831133127,-0.002980751683935523,0.03114679828286171
1783693608492397800,8.946397705078125,0.0026104047428816557,0.0022483651991933584,0.02891427092254162
1783693608502360800,8.95636083984375,0.006600978784263134,0.00027201976627111435,0.02248179167509079
1783693608512322800,8.96632275390625,0.004967928398400545,-0.0020119070541113615,0.015403110533952713
1783693608522285800,8.976285888671875,0.003685686970129609,-0.0004534615436568856,0.0030773465987294912
1783693608532247800,8.986247802734376,0.006121946964412928,0.003970048855990171,-0.0030623048078268766
1783693608542210800,8.9962109375,0.010789237916469574,-0.0009767229203134775,-0.015008179470896721
1783693608552173800,9.006173828125,0.010609474964439869,0.0015873685479164124,-0.022817367687821388
1783693608562135800,9.0161357421875,0.010438467375934124,0.007687571458518505,-0.02749597281217575
1783693608572099000,9.02609912109375,0.00927599798887968,0.012613354250788689,-0.03060920722782612
1783693608582060800,9.036060791015625,0.0013242957647889853,0.009061514399945736,-0.033715058118104935
1783693608592023800,9.04602392578125,-0.002459789626300335,0.002894432283937931,-0.034797631204128265
1783693608601986000,9.055986083984376,-0.004694829694926739,0.001301586627960205,-0.028065524995326996
1783693608611949000,9.065948974609375,-0.010365499183535576,0.00743724312633276,-0.02543245628476143
1783693608621910800,9.075910888671874,-0.01525755226612091,0.015107959508895874,-0.0229228176176548
1783693608631873800,9.085873779296875,-0.016715366393327713,0.019756773486733437,-0.01761460490524769
1783693608641836800,9.0958369140625,-0.013774888589978218,0.014449868351221085,-0.014693781733512878
1783693608651799000,9.105799072265626,-0.00960251409560442,0.007550150156021118,-0.014147832989692688
1783693608661761800,9.11576171875,-0.006399220786988735,0.0042412178590893745,-0.015314613468945026
1783693608671723800,9.125723876953124,-0.005023697856813669,-0.0003910847008228302,-0.015002491883933544
1783693608681686800,9.135686767578125,0.00046913247206248343,-0.0022843731567263603,-0.01214582659304142
1783693608691649000,9.14564892578125,0.002566371811553836,0.001994527643546462,-0.00678648054599762
1783693608701611800,9.15561181640625,0.0021300881635397673,0.0057967184111475945,-0.0000966688385233283
1783693608711573800,9.16557373046875,0.00298949028365314,0.005732802674174309,0.0013510254211723804
1783693608721536800,9.175536865234376,0.003254845505580306,0.006725093349814415,-0.0006595522863790393
1783693608731500000,9.1855,0.004046336747705936,0.007773846387863159,-0.0009357220260426402
1783693608741461800,9.195461669921874,0.006053457036614418,0.010456717573106289,-0.005655751563608646
1783693608751424800,9.2054248046875,0.0059293536469340324,0.00748276524245739,-0.012801012024283409
1783693608761386800,9.21538671875,0.005098887253552675,0.008954708464443684,-0.01702490821480751
1783693608771350000,9.22535009765625,0.006488524843007326,0.0049277422949671745,-0.02593637816607952
1783693608781311700,9.235311767578125,0.0042052119970321655,0.0018845230806618929,-0.03306206315755844
1783693608791274800,9.245274658203124,0.00067758874502033,0.0018064924515783787,-0.040375370532274246
1783693608801237000,9.255237060546875,-0.003663711715489626,0.0032108023297041655,-0.042083390057086945
1783693608811200000,9.265199951171875,-0.006192382890731096,0.004753837827593088,-0.04313826560974121
1783693608821163000,9.2751630859375,-0.013355591334402561,0.004471811465919018,-0.04122169688344002
1783693608831124700,9.285124755859375,-0.014944965951144695,0.006751743145287037,-0.03213818743824959
1783693608841087700,9.295087646484374,-0.014473377726972103,0.0031889621168375015,-0.02132713422179222
1783693608851050000,9.305050048828125,-0.012794521637260914,0.0036728582344949245,-0.0070861466228961945
1783693608861013000,9.315012939453124,-0.015580176375806332,0.0035349177196621895,0.01346146035939455
1783693608870974700,9.324974609375,-0.011910607106983662,-0.0013373353285714984,0.025353537872433662
1783693608880937700,9.334937744140625,-0.00926069263368845,-0.0011282612103968859,0.02958294190466404
1783693608890900000,9.34489990234375,-0.011000536382198334,-0.002261968795210123,0.027517393231391907
1783693608900863000,9.354863037109375,-0.0066634276881814,-0.0038707933854311705,0.023891670629382133
1783693608910824700,9.36482470703125,-0.00586421275511384,-0.0031083307694643736,0.020360851660370827
1783693608920787700,9.37478759765625,-0.003720286302268505,-0.0014731745468452573,0.01955564320087433
1783693608930750700,9.384750732421875,-0.0032276015263050795,-0.0012595889857038856,0.01697344146668911
1783693608940713000,9.394712890625,-0.00027441096608527005,-0.0011320121120661497,0.01599844917654991
1783693608950676000,9.404676025390625,0.0013088382547721267,-0.002025236375629902,0.016984084621071815
1783693608960637700,9.4146376953125,-0.005297433119267225,-0.0053486293181777,0.008427382446825504
1783693608970601000,9.42460107421875,-0.00508571183308959,-0.005897507071495056,0.004721061326563358
1783693608980563000,9.43456298828125,-0.006059872917830944,-0.002458011731505394,-0.0007405728101730347
1783693608990526000,9.44452587890625,-0.0049261655658483505,-0.002739241346716881,-0.00513745192438364
1783693609000487700,9.45448779296875,-0.00021565934002865106,-0.0034343129955232143,-0.011852732859551907
1783693609010451000,9.464450927734376,0.004898408893495798,-0.005614376626908779,-0.02050454542040825
1783693609020414000,9.4744140625,0.005615320987999439,-0.00850418396294117,-0.021944770589470863
1783693609030376000,9.4843759765625,0.005882169585675001,-0.011192910373210907,-0.022188715636730194
1783693609040338700,9.494338623046875,0.007208294700831175,-0.006911848206073046,-0.015024740248918533
1783693609050301000,9.504301025390625,0.0051424806006252766,-0.0015751395840197802,-0.006860021036118269
1783693609060264000,9.514263916015626,0.001727730967104435,0.000756412569899112,0.004869920201599598
1783693609070226000,9.524225830078125,0.0026987195014953613,0.004102674312889576,0.010478004813194275
1783693609080188700,9.534188720703124,0.0015905896434560418,0.006719507742673159,0.010844710282981396
1783693609090151000,9.54415087890625,0.0009554256685078144,-0.0028154077008366585,0.006934657692909241
1783693609100114000,9.554114013671875,0.0016433780547231436,-0.003691050224006176,0.007809554226696491
1783693609110077000,9.564076904296876,0.006526816636323929,-0.0017866239650174975,0.00948281865566969
1783693609120038700,9.57403857421875,0.008577889762818813,-0.0005530343623831868,0.009511193260550499
1783693609130001700,9.584001708984376,0.01045515201985836,-0.0010033749276772141,0.008469897322356701
1783693609139964000,9.5939638671875,0.014058965258300304,-0.002786923199892044,0.006710430607199669
1783693609149927000,9.603927001953124,0.014276012778282166,-0.0031712171621620655,0.0038507285062223673
1783693609159889000,9.613888916015625,0.009668918326497078,-0.004987746011465788,0.003579231910407543
1783693609169852000,9.623851806640625,0.0046930680982768536,-0.004645796027034521,0.0014918462838977575
1783693609179814000,9.63381396484375,0.005945796146988869,-0.0024061002768576145,0.002131827175617218
1783693609189777000,9.64377685546875,0.007542893756181002,0.002821684814989567,0.006181962788105011
1783693609199740000,9.653739990234374,0.007238262332975864,0.006381832528859377,0.010794522240757942
1783693609209702000,9.663701904296875,0.01094298530369997,0.005113635212182999,0.014079265296459198
1783693609219665000,9.673664794921875,0.01262740045785904,0.0031609716825187206,0.015369069762527943
1783693609229627000,9.683626953125,0.01719578728079796,0.0035167697351425886,0.011945841833949089
1783693609239590000,9.69358984375,0.017914099618792534,0.002643523970618844,0.0015225447714328766
1783693609249552000,9.7035517578125,0.02204865776002407,-0.0006611926946789026,-0.0077322060242295265
1783693609259515000,9.713514892578125,0.022232068702578545,-0.0029768384993076324,-0.013307293877005577
1783693609269476900,9.723476806640624,0.021274928003549576,0.00029485474806278944,-0.013106225058436394
1783693609279440000,9.73343994140625,0.01594853587448597,0.0018531068926677108,-0.005765098612755537
1783693609289403000,9.74340283203125,0.011973768472671509,0.00013643328566104174,-0.00011174008250236511
1783693609299364900,9.75336474609375,0.0083367470651865,0.003239286597818136,0.007912678644061089
1783693609309328000,9.763327880859375,0.0021795188076794147,0.007536297198385,0.01640656404197216
1783693609319289900,9.773289794921874,-0.007901090197265148,0.010218887589871883,0.022841839119791985
1783693609329252900,9.7832529296875,-0.011884646490216255,0.005560220219194889,0.0250951386988163
1783693609339214800,9.79321484375,-0.010413944721221924,0.006735471077263355,0.020055217668414116
1783693609349177900,9.803177734375,-0.004529157187789679,0.005774868652224541,0.012784520164132118
1783693609359139800,9.813139892578125,0.004127875901758671,0.002289858413860202,0.004247648641467094
1783693609369102800,9.823102783203124,0.008108235895633698,-0.00469614565372467,0.002027371199801564
1783693609379065900,9.83306591796875,0.009051180444657803,-0.00809756200760603,0.0012238696217536926
1783693609389027800,9.84302783203125,0.010031224228441715,-0.005439727567136288,-0.005338159389793873
1783693609398990800,9.852990966796876,0.008377551101148129,-0.0041955080814659595,-0.0058586387895047665
1783693609408952800,9.862952880859375,0.007870751433074474,0.0035857162438333035,-0.002247392199933529
1783693609418915800,9.872915771484376,0.0013466904638335109,0.0077703846618533134,0.0014986734604462981
1783693609428877800,9.8828779296875,-0.0032275549601763487,0.008919537998735905,0.004878224804997444
1783693609438841300,9.89284130859375,-0.011017660610377789,0.012551304884254932,0.014903041534125805
1783693609448804400,9.902804443359376,-0.008361956104636192,0.007078508846461773,0.01887461356818676
1783693609458766300,9.912766357421875,-0.001551720779389143,-0.0015485875774174929,0.01822677254676819
1783693609468729300,9.922729248046876,0.007074257824569941,0.0025132657028734684,0.01883743517100811
1783693609478691300,9.93269140625,0.009379015304148197,0.012784335762262344,0.030113734304904938
1783693609488654300,9.942654296875,0.004871881566941738,0.0098055899143219,0.03740786761045456
1783693609498616300,9.9526162109375,0.0052976286970078945,-0.006321752443909645,0.03258247300982475
1783693609508579300,9.962579345703125,0.005239571910351515,-0.003957930952310562,0.03105594776570797
1783693609518541300,9.972541259765626,0.004696425516158342,0.0035079538356512785,0.02663261629641056
1783693609528504300,9.98250439453125,0.0016929125413298607,0.0036043603904545307,0.018155241385102272
1783693609538467300,9.99246728515625,-0.002577604725956917,0.006024129688739777,0.016826145350933075
1783693609548429300,10.00242919921875,-0.00855213962495327,0.0056246547028422356,0.02124965563416481
1783693609558392300,10.012392333984375,-0.003012765198945999,-0.004720128141343594,0.013866573572158813
1783693609568354300,10.022354248046875,0.004641958512365818,-0.00562826544046402,0.0033257827162742615
1783693609578317300,10.0323173828125,0.008803077973425388,0.0010453335708007216,-0.00757910031825304
1783693609588279300,10.042279296875,0.00562592688947916,0.0012123137712478638,-0.014444996602833271
1783693609598242300,10.0522421875,-0.0026038659270852804,0.000025356654077768326,-0.015146592631936073
1783693609608205300,10.062205322265624,-0.008611157536506653,-0.002094253199175,-0.014628607779741287
1783693609618167300,10.072167236328125,-0.01185642834752798,0.0011801078217104077,-0.01025192067027092
1783693609628130600,10.082130615234375,-0.0129366060718894,0.00878503080457449,0.001348542864434421
1783693609638092300,10.09209228515625,-0.012931916862726212,0.012435427866876125,0.012561407871544361
1783693609648055300,10.10205517578125,-0.005379192065447569,0.011017294600605965,0.018687477335333824
1783693609658017300,10.112017333984374,-0.002413264475762844,0.002801194554194808,0.021804900839924812
1783693609667980500,10.12198046875,0.0019620428793132305,0.0024182319175451994,0.018108965829014778
1783693609677942300,10.1319423828125,0.0075192139483988285,0.0007846032385714352,0.01468258909881115
1783693609687905300,10.1419052734375,0.0067884428426623344,-0.0008575018728151917,0.012979497201740742
1783693609697868300,10.151868408203125,0.006973359268158674,-0.0004326888592913747,0.012889230623841286
1783693609707830500,10.16183056640625,0.007939820177853107,-0.0011986138997599483,0.013739045709371567
1783693609717793300,10.171793212890625,0.0073480429127812386,-0.0031802949961274862,0.014527098275721073
1783693609727755300,10.18175537109375,0.009085222147405148,-0.0003533496055752039,0.011991769075393677
1783693609737718300,10.19171826171875,0.011878995224833488,0.004093073308467865,0.005993894767016172
1783693609747680500,10.201680419921875,0.012965031899511814,0.007337069604545832,0.005491622723639011
1783693609757643300,10.211643310546876,0.00693513685837388,0.005818251054733992,0.008856330998241901
1783693609767606300,10.221606201171875,0.0015949661610648036,0.004985480569303036,0.012964524328708649
1783693609777568300,10.231568359375,-0.0014028380392119288,0.006062472239136696,0.014972378499805927
1783693609787531300,10.24153125,-0.0035810377448797226,0.008227089419960976,0.00924738124012947
1783693609797493200,10.2514931640625,-0.0031762137077748775,0.010349119082093239,0.005095490254461765
1783693609807456300,10.261456298828126,0.0010353091638535261,0.007629765197634697,-0.005523865111172199
1783693609817418200,10.271418212890625,0.0025051883421838284,0.00941991712898016,-0.008905148133635521
1783693609827381200,10.28138134765625,0.003739563748240471,0.007977815344929695,-0.016559073701500893
1783693609837343200,10.29134326171875,0.002301502740010619,0.0060590533539652824,-0.021555744111537933
1783693609847306200,10.30130615234375,-0.0005528732435777783,0.0009069016668945551,-0.02333739772439003
1783693609857269200,10.311269287109376,0.00010959189967252314,-0.0024454540107399225,-0.02509368024766445
1783693609867231500,10.3212314453125,0.0006829705089330673,-0.0037743712309747934,-0.022890979424118996
1783693609877194500,10.331194580078124,0.0008395895711146295,0.0018586652586236596,-0.009697221219539642
1783693609887156200,10.34115625,-0.0018382188864052296,0.0020461517851799726,0.006178680807352066
1783693609897119200,10.351119140625,-0.003699862165376544,0.0024262508377432823,0.018418341875076294
1783693609907081500,10.36108154296875,-0.003585878759622574,0.005011115223169327,0.02555507980287075
1783693609917044500,10.37104443359375,-0.000717074959538877,0.004664364270865917,0.03317391127347946
1783693609927007500,10.381007568359376,0.006398625206202269,0.004691528622061014,0.03732125088572502
1783693609936969200,10.39096923828125,0.00629010796546936,0.0033444815780967474,0.035566143691539764
1783693609946932200,10.40093212890625,0.0035467855632305145,-0.0006681032245978713,0.03482338786125183
1783693609956894500,10.41089453125,0.0038592899218201637,0.005557524971663952,0.03345685824751854
1783693609966857500,10.420857421875,0.0012762899277731776,0.007576733827590942,0.029214443638920784
1783693609976819200,10.430819091796875,-0.003541066776961088,0.00728808157145977,0.02145315892994404
1783693609986782200,10.4407822265625,-0.005666003096848726,0.0042568715289235115,0.01111183688044548
1783693609996744400,10.450744384765626,-0.007543763145804405,-0.0008875750936567783,-0.009018659591674805
1783693610006707500,10.46070751953125,-0.00835389643907547,-0.005308954976499081,-0.018280867487192154
1783693610016670200,10.470670166015625,-0.0034827436320483685,-0.00407136557623744,-0.017905699089169502
1783693610026632200,10.480632080078125,-0.0019719323609024286,-0.0012441539438441396,-0.004060723818838596
1783693610036595500,10.490595458984375,-0.002803904004395008,0.002752718050032854,0.019467506557703018
1783693610046557400,10.500557373046876,-0.009049549698829651,0.008402613922953606,0.046771563589572906
1783693610056520200,10.510520263671875,-0.014794857241213322,0.012204047292470932,0.07314257323741913
1783693610066482400,10.520482421875,-0.015823902562260628,0.010087099857628345,0.08439017087221146
1783693610076445400,10.530445556640625,-0.01584918051958084,0.006590287201106548,0.07767706364393234
1783693610086408400,10.540408447265625,-0.015618816018104553,0.0005566297331824899,0.05152162164449692
1783693610096370200,10.5503701171875,-0.016084404662251472,0.0029721534810960293,0.039778802543878555
1783693610106333200,10.560333251953125,-0.012114697135984898,-0.00019940512720495462,0.026730114594101906
1783693610116295400,10.57029541015625,0.00172514864243567,0.0009254981996491551,0.01981038600206375
1783693610126258400,10.580258544921875,0.011274178512394428,0.02653498761355877,0.022900717332959175
1783693610136220200,10.59022021484375,0.012569423764944077,0.03838498145341873,0.0056404066272079945
1783693610146183200,10.60018310546875,0.01962360553443432,0.04003533720970154,-0.03825061768293381
1783693610156145400,10.6101455078125,0.011798438616096973,0.10052930563688278,-0.029394010081887245
1783693610166108400,10.6201083984375,0.014595290645956993,0.12891727685928345,-0.04976266622543335
1783693610176071400,10.630071533203125,0.01427706703543663,0.014608567580580711,-0.05913941189646721
1783693610186033200,10.640033203125,0.016177497804164886,0.007647064048796892,-0.057737257331609726
1783693610195996200,10.64999609375,-0.012231389991939068,0.01095471903681755,-0.01605149731040001
1783693610205958400,10.65995849609375,-0.025897666811943054,-0.017895571887493134,0.001809258246794343
1783693610215921400,10.66992138671875,-0.04382837191224098,-0.04504704475402832,0.02587743103504181
1783693610225883100,10.679883056640625,-0.04825188219547272,-0.057407841086387634,0.05457325652241707
1783693610235846400,10.689846435546874,-0.0577438659965992,-0.046672314405441284,0.0961747020483017
1783693610245808400,10.699808349609375,-0.05052084103226662,0.014132712967693806,0.15646706521511078
