time,seconds_elapsed,z,y,x
1783693586731494000,0.059493896484375,0.003262522164732218,-0.04299519956111908,0.06978342682123184
1783693586741456100,0.0694560546875,-0.0009621540084481239,-0.0342688150703907,0.05882493779063225
1783693586751419000,0.0794189453125,-0.006998741067945957,-0.020532231777906418,0.04246753454208374
1783693586761380900,0.089380859375,-0.015330188907682896,-0.014402179978787899,0.029001804068684578
1783693586771344000,0.09934375,-0.020668495446443558,-0.018362032249569893,0.025189755484461784
1783693586781306000,0.10930615234375,-0.01786421798169613,-0.021044082939624786,0.02144768089056015
1783693586791268900,0.119268798828125,-0.017596837133169174,-0.013985908590257168,0.02277020551264286
1783693586801232000,0.12923193359375,-0.01577301323413849,-0.0020368508994579315,0.024007894098758698
1783693586811193900,0.13919384765625,-0.012517564930021763,0.010530073195695877,0.020912501960992813
1783693586821156900,0.149156982421875,-0.008233857341110706,0.011741557158529758,0.014921179972589016
1783693586831118800,0.159118896484375,-0.010605668649077415,0.006649592891335487,0.001332400250248611
1783693586841081900,0.169081787109375,-0.008871818892657757,-0.005253650713711977,-0.019860146567225456
1783693586851044900,0.179044921875,-0.004658165853470564,-0.012966698035597801,-0.03499595820903778
1783693586861006800,0.1890068359375,-0.00039718608604744077,-0.01758326217532158,-0.04391314461827278
1783693586870970000,0.19897021484375,-0.004002041183412075,-0.0008482243865728378,-0.03591087833046913
1783693586880931800,0.208931884765625,-0.007767627481371164,0.011500021442770958,-0.025554191321134567
1783693586890894800,0.218894775390625,-0.008786553516983986,0.012155160307884216,-0.014215784147381783
1783693586900857900,0.22885791015625,-0.00920520257204771,0.00334542291238904,-0.004448374733328819
1783693586910820000,0.238820068359375,0.0005033517954871058,-0.011724339798092842,0.0016116481274366379
1783693586920782800,0.248782958984375,0.004801756702363491,-0.013406962156295776,0.010904351249337196
1783693586930744800,0.258744873046875,0.007408725097775459,-0.010856719687581062,0.024690203368663788
1783693586940707800,0.268707763671875,0.0029196275863796473,-0.009778687730431557,0.033229321241378784
1783693586950670000,0.278670166015625,-0.002293776487931609,-0.006698209326714277,0.03977244347333908
1783693586960632800,0.2886328125,-0.005440169014036655,-0.000001137610524892807,0.04192117229104042
1783693586970595800,0.298595947265625,-0.0037543885409832,0.0006524021737277508,0.043092429637908936
1783693586980557800,0.308557861328125,0.0007161112735047936,-0.00007356621790677309,0.04445180669426918
1783693586990520800,0.318520751953125,0.0010138526558876038,-0.0021806592121720314,0.04028768837451935
1783693587000483000,0.328483154296875,-0.0014648970682173967,-0.0003513662377372384,0.03583266958594322
1783693587010445800,0.33844580078125,-0.005570958834141493,0.0036335214972496033,0.03132793307304382
1783693587020408800,0.348408935546875,-0.0009422391303814948,0.008413129486143589,0.022504696622490883
1783693587030371000,0.35837109375,0.000012237796909175813,0.011491477489471436,0.015189526602625847
1783693587040334000,0.368333984375,0.0036751662846654654,0.012391062453389168,0.0013246530434116721
1783693587050295800,0.3782958984375,0.003079417161643505,0.011342043057084084,-0.016510803252458572
1783693587060258800,0.3882587890625,0.006572267040610313,0.006164376623928547,-0.03029291145503521
1783693587070221800,0.398221923828125,0.010177654214203358,0.006344938650727272,-0.040264055132865906
1783693587080184000,0.40818408203125,0.014177930541336536,0.007461064960807562,-0.0431874543428421
1783693587090147000,0.41814697265625,0.015747064724564552,0.008450429886579514,-0.04157571122050285
1783693587100108800,0.42810888671875,0.01328081451356411,0.007027499843388796,-0.036978717893362045
1783693587110071800,0.43807177734375,0.016395116224884987,0.007184360176324844,-0.03426709026098251
1783693587120034000,0.448033935546875,0.017314795404672623,0.0107654994353652,-0.028973674401640892
1783693587129997000,0.4579970703125,0.021007001399993896,0.007560917641967535,-0.018950069323182106
1783693587139959800,0.467959716796875,0.02356978878378868,0.005043188109993935,-0.006770384963601828
1783693587149921800,0.477921875,0.02464064583182335,0.006331359036266804,0.00018845486920326948
1783693587159885000,0.487885009765625,0.025696679949760437,0.0015307310968637466,0.0021883402951061726
1783693587169847000,0.497846923828125,0.021847346797585487,-0.0016794431721791625,0.003939368762075901
1783693587179809800,0.507809814453125,0.019598275423049927,-0.00303550623357296,0.010188141837716103
1783693587189772800,0.517772705078125,0.012488966807723045,0.0039001640398055315,0.01961679570376873
1783693587199735000,0.527735107421875,0.013133465312421322,0.005368642508983612,0.018140064552426338
1783693587209698000,0.537697998046875,0.009769893251359463,0.007733529899269342,0.01899813488125801
1783693587219659800,0.54765966796875,0.005047372542321682,0.007681294344365597,0.020557019859552383
1783693587229622800,0.557622802734375,0.002477954840287566,0.005072728730738163,0.01987658068537712
1783693587239585800,0.567585693359375,0.0024474007077515125,-0.002532977145165205,0.013362264260649681
1783693587249548000,0.577548095703125,0.0022497940808534622,-0.004125014878809452,0.01208953931927681
1783693587259511000,0.587510986328125,0.004344623535871506,-0.006317607127130032,0.017251286655664444
1783693587269472800,0.59747265625,0.010017689317464828,-0.010720877908170223,0.017298957332968712
1783693587279435800,0.607435791015625,0.012045239098370075,-0.006462454795837402,0.009849860332906246
1783693587289398000,0.61739794921875,0.00954959075897932,-0.006069905124604702,0.003925126511603594
1783693587299361000,0.627361083984375,0.004163112957030535,-0.0036413869820535183,-0.0037172785960137844
1783693587309324000,0.637323974609375,-0.0017445773119106889,-0.0024887709878385067,-0.012509171850979328
1783693587319285800,0.64728564453125,-0.006090485956519842,-0.004900265950709581,-0.02539689838886261
1783693587329249000,0.6572490234375,-0.005961589049547911,-0.009490756317973137,-0.02750452607870102
1783693587339211000,0.6672109375,-0.0030625490471720695,-0.012627668678760529,-0.027189601212739944
1783693587349174000,0.677174072265625,0.0007015627925284207,-0.014126229099929333,-0.015739871188998222
1783693587359136800,0.68713671875,0.002346597146242857,-0.016683664172887802,-0.005248615052551031
1783693587369099000,0.69709912109375,0.00014682632172480226,-0.012250564992427826,0.007611789740622044
1783693587379062000,0.70706201171875,0.001818082295358181,-0.009648689068853855,0.01753358170390129
1783693587389024000,0.71702392578125,0.005773409269750118,-0.0028802650049328804,0.022540325298905373
1783693587398986800,0.72698681640625,0.011191993951797485,0.0004899747436866164,0.020771818235516548
1783693587408949800,0.73694970703125,0.015240265056490898,-0.0022988873533904552,0.011788178235292435
1783693587418911200,0.7469111328125,0.0182475782930851,-0.006445945706218481,0.004862401634454727
1783693587428874000,0.7568740234375,0.021908625960350037,-0.003272523172199726,-0.001731319003738463
1783693587438836200,0.766836181640625,0.02200096659362316,0.0023709654342383146,-0.00441049924120307
1783693587448799200,0.77679931640625,0.016789158806204796,0.002148591447621584,-0.007605227176100016
1783693587458762200,0.78676220703125,0.015366381965577602,0.004310802556574345,-0.011999009177088737
1783693587468724000,0.796723876953125,0.01535466406494379,0.005003490950912237,-0.015011044219136238
1783693587478687000,0.80668701171875,0.01582302525639534,0.005665566306561232,-0.025559943169355392
1783693587488649200,0.816649169921875,0.01719774678349495,0.009094386361539364,-0.03435263782739639
1783693587498612200,0.8266123046875,0.01702507585287094,0.012762585654854774,-0.047888707369565964
1783693587508574200,0.83657421875,0.01582345739006996,0.013660869561135769,-0.058789823204278946
1783693587518537000,0.846536865234375,0.01602517068386078,0.012806577607989311,-0.07037696242332458
1783693587528500000,0.8565,0.012270646169781685,0.01678161323070526,-0.07814380526542664
1783693587538462200,0.866462158203125,0.010924969799816608,0.021651972085237503,-0.08422371745109558
1783693587548425200,0.87642529296875,0.00924850907176733,0.027914661914110184,-0.08572893589735031
1783693587558387000,0.886386962890625,0.006176859140396118,0.029521113261580467,-0.08717773109674454
1783693587568350000,0.896349853515625,0.005242888815701008,0.025595348328351974,-0.08365490287542343
1783693587578313200,0.906313232421875,0.00914756953716278,0.017367519438266754,-0.06868825852870941
1783693587588275200,0.916275146484375,0.015806538984179497,0.02336282841861248,-0.04546016827225685
1783693587598238200,0.92623828125,0.021126843988895416,0.023469310253858566,-0.023332299664616585
1783693587608200200,0.9362001953125,0.024929039180278778,0.01142196822911501,-0.0004213908687233925
1783693587618163200,0.9461630859375,0.023149767890572548,-0.0015441753203049302,0.009540437720716
1783693587628126200,0.956126220703125,0.022246424108743668,-0.004072846844792366,0.024089552462100983
1783693587638088200,0.966088134765625,0.021013595163822174,-0.00951203890144825,0.03670879825949669
1783693587648051000,0.976051025390625,0.019882019609212875,-0.01631801389157772,0.05018359422683716
1783693587658013200,0.98601318359375,0.02024407871067524,-0.018376125022768974,0.05778949335217476
1783693587667976200,0.99597607421875,0.026011154055595398,-0.01702137477695942,0.06507829576730728
1783693587677938200,1.005938232421875,0.024540355429053307,-0.012839621864259243,0.0758691057562828
1783693587687901000,1.01590087890625,0.022109154611825943,-0.0014689889503642917,0.0806790441274643
1783693587697864000,1.025864013671875,0.018875718116760254,0.005061267875134945,0.07677491754293442
1783693587707826200,1.035826171875,0.015393102541565895,0.0027975807897746563,0.058526139706373215
1783693587717789200,1.0457890625,0.01435810886323452,-0.0011265733046457171,0.03806176036596298
1783693587727751000,1.0557509765625,0.015050530433654785,0.0008673353586345911,0.01590346172451973
1783693587737714200,1.065714111328125,0.015576135367155075,0.004514004103839397,-0.010464071296155453
1783693587747677200,1.07567724609375,0.01596895046532154,0.007877044379711151,-0.03459577262401581
1783693587757639200,1.08563916015625,0.019949117675423622,0.007174252066761255,-0.053984612226486206
1783693587767602200,1.095602294921875,0.023206163197755814,0.007347890175879002,-0.05866352096199989
1783693587777564200,1.105564208984375,0.021670084446668625,0.007774509955197573,-0.05733533203601837
1783693587787527200,1.115527099609375,0.01814911887049675,0.012308541685342789,-0.05576673150062561
1783693587797490200,1.125490234375,0.008267843164503574,0.015011658892035484,-0.04612545296549797
1783693587807452200,1.1354521484375,0.001120185130275786,0.022065041586756706,-0.03368476405739784
1783693587817415200,1.145415283203125,-0.001775393495336175,0.025311941280961037,-0.022303620353341103
1783693587827377200,1.155377197265625,-0.00463855778798461,0.02629571221768856,-0.0084746228531003
1783693587837340200,1.165340087890625,-0.007715890649706125,0.021157458424568176,0.008530314080417156
1783693587847302100,1.17530224609375,-0.00815105065703392,0.017252467572689056,0.02321498468518257
1783693587857265200,1.18526513671875,-0.003766358830034733,0.014182070270180702,0.02938486449420452
1783693587867228000,1.195227783203125,-0.0009298260556533933,0.01203369814902544,0.027071110904216766
1783693587877190100,1.205190185546875,0.0019840956665575504,0.011953847482800484,0.02191184088587761
1783693587887153200,1.215153076171875,0.010166924446821213,0.010770338587462902,0.01210501603782177
1783693587897115100,1.225115234375,0.013703016564249992,0.007765980903059244,-0.0035572629421949387
1783693587907078100,1.235078125,0.0175427608191967,0.002654309617355466,-0.018285077065229416
1783693587917040000,1.2450400390625,0.0178619846701622,0.0007898443145677447,-0.027614247053861618
1783693587927003100,1.255003173828125,0.012488524429500103,0.010517040267586708,-0.023914851248264313
1783693587936966100,1.264966064453125,-0.0011196824489161372,0.02397986315190792,-0.014035862870514393
1783693587946928000,1.27492822265625,-0.014162513427436352,0.02926117740571499,-0.0037755025550723076
1783693587956891100,1.28489111328125,-0.02225356176495552,0.028550170361995697,0.002981262281537056
1783693587966853000,1.29485302734375,-0.027870435267686844,0.020181186497211456,0.0016235826769843698
1783693587976816000,1.304816162109375,-0.026855196803808212,0.009396389126777649,0.00011825596448034048
1783693587986779100,1.314779052734375,-0.023672986775636673,-0.0007665001321583986,-0.003551313653588295
1783693587996741000,1.3247412109375,-0.02195613645017147,-0.004042973276227713,0.00011334416922181845
1783693588006704000,1.3347041015625,-0.015731532126665115,-0.0021910113282501698,0.005041790194809437
1783693588016666000,1.344666015625,-0.010651343502104282,-0.0013872736599296331,0.010163531638681889
1783693588026629000,1.354629150390625,-0.005918107461184263,0.002974451519548893,0.01522700022906065
1783693588036592000,1.364592041015625,-0.006669190712273121,0.010685885325074196,0.01672925055027008
1783693588046554000,1.37455419921875,-0.009321433492004871,0.014463579282164574,0.007654794026166201
1783693588056517000,1.38451708984375,-0.01159681100398302,0.006788105238229036,-0.0011536298552528024
1783693588066479000,1.39447900390625,-0.011961930431425571,0.009555395692586899,-0.006065297871828079
1783693588076442400,1.4044423828125,-0.014127093367278576,0.012798582203686237,-0.00905575230717659
1783693588086404000,1.414404052734375,-0.013425351120531559,0.0020250300876796246,-0.015774106606841087
1783693588096367000,1.4243671875,-0.007277845870703459,-0.002149454317986965,-0.0182771235704422
1783693588106330000,1.434330078125,-0.0020782900974154472,0.00175181042868644,-0.0067424410954117775
1783693588116292400,1.444292236328125,0.0009804670698940754,0.007978023961186409,-0.0026168394833803177
1783693588126255000,1.454255126953125,-0.0013572557363659143,0.006583592854440212,-0.006199057679623365
1783693588136217000,1.464217041015625,-0.004516239278018475,0.007052313536405563,-0.008597983978688717
1783693588146180000,1.47418017578125,-0.006236907560378313,0.013423127122223377,-0.017446337267756462
1783693588156143000,1.48414306640625,-0.005325586535036564,0.007891197688877583,-0.03162499517202377
1783693588166105000,1.49410498046875,-0.004031823016703129,0.001672450453042984,-0.04908308386802673
1783693588176068000,1.504068115234375,-0.0003062683390453458,0.007982815615832806,-0.05111315846443176
1783693588186030000,1.514030029296875,0.002867953386157751,0.023838210850954056,-0.035124074667692184
1783693588195993000,1.5239931640625,-0.009367596358060837,0.025458719581365585,-0.030892983078956604
1783693588205955000,1.533955078125,-0.0028766735922545195,0.01603885181248188,-0.0341913066804409
1783693588215918000,1.54391796875,-0.002829906065016985,0.004860235843807459,-0.033282745629549026
1783693588225881000,1.553881103515625,-0.0008487803861498833,0.001293996931053698,-0.03498690202832222
1783693588235843000,1.563843017578125,-0.004664706997573376,-0.0032333675771951675,-0.02865860052406788
1783693588245806300,1.573806396484375,-0.008850662969052792,-0.0035132658667862415,-0.01626344956457615
1783693588255768000,1.58376806640625,-0.013597467914223671,0.0015243812231346965,0.00008195859845727682
1783693588265731000,1.59373095703125,-0.016323480755090714,0.0052171205170452595,0.014104300178587437
1783693588275693000,1.603693115234375,-0.01667550392448902,0.008296792395412922,0.03164580091834068
1783693588285656300,1.61365625,-0.014724738895893097,0.016041530296206474,0.04589557647705078
1783693588295619000,1.623619140625,-0.00845407322049141,0.00985499657690525,0.049671150743961334
1783693588305581000,1.6335810546875,-0.002026533940806985,-0.004256028216332197,0.04610731080174446
1783693588315544000,1.6435439453125,0.002122247824445367,-0.012279815971851349,0.04220419004559517
1783693588325506300,1.65350634765625,0.005061844829469919,-0.011524010449647903,0.03618411347270012
1783693588335469300,1.66346923828125,0.008186240680515766,-0.012820727191865444,0.03366904333233833
1783693588345432000,1.67343212890625,0.011745555326342583,-0.01042148470878601,0.026880914345383644
1783693588355394000,1.68339404296875,0.016370199620723724,-0.004387065302580595,0.02684536576271057
1783693588365357000,1.693357177734375,0.019070912152528763,0.002342476509511471,0.032229743897914886
1783693588375319300,1.7033193359375,0.014833919703960419,0.004816592205315828,0.030529869720339775
1783693588385282000,1.713281982421875,0.010419463738799095,0.0005800355575047433,0.025403285399079323
1783693588395244000,1.723244140625,0.004384253174066544,-0.001965420553460717,0.013508600182831287
1783693588405207000,1.73320703125,0.0014640971785411239,-0.010358106344938278,0.001895620604045689
1783693588415170300,1.74317041015625,0.0008452695328742266,-0.017645327374339104,-0.00507668312638998
1783693588425132500,1.753132568359375,-0.0009244010434485972,-0.012444707565009594,-0.005462308879941702
1783693588435095600,1.763095458984375,-0.0030314030591398478,-0.0040115551091730595,-0.0025255230721086264
1783693588445057300,1.773057373046875,-0.0061813900247216225,0.003103346098214388,0.004360346123576164
1783693588455020500,1.7830205078125,-0.01077529788017273,0.011919467709958553,0.01064706314355135
1783693588464982500,1.792982421875,-0.01176625955849886,0.0194423645734787,0.01092323288321495
1783693588474945500,1.802945556640625,-0.013345254585146904,0.020196881145238876,0.009776121005415916
1783693588484908500,1.812908447265625,-0.013709042221307755,0.01932149939239025,0.008070366457104683
1783693588494870500,1.82287060546875,-0.013379602693021297,0.021542266011238098,0.0021182899363338947
1783693588504833500,1.83283349609375,-0.01047995314002037,0.014962395653128624,-0.008789485320448875
1783693588514795500,1.84279541015625,-0.0045402334071695805,0.0009248896385543048,-0.021800316870212555
1783693588524758500,1.852758544921875,0.0025951743591576815,-0.011273986659944057,-0.02700200490653515
1783693588534721500,1.862721435546875,0.009550785645842552,-0.009216675534844398,-0.02573414146900177
1783693588544683500,1.87268359375,0.01206907071173191,-0.004977721720933914,-0.015443156473338604
1783693588554646500,1.882646484375,0.010443197563290596,-0.00278621818870306,-0.0017244043992832303
1783693588564608500,1.8926083984375,0.007246073335409164,-0.002027750015258789,0.015665505081415176
1783693588574571500,1.902571533203125,0.003703315509483218,-0.0042051575146615505,0.031753987073898315
1783693588584533500,1.912533447265625,-0.0018043678719550371,-0.008349569514393806,0.04369320347905159
1783693588594496500,1.92249658203125,-0.00482699740678072,-0.012709958478808403,0.05292004346847534
1783693588604459500,1.93245947265625,-0.004901032894849777,-0.013269754126667976,0.0637577697634697
1783693588614421500,1.94242138671875,-0.001524814055301249,-0.014832209795713425,0.07398280501365662
1783693588624384500,1.952384521484375,-0.001596453133970499,-0.012116052210330963,0.07766355574131012
1783693588634346500,1.962346435546875,-0.0017636085394769907,-0.005682667717337608,0.0775451734662056
1783693588644309500,1.9723095703125,-0.005062999203801155,-0.00273534725420177,0.06857670843601227
1783693588654271500,1.982271484375,-0.007774928584694862,-0.006948183756321669,0.057843297719955444
1783693588664234500,1.992234375,-0.007348023820668459,-0.010447576642036438,0.04476025328040123
1783693588674197500,2.002197509765625,-0.008339110761880875,-0.01656705141067505,0.032517701387405396
1783693588684159500,2.012159423828125,-0.004844243638217449,-0.017023516818881035,0.023181989789009094
1783693588694122500,2.02212255859375,-0.00570311862975359,-0.013140852563083172,0.01656048558652401
1783693588704084500,2.03208447265625,-0.0065574608743190765,-0.01325004268437624,0.004896904341876507
1783693588714047500,2.042047607421875,-0.008643997833132744,-0.0017331561539322138,-0.005005301907658577
1783693588724010500,2.052010498046875,-0.01721831038594246,0.011178914457559586,-0.011899960227310658
1783693588733972500,2.061972412109375,-0.02355022169649601,0.011527758091688156,-0.021447045728564262
1783693588743935500,2.071935546875,-0.027003277093172073,0.0025742105208337307,-0.02840828150510788
1783693588753897500,2.0818974609375,-0.023341793566942215,-0.0067199948243796825,-0.02906610257923603
1783693588763860500,2.091860595703125,-0.018887922167778015,-0.0066888355650007725,-0.02099672518670559
1783693588773822500,2.101822509765625,-0.014152263291180134,-0.007204932626336813,-0.006403686944395304
1783693588783785500,2.111785400390625,-0.01168830692768097,-0.0030144485644996166,0.010289805941283703
1783693588793748700,2.121748779296875,-0.0113836033269763,0.00035182118881493807,0.027087662369012833
1783693588803710500,2.13171044921875,-0.012569508515298367,0.003106328658759594,0.03834005072712898
1783693588813673500,2.141673583984375,-0.013529928401112556,0.011812707409262657,0.03704013302922249
1783693588823635500,2.151635498046875,-0.0119605278596282,0.007136995438486338,0.03740125894546509
1783693588833598700,2.1615986328125,-0.00482734851539135,-0.005718122702091932,0.029318809509277344
1783693588843560400,2.171560546875,0.005435409024357796,-0.01811753399670124,0.021387383341789246
1783693588853523500,2.1815234375,0.012479879893362522,-0.021002771332859993,0.020441243425011635
1783693588863486500,2.191486572265625,0.018470393493771553,-0.018477560952305794,0.021046580746769905
1783693588873448700,2.20144873046875,0.018509235233068466,-0.018454864621162415,0.017560606822371483
1783693588883411500,2.211411376953125,0.0162412878125906,-0.0134944599121809,0.012889422476291656
1783693588893373400,2.22137353515625,0.012721902690827847,-0.009686737321317196,0.01519955974072218
1783693588903336400,2.23133642578125,0.009311990812420845,-0.012268672697246075,0.014648552052676678
1783693588913298700,2.241298583984375,0.012605048716068268,-0.01502370834350586,0.017795393243432045
1783693588923261400,2.251261474609375,0.01144311111420393,-0.009058759547770023,0.025308437645435333
1783693588933224400,2.261224365234375,0.01126890815794468,-0.00568211916834116,0.03040725365281105
1783693588943186400,2.2711865234375,0.010103242471814156,-0.009042229503393173,0.03432955965399742
1783693588953149400,2.2811494140625,0.00978800281882286,-0.0072345007210969925,0.03258505091071129
1783693588963111400,2.291111328125,0.005739198066294193,-0.002315642312169075,0.02699374221265316
1783693588973074400,2.301074462890625,0.0038021900691092014,-0.004107935819774866,0.014697011560201645
1783693588983037400,2.311037353515625,0.0046362923458218575,-0.013507029972970486,0.0032270431984215975
1783693588992999700,2.320999755859375,0.007402088958770037,-0.009129328653216362,-0.002652575261890888
1783693589002962700,2.330962646484375,0.007358679547905922,0.007155901752412319,-0.000010186806321144104
1783693589012924400,2.34092431640625,0.006295974366366863,0.008451265282928944,-0.0033136801794171333
1783693589022887400,2.350887451171875,0.0032826075330376625,0.008814253844320774,-0.010141758248209953
1783693589032849700,2.360849609375,-0.004545358940958977,0.016365401446819305,-0.011665266007184982
1783693589042812700,2.370812744140625,-0.009494044817984104,0.01645088940858841,-0.018554329872131348
1783693589052775700,2.380775634765625,-0.008365734480321407,0.004562522284686565,-0.029120728373527527
1783693589062737400,2.3907373046875,-0.0021038437262177467,-0.009090173058211803,-0.03745722025632858
1783693589072700400,2.400700439453125,0.005902787670493126,-0.010150114074349403,-0.02993607707321644
1783693589082662700,2.41066259765625,0.013904521241784096,-0.002578480402007699,-0.013138456270098686
1783693589092625700,2.420625732421875,0.01769992895424366,-0.002109251916408539,0.0015202921349555254
1783693589102587400,2.43058740234375,0.020152701064944267,0.0001413853606209159,0.010104991495609283
1783693589112550400,2.44055029296875,0.023983370512723923,0.005543903913348913,0.017185192555189133
1783693589122513400,2.450513427734375,0.022610245272517204,0.0070195612497627735,0.02493259496986866
1783693589132475600,2.4604755859375,0.019488291814923286,0.003384895157068968,0.024220503866672516
1783693589142438400,2.4704384765625,0.0183029193431139,0.002567837480455637,0.019263561815023422
1783693589152400400,2.480400390625,0.01694817654788494,0.0020620618015527725,0.010428882203996181
1783693589162363600,2.49036376953125,0.013989937491714954,0.001013042638078332,0.001658027176745236
1783693589172325600,2.50032568359375,0.01180200558155775,-0.004125198349356651,-0.006186582613736391
1783693589182288400,2.510288330078125,0.007131087128072977,-0.00686958571895957,-0.012650340795516968
1783693589192251400,2.52025146484375,0.004474247340112925,-0.001415980514138937,-0.009534480981528759
1783693589202213600,2.530213623046875,-0.0008731135167181492,0.006654462777078152,0.00006728037260472775
1783693589212176600,2.5401767578125,-0.005690043792128563,0.009196434170007706,0.011590206995606422
1783693589222138400,2.550138427734375,-0.011635283939540386,0.010463299229741096,0.017341304570436478
1783693589232101400,2.560101318359375,-0.014160285703837872,0.012436430901288986,0.019673116505146027
1783693589242063600,2.570063720703125,-0.015138997696340084,0.012178637087345123,0.0147926090285182
1783693589252026600,2.580026611328125,-0.014346453361213207,0.0042687710374593735,0.0017047803848981857
1783693589261989600,2.58998974609375,-0.007742613088339567,-0.005796912591904402,-0.010761477053165436
1783693589271951400,2.599951416015625,0.0044381325133144855,-0.010469398461282253,-0.011429211124777794
1783693589281914400,2.609914306640625,0.012021483853459358,-0.0059646619483828545,-0.0033425223082304
1783693589291876600,2.619876708984375,0.01450534351170063,-0.005430447869002819,0.008229939267039299
1783693589301839600,2.629839599609375,0.014280039817094803,0.00007750175427645445,0.018190426751971245
1783693589311802400,2.63980224609375,0.00799194723367691,0.00807923823595047,0.026179004460573196
1783693589321764400,2.649764404296875,-0.0003259046352468431,0.013931800611317158,0.032010793685913086
1783693589331727600,2.6597275390625,-0.008067323826253414,0.011352496221661568,0.028611723333597183
1783693589341689600,2.669689697265625,-0.011196804232895374,0.0101652592420578,0.026022598147392273
1783693589351652600,2.679652587890625,-0.010090476833283901,0.010702199302613735,0.023991629481315613
1783693589361614600,2.689614501953125,-0.007006003521382809,0.003943362273275852,0.02193939872086048
1783693589371577600,2.69957763671875,-0.002947487635537982,-0.004756417591124773,0.011900002136826515
1783693589381540600,2.70954052734375,0.0017505948198959231,-0.0070826890878379345,0.004147540312260389
1783693589391502600,2.719502685546875,0.006618703715503216,-0.0056198057718575,-0.0015009258640930057
1783693589401465300,2.72946533203125,0.009929278865456581,-0.0028810109943151474,-0.007897838950157166
1783693589411427600,2.739427490234375,0.016045542433857918,0.00018960714805871248,-0.01661963202059269
1783693589421390600,2.749390625,0.017955826595425606,-0.00013955950271338224,-0.024973968043923378
1783693589431352600,2.7593525390625,0.01934000849723816,0.002062054816633463,-0.02868623659014702
1783693589441315600,2.769315673828125,0.018463028594851494,0.006600880064070225,-0.023905064910650253
1783693589451278600,2.779278564453125,0.01608562096953392,0.010051365941762924,-0.01937868259847164
1783693589461240600,2.789240478515625,0.013747630640864372,0.0012799786636605859,-0.01787213236093521
1783693589471203600,2.79920361328125,0.014956936240196228,-0.006338560022413731,-0.013582811690866947
1783693589481165600,2.80916552734375,0.012824809178709984,-0.004886604845523834,-0.006870580837130547
1783693589491128600,2.819128662109375,0.009354744106531143,-0.003160628955811262,0.002205542754381895
1783693589501090600,2.829090576171875,0.006244970951229334,-0.00027083291206508875,0.014144493266940117
1783693589511053600,2.839053466796875,-0.00046863764873705804,0.0022988582495599985,0.0190007071942091
1783693589521016600,2.8490166015625,-0.00952285248786211,0.00918552652001381,0.02647753246128559
1783693589530978600,2.858978515625,-0.01112379226833582,0.0037620426155626774,0.026290643960237503
1783693589540941800,2.86894189453125,-0.015717480331659317,-0.003912122454494238,0.020786423236131668
1783693589550903600,2.878903564453125,-0.01988508738577366,-0.0043550822883844376,0.013591750524938107
1783693589560866600,2.888866455078125,-0.021846773102879524,-0.0033356237690895796,0.008534940890967846
1783693589570828800,2.898828857421875,-0.02004300057888031,-0.004258131608366966,0.00045543216401711106
1783693589580791800,2.908791748046875,-0.017836838960647583,-0.004587031900882721,-0.008132463321089745
1783693589590754600,2.918754638671875,-0.012009192258119583,-0.006161749828606844,-0.009476196020841599
1783693589600716500,2.928716552734375,-0.0073630413971841335,-0.0028245425783097744,-0.013463746756315231
1783693589610679600,2.938679443359375,-0.0033161405008286238,-0.0019369454821571708,-0.015148167498409748
1783693589620641800,2.948641845703125,-0.00016215893265325576,-0.0029715835116803646,-0.018943436443805695
1783693589630604800,2.958604736328125,-0.0015387998428195715,-0.0017850970616564155,-0.011744262650609016
1783693589640566500,2.96856640625,-0.0027193790301680565,-0.0038660909049212933,-0.004417107906192541
1783693589650529500,2.978529541015625,-0.0067394208163022995,-0.006020854692906141,0.005446175578981638
1783693589660492500,2.988492431640625,-0.009350117295980453,-0.0032911142334342003,0.020077848806977272
1783693589670454800,2.998454833984375,-0.007907528430223465,-0.002849289681762457,0.029679017141461372
1783693589680417500,3.00841748046875,-0.008277975022792816,-0.006839503534138203,0.03021005168557167
1783693589690379500,3.018379638671875,-0.0065355971455574036,-0.009844901040196419,0.025104684755206108
1783693589700342500,3.028342529296875,-0.006951050367206335,-0.009636908769607544,0.01621558517217636
1783693589710304800,3.0383046875,-0.0082499198615551,-0.0077732219360768795,0.011099060997366905
1783693589720267500,3.048267578125,-0.007429666351526976,-0.005357201676815748,0.007876901887357235
1783693589730230500,3.05823046875,-0.007332565262913704,-0.0032501062378287315,0.00712897814810276
1783693589740192800,3.06819287109375,-0.006141599267721176,-0.004428022541105747,0.002958201337605715
1783693589750155800,3.07815576171875,-0.003956521395593882,-0.005287684500217438,-0.002910133684054017
1783693589760117500,3.088117431640625,-0.004616985563188791,-0.0049776919186115265,-0.0032906995620578527
1783693589770080500,3.09808056640625,-0.00485279131680727,0.00035740912426263094,-0.008176100440323353
1783693589780042800,3.108042724609375,-0.008101316168904305,0.005083188414573669,-0.008304464630782604
1783693589790005800,3.118005859375,-0.011284636333584785,0.005106151103973389,-0.009458043612539768
1783693589799968800,3.12796875,-0.011972530744969845,0.006886474322527647,-0.008063079789280891
1783693589809930500,3.137930419921875,-0.015414226800203323,0.01073363795876503,-0.0042608994990587234
1783693589819893500,3.1478935546875,-0.01786540076136589,0.007715477608144283,-0.0061546736396849155
1783693589829855700,3.157855712890625,-0.02281881310045719,0.009445163421332836,-0.0009126336080953479
1783693589839818800,3.16781884765625,-0.02316848747432232,0.01254295278340578,0.005531949922442436
1783693589849780500,3.177780517578125,-0.021351099014282227,0.010245170444250107,0.006470773369073868
1783693589859743500,3.187743408203125,-0.015496673062443733,0.008587885648012161,0.009260701015591621
1783693589869706800,3.197706787109375,-0.004865496419370174,0.003915100824087858,0.011755658313632011
1783693589879668700,3.207668701171875,0.0030811100732535124,-0.0023462572135031223,0.017300359904766083
1783693589889631500,3.217631591796875,0.005520511884242296,-0.004928143694996834,0.020663250237703323
1783693589899593500,3.227593505859375,0.005788159556686878,0.0020211089868098497,0.026430325582623482
1783693589909556700,3.237556640625,0.00042992530507035553,0.011136303655803204,0.03342410922050476
1783693589919518700,3.247518798828125,-0.004111829679459333,0.015574994497001171,0.03783297538757324
1783693589929481700,3.257481689453125,-0.011048981919884682,0.01206868514418602,0.034364573657512665
1783693589939444500,3.267444580078125,-0.011990142986178398,0.008794328197836876,0.025111684575676918
1783693589949406700,3.27740673828125,-0.010603297501802444,0.006342335604131222,0.016759125515818596
1783693589959369700,3.28736962890625,-0.007002437021583319,0.00709973881021142,0.008654328063130379
1783693589969331700,3.297331787109375,-0.003379913978278637,0.009209747426211834,-0.0021555903367698193
1783693589979294500,3.30729443359375,-0.0008664224296808243,0.010590862482786179,-0.014221041463315487
1783693589989256700,3.317256591796875,0.0032785004004836082,0.011040966957807541,-0.0268010962754488
1783693589999219700,3.3272197265625,0.00804902147501707,0.009458516724407673,-0.043019212782382965
1783693590009182700,3.3371826171875,0.015718704089522362,0.0021225661039352417,-0.06049615144729614
1783693590019144400,3.34714453125,0.021402955055236816,-0.009015838615596294,-0.06215956062078476
1783693590029107500,3.357107421875,0.022165626287460327,0.002031481359153986,-0.05030827596783638
1783693590039069700,3.367069580078125,0.016205739229917526,0.015575519762933254,-0.029757194221019745
1783693590049032700,3.37703271484375,0.012051669880747795,0.02005520835518837,-0.013412880711257458
1783693590058994400,3.386994384765625,0.0033913354855030775,0.016306541860103607,-0.002701913006603718
1783693590068957400,3.39695751953125,-0.0015357180964201689,0.0162259042263031,0.0037519370671361685
1783693590078920700,3.406920654296875,-0.00622660992667079,0.011048720218241215,0.006673424504697323
1783693590088882700,3.416882568359375,-0.00702587841078639,0.00016561325173825026,0.005045844241976738
1783693590098845700,3.426845703125,0.0009212603908963501,-0.013172296807169914,0.005252504721283913
1783693590108807700,3.4368076171875,0.01314848754554987,-0.016747526824474335,0.013509102165699005
1783693590118770700,3.446770751953125,0.0173895712941885,-0.015026592649519444,0.023180104792118073
1783693590128732700,3.456732666015625,0.019716478884220123,-0.015351767651736736,0.028293482959270477
1783693590138695700,3.46669580078125,0.018714332953095436,-0.008461637422442436,0.03527576103806496
1783693590148658400,3.476658447265625,0.014418735168874264,0.0011737069580703974,0.03613971546292305
1783693590158620700,3.48662060546875,0.009869256988167763,0.005611065775156021,0.0311508160084486
1783693590168583700,3.496583740234375,0.006062522996217012,0.002955084200948477,0.01992986351251602
1783693590178545700,3.506545654296875,0.004681674297899008,-0.004266077186912298,0.0030829734168946743
1783693590188508400,3.51650830078125,0.008677534759044647,-0.006974293850362301,-0.007606005296111107
1783693590198470700,3.526470703125,0.011093022301793098,-0.005367342382669449,-0.020607024431228638
1783693590208433700,3.53643359375,0.012129470705986023,-0.0038971768226474524,-0.03283625468611717
1783693590218396700,3.546396728515625,0.014274646528065205,-0.0027797145303338766,-0.0446321927011013
1783693590228358700,3.556358642578125,0.01158475037664175,-0.005272217094898224,-0.05232313647866249
1783693590238321700,3.56632177734375,0.011902199126780033,-0.0020788207184523344,-0.051811542361974716
1783693590248283600,3.57628369140625,0.007641441188752651,0.0011933869682252407,-0.04727717116475105
1783693590258246700,3.58624658203125,0.006276571191847324,-0.007044302299618721,-0.04096201807260513
1783693590268208600,3.596208740234375,0.0009908274514600635,-0.006209989544004202,-0.026187127456068993
1783693590278171600,3.606171630859375,-0.001992179313674569,-0.00003438547719269991,-0.011285675689578056
1783693590288134700,3.616134765625,-0.005979192443192005,-0.0023025469854474068,-0.00319748860783875
1783693590298096600,3.6260966796875,-0.002324802801012993,-0.00803393591195345,0.0028063415084034204
1783693590308059600,3.6360595703125,0.005318353418260813,-0.008830230683088303,0.008710205554962158
1783693590318021600,3.646021728515625,0.010840150527656078,-0.00529062282294035,0.01247964333742857
1783693590327984600,3.655984619140625,0.01546510774642229,-0.0071924296207726,0.009720806032419205
1783693590337946600,3.665946533203125,0.018218817189335823,-0.016575545072555542,0.004065583925694227
1783693590347909600,3.67590966796875,0.016986381262540817,-0.017725428566336632,-0.004354327917098999
1783693590357872600,3.68587255859375,0.015241743996739388,-0.014444947242736816,-0.011001578532159328
1783693590367834600,3.695834716796875,0.011492001824080944,-0.014499819837510586,-0.02352534793317318
1783693590377797600,3.705797607421875,0.010513556189835072,-0.01823357120156288,-0.03129485249519348
1783693590387759600,3.715759521484375,0.00790530163794756,-0.010797234252095222,-0.027869170531630516
1783693590397722600,3.72572265625,0.005232553463429213,-0.0038122949190437794,-0.018775008618831635
1783693590407684600,3.7356845703125,0.0012397801037877798,-0.0038589024916291237,-0.009045839309692383
1783693590417647400,3.7456474609375,-0.0015621315687894821,-0.0026207990013062954,-0.0035975445061922073
1783693590427609000,3.755609130859375,-0.0020293542183935642,0.0005667405785061419,-0.004123361315578222
1783693590437572400,3.765572265625,-0.003209400689229369,0.000715877627953887,-0.007122879847884178
1783693590447535400,3.775535400390625,-0.00228648679330945,-0.0006167476531118155,-0.01085707638412714
1783693590457497300,3.785497314453125,0.0006696218624711037,-0.004912958946079016,-0.016893930733203888
1783693590467460400,3.79546044921875,0.0018867680337280035,-0.006880474742501974,-0.0228591188788414
1783693590477422300,3.80542236328125,0.0060223909094929695,0.005615609232336283,-0.015779903158545494
1783693590487385300,3.81538525390625,0.008213234134018421,0.014030633494257927,-0.0077574728056788445
1783693590497347300,3.825347412109375,0.011748580262064934,-0.0018862810684368014,-0.0089945113286376
1783693590507310300,3.835310302734375,0.015239544212818146,-0.008020886220037937,-0.007662278600037098
1783693590517273000,3.845273193359375,0.01493594329804182,0.006203855387866497,0.0021312301978468895
1783693590527235300,3.8552353515625,0.011068004183471203,0.003984678070992231,0.0048167286440730095
1783693590537198300,3.8651982421875,0.007510553579777479,0.000886889232788235,0.008877250365912914
1783693590547160300,3.875160400390625,0.007685765158385038,0.005613444373011589,0.014125830493867397
1783693590557123000,3.885123046875,0.00590704008936882,0.010640427470207214,0.01977626048028469
1783693590567086300,3.89508642578125,0.005002177786082029,0.01157996617257595,0.021499721333384514
1783693590577048300,3.90504833984375,0.006094073876738548,0.0069047859869897366,0.019357740879058838
1783693590587011300,3.91501123046875,0.005733181722462177,0.0015260179061442614,0.011224908754229546
1783693590596973000,3.92497314453125,0.004650340415537357,0.00036274921149015427,0.0026135777588933706
1783693590606936300,3.934936279296875,0.004100443329662085,-0.006436041556298733,-0.0038346746005117893
1783693590616898300,3.944898193359375,0.00396968238055706,-0.010047820396721363,-0.004895677790045738
1783693590626861300,3.954861328125,0.0041726152412593365,-0.007589190267026424,-0.0027084238827228546
1783693590636823300,3.9648232421875,0.0003387287142686546,0.004774801433086395,0.006716236937791109
1783693590646786300,3.974786376953125,-0.004434376023709774,0.013232443481683731,0.010357972234487534
1783693590656749300,3.984749267578125,-0.009027795866131783,0.01587136834859848,0.009841851890087128
1783693590666711300,3.994711181640625,-0.010698139667510986,0.019612353295087814,0.007567687425762415
1783693590676674300,4.00467431640625,-0.01544309314340353,0.01946374960243702,0.000025881920009851456
1783693590686636300,4.01463623046875,-0.013732741586863995,0.012268702499568462,-0.007113748230040073
1783693590696599300,4.024599365234375,-0.012559618800878525,0.002397695789113641,-0.018233777955174446
1783693590706561300,4.034561279296875,-0.011402047239243984,-0.0001437565078958869,-0.02003151923418045
1783693590716524300,4.044524169921875,-0.009779117070138454,0.0043921396136283875,-0.01617393270134926
1783693590726487300,4.0544873046875,-0.009929400868713856,0.0064235711470246315,-0.011197575367987156
1783693590736449300,4.06444921875,-0.011993084102869034,0.010214048437774181,-0.00751974992454052
1783693590746412300,4.074412353515625,-0.016199838370084763,0.01541704311966896,0.0010937326587736607
1783693590756374300,4.084374267578125,-0.01672954112291336,0.015203190967440605,0.005629895254969597
1783693590766337300,4.094337158203125,-0.01820567063987255,0.009050814434885979,0.008977966383099556
1783693590776299300,4.10429931640625,-0.017369704321026802,0.009639105759561062,0.010463211685419083
1783693590786262300,4.11426220703125,-0.015616802498698235,0.005978550296276808,0.006713840179145336
1783693590796225300,4.124225341796875,-0.012260686606168747,0.0003507582005113363,0.00003276788629591465
1783693590806187300,4.134187255859375,-0.006511302199214697,-0.0031512551940977573,-0.0027001032140105963
1783693590816150300,4.144150390625,-0.00007603956328239292,-0.0025096996687352657,-0.0006846230244264007
1783693590826112300,4.1541123046875,0.0019295969977974892,0.0010863255010917783,0.0056039923802018166
1783693590836075300,4.1640751953125,0.0006608672556467354,0.0009848590707406402,0.011651764623820782
1783693590846037500,4.17403759765625,-0.0014978330582380295,0.0018032530788332224,0.014476096257567406
1783693590856000300,4.184000244140625,-0.007022560574114323,0.005440864711999893,0.014681692235171795
1783693590865963300,4.19396337890625,-0.012599311769008636,0.008066488429903984,0.014578508213162422
1783693590875925200,4.20392529296875,-0.018068112432956696,0.006341293454170227,0.011972338892519474
1783693590885888300,4.21388818359375,-0.01807473599910736,0.00402405858039856,0.009690346196293831
1783693590895850200,4.223850341796875,-0.01638549380004406,-0.000655115582048893,0.0048391325399279594
1783693590905813200,4.233813232421875,-0.01519916020333767,-0.000041787163354456425,0.00030126358615234494
1783693590915775200,4.243775146484375,-0.014193816110491753,0.0007928474806249142,-0.0063856677152216434
1783693590925738200,4.25373828125,-0.012683018110692501,-0.001659669098444283,-0.014725612476468086
1783693590935701200,4.263701171875,-0.008410242386162281,-0.005409399513155222,-0.023669306188821793
1783693590945663200,4.273663330078125,-0.007465744391083717,0.0005356068722903728,-0.031675223261117935
1783693590955626200,4.283626220703125,-0.006255071144551039,0.002726323204115033,-0.03458872437477112
1783693590965588200,4.293588134765625,-0.007260206621140242,0.002836307045072317,-0.03616110235452652
1783693590975551500,4.303551513671875,-0.006253531668335199,0.003202225547283888,-0.030579915270209312
1783693590985513200,4.31351318359375,-0.007245361804962158,0.0027188982348889112,-0.02598104625940323
1783693590995476200,4.323476318359375,-0.009064832702279091,0.0012834543595090508,-0.01859024167060852
1783693591005439200,4.333439208984375,-0.010815596207976341,-0.003006684361025691,-0.01497675757855177
1783693591015401500,4.3434013671875,-0.010466190055012703,-0.001840486191213131,-0.007228025700896978
1783693591025364500,4.353364501953125,-0.014427073299884796,-0.0018710780423134565,-0.00301547022536397
1783693591035326200,4.363326171875,-0.014985538087785244,-0.001774405362084508,0.0018898060079663992
1783693591045289200,4.373289306640625,-0.01359033677726984,0.0017659252043813467,0.008233578875660896
1783693591055251500,4.38325146484375,-0.01108536683022976,0.0056123286485672,0.014347664080560207
1783693591065214500,4.39321435546875,-0.009192632511258125,-0.0008559338748455048,0.011739877052605152
1783693591075176200,4.40317626953125,-0.004253268241882324,-0.006900777108967304,0.006759765557944775
1783693591085139200,4.41313916015625,-0.0024136819411069155,-0.013911249116063118,0.00508631207048893
1783693591095102200,4.423102294921875,-0.0002703698701225221,-0.015423659235239029,0.006667963229119778
1783693591105064400,4.433064453125,-0.002280086511746049,-0.01245507225394249,0.01277989987283945
1783693591115027200,4.443027099609375,-0.004760288633406162,-0.005957225803285837,0.018534725531935692
1783693591124989200,4.4529892578125,-0.006410043686628342,-0.004170708358287811,0.022543249651789665
1783693591134952200,4.4629521484375,-0.008764544501900673,-0.0039824228733778,0.027433613315224648
1783693591144914400,4.47291455078125,-0.009778780862689018,-0.005651956424117088,0.02970225177705288
1783693591154877200,4.482877197265625,-0.009872524067759514,-0.0019613478798419237,0.031170452013611794
1783693591164840200,4.492840087890625,-0.012351869605481625,0.003150541801005602,0.030098682269454002
1783693591174802200,4.50280224609375,-0.00820506177842617,0.0034386957995593548,0.025674106553196907
1783693591184765400,4.512765380859375,-0.0030302037484943867,0.0021406870801001787,0.017573075369000435
1783693591194727200,4.52272705078125,0.004010661505162716,-0.002660726197063923,0.009080254472792149
1783693591204690200,4.532690185546875,0.011036520823836327,-0.008875731378793716,-0.000263565918430686
1783693591214652400,4.54265234375,0.01630052551627159,-0.011347144842147827,-0.010504751466214657
1783693591224615400,4.552615478515625,0.020296944305300713,-0.010483240708708763,-0.011178666725754738
1783693591234578400,4.562578369140625,0.019815444946289062,0.000059415120631456375,-0.0027036897372454405
1783693591244540200,4.5725400390625,0.018790090456604958,0.004320438485592604,0.005904476623982191
1783693591254503200,4.582503173828125,0.016174068674445152,-0.0022783419117331505,0.007452572230249643
1783693591264465400,4.59246533203125,0.013054998591542244,-0.0013986768899485469,0.011180444620549679
1783693591274428400,4.602428466796875,0.00884587224572897,0.0015568991657346487,0.013180744834244251
1783693591284390100,4.61239013671875,0.006522517651319504,-0.005169990938156843,0.010474983602762222
1783693591294353200,4.622353271484375,0.008341456763446331,-0.008790291845798492,0.008233667351305485
1783693591304316200,4.632316162109375,0.010678277350962162,-0.010701374150812626,0.0065054334700107574
1783693591314278400,4.6422783203125,0.012884706258773804,-0.004463984631001949,0.012738562189042568
1783693591324241400,4.652241455078125,0.014670854434370995,-0.004238130524754524,0.020013980567455292
1783693591334203100,4.662203125,0.0124130267649889,-0.00538382213562727,0.02242121286690235
1783693591344166400,4.67216650390625,0.007455227430909872,-0.005165180657058954,0.020277585834264755
1783693591354128400,4.68212841796875,0.0023933574557304382,-0.0011118497932329774,0.012962947599589825
1783693591364091400,4.69209130859375,-0.0013821725733578205,0.003392069600522518,0.0018075683619827032
1783693591374054100,4.70205419921875,-0.004381158389151096,0.009632389061152935,-0.011327408254146576
1783693591384016400,4.712016357421875,-0.005449027754366398,0.015140609815716743,-0.022952590137720108
1783693591393979400,4.7219794921875,-0.003328086109831929,0.005873075220733881,-0.03698558360338211
1783693591403941400,4.73194140625,0.002975861309096217,-0.003801892977207899,-0.043529849499464035
1783693591413905000,4.74190478515625,0.013373108580708504,-0.007389703765511513,-0.03692521154880524
1783693591423867000,4.751866943359375,0.018306022509932518,-0.007475461810827255,-0.025241706520318985
1783693591433830000,4.761829833984375,0.017584307119250298,-0.005036006215959787,-0.011983692646026611
1783693591443792000,4.7717919921875,0.015615810640156269,0.00023274810519069433,0.000201534538064152
1783693591453755000,4.7817548828125,0.012320681475102901,-0.00006126496009528637,0.007881558500230312
1783693591463718000,4.7917177734375,0.009061404503881931,-0.00041354610584676266,0.016268974170088768
1783693591473680000,4.801679931640625,0.01035383716225624,-0.005221084225922823,0.024024099111557007
1783693591483643000,4.811642822265625,0.014220642857253551,-0.01020492147654295,0.031923726201057434
1783693591493604900,4.82160498046875,0.012877610512077808,-0.011090156622231007,0.04069884121417999
1783693591503568000,4.83156787109375,0.01473369263112545,-0.0050679827108979225,0.04740247130393982
1783693591513529900,4.84152978515625,0.014165373519062996,-0.005845092702656984,0.048993974924087524
1783693591523492900,4.851492919921875,0.011728731915354729,-0.011637210845947266,0.04176073521375656
1783693591533456000,4.861455810546875,0.009464245289564133,-0.012408729642629623,0.03247935324907303
1783693591543417900,4.87141796875,0.0074564674869179726,-0.007009406108409166,0.02001754194498062
1783693591553380900,4.881380859375,0.005520083010196686,-0.0051915328949689865,0.008786458522081375
1783693591563342800,4.8913427734375,0.0040253326296806335,-0.009642446413636208,-0.00503425532951951
1783693591573305900,4.901305908203125,0.0054096439853310585,-0.00740033108741045,-0.014088736847043037
1783693591583267800,4.911267822265625,0.004789286758750677,-0.0020255898125469685,-0.019604148343205452
1783693591593230800,4.92123095703125,0.0041756946593523026,0.0013036279706284404,-0.023400751873850822
1783693591603193900,4.93119384765625,0.00042311305878683925,-0.00011186744086444378,-0.024808369576931
1783693591613155800,4.94115576171875,-0.0016464294167235494,-0.005019540898501873,-0.026780972257256508
1783693591623118800,4.951118896484375,-0.0033524958416819572,-0.0057692136615514755,-0.016675932332873344
1783693591633080800,4.961080810546875,-0.005518178455531597,-0.0012663407251238823,-0.009465424343943596
1783693591643044000,4.971044189453125,-0.006121635437011719,-0.0006628041155636311,0.001400692155584693
1783693591653005800,4.981005859375,-0.00459617655724287,-0.0016969095449894667,0.005989584606140852
1783693591662968800,4.99096875,-0.0010216598166152835,-0.005371569190174341,0.010585484094917774
1783693591672931800,5.000931884765625,0.0019171384628862143,-0.008726353757083416,0.014561050571501255
1783693591682894000,5.01089404296875,0.003605408128350973,-0.01013651117682457,0.016032299026846886
1783693591692856800,5.02085693359375,0.005695722997188568,-0.009514663368463516,0.014753716997802258
1783693591702818800,5.03081884765625,0.008585693314671516,-0.011398835107684135,0.014087807387113571
1783693591712781800,5.04078173828125,0.007257575169205666,-0.010333837009966373,0.013057163916528225
1783693591722744000,5.050744140625,0.006453370675444603,-0.007829118520021439,0.013010596856474876
1783693591732706800,5.060706787109375,0.0026442515663802624,-0.00425542239099741,0.011719495989382267
1783693591742668800,5.070668701171875,-0.0018608439713716507,-0.0040016090497374535,0.005465208552777767
1783693591752631800,5.0806318359375,-0.003304277313873172,-0.00785866566002369,-0.00046431960072368383
1783693591762594800,5.0905947265625,-0.005392774473875761,-0.00910608284175396,-0.0023056890349835157
1783693591772556800,5.100556884765625,-0.012072514742612839,-0.010956181213259697,-0.0024817241355776787
1783693591782519800,5.110519775390625,-0.012769059278070927,-0.01198737695813179,-0.0029960665851831436
1783693591792481800,5.120481689453125,-0.01570998877286911,-0.011856084689497948,-0.0022064396180212498
1783693591802445000,5.130445068359375,-0.017568539828062057,-0.007886093109846115,0.0006234729662537575
1783693591812406800,5.14040673828125,-0.017062272876501083,-0.005498835816979408,0.0005742044886574149
1783693591822369800,5.150369873046875,-0.01882178708910942,-0.0007818636950105429,-0.0009602376958355308
1783693591832332800,5.160332763671875,-0.023658886551856995,0.0030283210799098015,-0.00479811942204833
1783693591842295000,5.170294921875,-0.02228730171918869,0.007562623824924231,-0.006778929382562637
1783693591852258000,5.180258056640625,-0.020611906424164772,0.01112406887114048,-0.009573384188115597
1783693591862219800,5.1902197265625,-0.01951158046722412,0.005310135893523693,-0.017519844695925713
1783693591872182800,5.200182861328125,-0.01969427429139614,0.0009406873723492026,-0.025830237194895744
1783693591882145000,5.21014501953125,-0.01921423338353634,0.008049176074564457,-0.030852248892188072
1783693591892108000,5.22010791015625,-0.01814231090247631,0.009212445467710495,-0.033500492572784424
1783693591902070800,5.23007080078125,-0.015284335240721703,0.009106163866817951,-0.03219163790345192
1783693591912032800,5.24003271484375,-0.015961844474077225,0.010821240022778511,-0.024281784892082214
1783693591921995800,5.249995849609375,-0.012174618430435658,0.012730241753160954,-0.01359493751078844
1783693591931958000,5.2599580078125,-0.008524755947291851,0.011642873287200928,-0.005587344989180565
1783693591941921000,5.269921142578125,-0.006780213210731745,0.014686561189591885,0.0006713343318551779
1783693591951882800,5.2798828125,-0.0012032873928546906,0.012660694308578968,0.002605854533612728
1783693591961845800,5.289845703125,0.002191375708207488,0.007731486111879349,-0.001440960681065917
1783693591971808000,5.29980810546875,0.004320573061704636,0.003729820717126131,-0.0043387459591031075
1783693591981771000,5.30977099609375,0.011818100698292255,-0.003879379015415907,-0.005740139167755842
1783693591991733800,5.319733642578125,0.021231044083833694,-0.01135087851434946,-0.00404370529577136
1783693592001695700,5.32969580078125,0.03235101327300072,-0.013220688328146935,0.005588899366557598
1783693592011659000,5.339658935546875,0.04096128046512604,-0.013873428106307983,0.019025344401597977
1783693592021621000,5.34962109375,0.04168301820755005,-0.011624632403254509,0.02771654911339283
1783693592031583700,5.359583740234375,0.03674259036779404,-0.007353454828262329,0.03344687074422836
1783693592041546000,5.3695458984375,0.027575872838497162,0.0010319786379113793,0.037088219076395035
1783693592051509000,5.379509033203125,0.01858796924352646,0.008521853014826775,0.03463970869779587
1783693592061472000,5.389471923828125,0.00889999233186245,0.010647337883710861,0.023511195555329323
1783693592071433700,5.399433837890625,-0.0006855230312794447,0.011814335361123085,0.01001509465277195
1783693592081396700,5.409396728515625,-0.007572942413389683,0.013812283985316753,0.0013901370111852884
1783693592091359000,5.41935888671875,-0.007287185173481703,0.005440104752779007,-0.011509682983160019
1783693592101322000,5.429322021484375,-0.004937942139804363,-0.003224526299163699,-0.022081224247813225
1783693592111283700,5.43928369140625,-0.0035003679804503918,-0.003599765943363309,-0.026599276810884476
1783693592121246700,5.449246826171875,-0.00314901489764452,-0.004414399154484272,-0.02758808247745037
1783693592131209700,5.459209716796875,-0.0029527400620281696,0.0016866364749148488,-0.028409400954842567
1783693592141172000,5.469171875,-0.0028440020978450775,0.004304551053792238,-0.02554354816675186
1783693592151135000,5.479135009765625,-0.0013704749289900064,0.00742737390100956,-0.01377024594694376
1783693592161096700,5.4890966796875,-0.00014439043297898024,0.008604723028838634,0.00035173294600099325
1783693592171060000,5.49906005859375,0.0016047738026827574,0.0065295882523059845,0.01475091278553009
1783693592181022000,5.50902197265625,0.0007679162081331015,0.0070654298178851604,0.0264162365347147
1783693592190985000,5.51898486328125,0.0018574153073132038,0.007418032269924879,0.03638977184891701
1783693592200946700,5.52894677734375,0.00260671298019588,0.0012661210494115949,0.03495849296450615
1783693592210910000,5.538909912109375,0.006919968873262405,-0.0032005326356738806,0.028036940842866898
1783693592220873000,5.548873046875,0.010251430794596672,-0.003754247445613146,0.016779957339167595
1783693592230835000,5.5588349609375,0.014940458349883556,-0.006507423706352711,0.0034098243340849876
1783693592240798000,5.5687978515625,0.02049771323800087,-0.011337564326822758,-0.005000736564397812
1783693592250760000,5.578760009765625,0.023286575451493263,-0.011439829133450985,-0.010021860711276531
1783693592260723000,5.588722900390625,0.025765063241124153,-0.010906673967838287,-0.011692825704813004
1783693592270685000,5.598684814453125,0.023735202848911285,-0.013468102551996708,-0.010880561545491219
1783693592280648000,5.60864794921875,0.019749712198972702,-0.008335940539836884,-0.004826435819268227
1783693592290610700,5.618610595703125,0.012867569923400879,-0.004935882519930601,-0.0007728383643552661
1783693592300573000,5.628572998046875,0.009918213821947575,-0.005878869444131851,0.0032895635813474655
1783693592310536000,5.638535888671875,0.007222295273095369,-0.012639835476875305,0.0043479036539793015
1783693592320498000,5.648497802734375,0.008071321062743664,-0.010182579047977924,0.006063338369131088
1783693592330460700,5.658460693359375,0.007540020160377026,-0.0058104670606553555,0.007493455894291401
1783693592340423000,5.6684228515625,0.007123052142560482,-0.004304688423871994,0.005533663555979729
1783693592350386000,5.678385986328125,0.005944336764514446,-0.007244285196065903,0.007389353588223457
1783693592360349000,5.688348876953125,0.007707187440246344,-0.0032580685801804066,0.009462733753025532
1783693592370310700,5.698310546875,0.007988683879375458,0.0020482800900936127,0.00731329619884491
1783693592380274000,5.70827392578125,0.007844211533665657,0.003943897318094969,-0.0002618863945826888
1783693592390236000,5.71823583984375,0.008827717043459415,0.009361299686133862,-0.01041145995259285
1783693592400199000,5.728198974609375,0.007481038570404053,0.009157062508165836,-0.024799959734082222
1783693592410161000,5.738160888671875,0.0056383972987532616,0.0005736945895478129,-0.043343815952539444
1783693592420124000,5.7481240234375,0.002528010867536068,-0.005109465681016445,-0.05627492815256119
1783693592430085600,5.758085693359375,0.0002398228389210999,-0.008224831894040108,-0.06109977513551712
1783693592440048600,5.768048583984375,-0.0011625533225014806,-0.004958790726959705,-0.06131133437156677
1783693592450011600,5.77801171875,-0.0015545706264674664,-0.003703642636537552,-0.05727371573448181
1783693592459974000,5.787973876953125,-0.0006411400390788913,0.0017670410452410579,-0.04712793976068497
1783693592469937000,5.79793701171875,-0.0037117647007107735,0.004923419561237097,-0.03549498692154884
1783693592479898600,5.807898681640625,-0.006803149823099375,0.00811070203781128,-0.02074481174349785
1783693592489861600,5.817861572265625,-0.013611255213618279,0.008287802338600159,-0.005227638408541679
1783693592499823900,5.827823974609375,-0.022960085421800613,0.004947383422404528,0.009236217476427555
1783693592509787000,5.837786865234375,-0.023798448964953423,0.005109569989144802,0.018639041110873222
1783693592519749600,5.84774951171875,-0.023513399064540863,0.005626475904136896,0.022672517225146294
1783693592529711600,5.857711669921875,-0.013944661244750023,0.0026224299799650908,0.019735584035515785
1783693592539675000,5.8676748046875,-0.005540035665035248,-0.004116106778383255,0.015223491005599499
1783693592549636900,5.877636962890625,-0.000949811190366745,-0.006807764060795307,0.011020490899682045
1783693592559599600,5.887599609375,0.0026983353309333324,0.0000311719486489892,0.004411064088344574
1783693592569561600,5.8975615234375,0.006120231002569199,0.006134870927780867,-0.00867331214249134
1783693592579524900,5.90752490234375,0.008515073917806149,0.010002334602177143,-0.01952054537832737
1783693592589487900,5.91748779296875,0.014099989086389542,0.010816195979714394,-0.02902883104979992
1783693592599449600,5.92744970703125,0.021337732672691345,0.014662083238363266,-0.04170756787061691
1783693592609412600,5.93741259765625,0.01956939324736595,0.02040945179760456,-0.050035007297992706
1783693592619374800,5.947374755859375,0.020250966772437096,0.027329426258802414,-0.05476021766662598
1783693592629337900,5.957337890625,0.015872729942202568,0.023374099284410477,-0.05629712715744972
1783693592639299800,5.9672998046875,0.01536203920841217,0.01700274832546711,-0.05818307027220726
1783693592649262600,5.9772626953125,0.011729753576219082,0.006074467208236456,-0.05325302854180336
1783693592659224800,5.987224853515625,0.008770217187702656,0.005177016369998455,-0.045848142355680466
1783693592669187800,5.997187744140625,0.003594096750020981,0.004597778897732496,-0.03499868884682655
1783693592679150800,6.00715087890625,0.0003110194520559162,0.004434970207512379,-0.023089317604899406
1783693592689112600,6.017112548828125,-0.0006439901189878583,0.005880534183233976,-0.0075929174199700356
1783693592699075600,6.02707568359375,0.001168848481029272,0.007422527298331261,0.006809969432651997
1783693592709037800,6.037037841796875,0.003820025362074375,0.007655820343643427,0.015686018392443657
1783693592719000800,6.047000732421875,0.010371588170528412,0.008934162557125092,0.02158505655825138
1783693592728962600,6.056962646484375,0.013997215777635574,0.013577650301158428,0.024853287264704704
1783693592738925600,6.066925537109375,0.017342863604426384,0.01322933379560709,0.01974760927259922
1783693592748888800,6.076888916015625,0.02231844700872898,0.0005036854417994618,0.006777748465538025
1783693592758850800,6.086850830078125,0.025254199281334877,-0.0037395907565951347,-0.004247464705258608
1783693592768813800,6.096813720703125,0.027835069224238396,-0.0072099557146430016,-0.009012658149003983
1783693592778775800,6.10677587890625,0.0289278794080019,-0.0019283657893538475,-0.0076277172192931175
1783693592788738800,6.11673876953125,0.02495790459215641,0.009781020693480968,-0.0035565427970141172
1783693592798700800,6.12670068359375,0.020172229036688805,0.015340924263000488,-0.0035794677678495646
1783693592808663800,6.136663818359375,0.017121311277151108,0.020974576473236084,-0.004103044979274273
1783693592818625800,6.146625732421875,0.01611998677253723,0.022134670987725258,-0.009631791152060032
1783693592828588800,6.1565888671875,0.01569095067679882,0.019228363409638405,-0.016757076606154442
1783693592838551800,6.1665517578125,0.019200382754206657,0.015934007242321968,-0.0201752707362175
1783693592848513800,6.176513671875,0.02041798084974289,0.02515972964465618,-0.021877828985452652
1783693592858476500,6.1864765625,0.0185210220515728,0.042528342455625534,-0.019818950444459915
1783693592868438800,6.196438720703125,0.012791232205927372,0.05728811398148537,-0.02237185649573803
1783693592878401800,6.20640185546875,0.015072031877934933,0.06074731424450874,-0.033081989735364914
1783693592888363800,6.21636376953125,0.019998347386717796,0.043300412595272064,-0.0504271574318409
1783693592898326500,6.226326416015625,0.02850496955215931,0.028511617332696915,-0.0623890683054924
1783693592908289800,6.236289794921875,0.028061287477612495,0.03274577856063843,-0.06173340231180191
1783693592918251800,6.246251708984375,0.021295735612511635,0.03405897691845894,-0.06090733781456947
1783693592928214800,6.25621484375,0.007946108467876911,0.0327279306948185,-0.059344060719013214
1783693592938176800,6.2661767578125,-0.009941039606928825,0.04292270168662071,-0.054767295718193054
1783693592948139800,6.276139892578125,-0.020885301753878593,0.04686257988214493,-0.05377127230167389
1783693592958101800,6.286101806640625,-0.028407767415046692,0.038364969193935394,-0.05290372297167778
1783693592968064800,6.296064697265625,-0.028251707553863525,0.02016785554587841,-0.047698043286800385
1783693592978026800,6.30602685546875,-0.02154022641479969,0.016775354743003845,-0.03734062612056732
1783693592987989800,6.31598974609375,-0.013049802742898464,0.012062091380357742,-0.025364389643073082
1783693592997952800,6.325952880859375,-0.00884177815169096,0.001177132478915155,-0.018000343814492226
1783693593007914800,6.335914794921875,-0.005223341751843691,-0.004281016066670418,-0.0037622854579240084
1783693593017877800,6.345877685546875,-0.004985925275832415,-0.007818206213414669,0.009627909399569035
1783693593027839700,6.35583984375,-0.0010958455968648195,-0.011287772096693516,0.021652881056070328
1783693593037802800,6.365802734375,0.006507989019155502,-0.004854877013713121,0.03868957236409187
1783693593047764700,6.3757646484375,0.014212247915565968,-0.002606902737170458,0.05179392173886299
1783693593057727700,6.385727783203125,0.0200384221971035,-0.004669011104851961,0.059871312230825424
1783693593067690800,6.395690673828125,0.026429742574691772,-0.0063675749115645885,0.06994365155696869
1783693593077652700,6.40565283203125,0.02077038586139679,-0.004311594646424055,0.09089483320713043
1783693593087615700,6.41561572265625,0.014043508097529411,0.01808825321495533,0.09231775999069214
1783693593097577700,6.42557763671875,0.009175503626465797,0.005459532141685486,0.07482266426086426
1783693593107540700,6.435540771484375,0.01048524584621191,-0.0018694871105253696,0.05474935099482536
1783693593117502700,6.445502685546875,0.009207936935126781,0.0024118060246109962,0.04984589293599129
1783693593127465700,6.4554658203125,0.011465498246252537,-0.006720705423504114,0.04257120192050934
1783693593137428700,6.4654287109375,0.007623101118952036,-0.008747626096010208,0.03677881509065628
1783693593147390700,6.475390625,-0.001997568178921938,-0.002131535205990076,0.032470617443323135
1783693593157353700,6.485353759765625,-0.007048971951007843,-0.0011334078153595328,0.02368125319480896
1783693593167315700,6.495315673828125,-0.016921576112508774,0.00401235232129693,0.0155863082036376
1783693593177278700,6.50527880859375,-0.02236536517739296,0.006173004396259785,0.0017044987762346864
1783693593187241000,6.515240966796875,-0.03218044713139534,0.007970105856657028,-0.00730524118989706
1783693593197203700,6.52520361328125,-0.03697836399078369,0.012870569713413715,-0.015729548409581184
1783693593207165700,6.535165771484375,-0.0413624569773674,0.024860918521881104,-0.013120449148118496
1783693593217128700,6.545128662109375,-0.04260589927434921,0.03740786015987396,-0.006213263142853975
1783693593227091700,6.555091796875,-0.041047949343919754,0.04059406742453575,-0.002472320571541786
1783693593237054000,6.565053955078125,-0.03134365752339363,0.02878773957490921,-0.007964557968080044
1783693593247016700,6.5750166015625,-0.021626850590109825,0.015715347602963448,-0.01674686372280121
1783693593256978700,6.584978759765625,-0.014647017233073711,0.0073002977296710014,-0.02484160102903843
1783693593266941700,6.594941650390625,-0.002818852663040161,0.005496538709849119,-0.028658177703619003
1783693593276904000,6.604904052734375,0.013561256229877472,-0.0015528325457125902,-0.030764702707529068
1783693593286866700,6.61486669921875,0.027009952813386917,-0.0011461679823696613,-0.021435115486383438
1783693593296829700,6.62482958984375,0.03823016211390495,0.0027702697552740574,-0.0030033173970878124
1783693593306791700,6.634791748046875,0.04207576811313629,0.004528755322098732,0.01366620697081089
1783693593316755000,6.6447548828125,0.03621797263622284,0.006766062695533037,0.026144035160541534
1783693593326716700,6.654716552734375,0.02796829678118229,0.0034802549052983522,0.028667913749814034
1783693593336679700,6.6646796875,0.022928530350327492,0.005453124642372131,0.02768813632428646
1783693593346641700,6.6746416015625,0.021796688437461853,-0.009692538529634476,0.023329341784119606
1783693593356605000,6.68460498046875,0.021595364436507225,-0.01714351959526539,0.02157270908355713
1783693593366566700,6.694566650390625,0.016401400789618492,-0.0117998868227005,0.032796602696180344
1783693593376529700,6.70452978515625,0.014196627773344517,-0.012304019182920456,0.0363658145070076
1783693593386492700,6.71449267578125,0.012279418297111988,-0.013974353671073914,0.035805221647024155
1783693593396455000,6.724454833984375,0.009792812168598175,-0.012406295165419579,0.02671133726835251
1783693593406418000,6.73441796875,0.00813739188015461,-0.014060650952160358,0.016157763078808784
1783693593416379400,6.74437939453125,0.005313990171998739,-0.013811618089675903,0.00682127894833684
1783693593426342400,6.75434228515625,0.0025328509509563446,-0.010427538305521011,0.005235632881522179
1783693593436304600,6.7643046875,-0.006801378447562456,-0.004540630616247654,0.004558027256280184
1783693593446267600,6.774267578125,-0.016044678166508675,0.003092787694185972,0.00014064187416806817
1783693593456230400,6.78423046875,-0.016677096486091614,0.0043719313107430935,-0.007364386692643166
1783693593466192400,6.7941923828125,-0.00916858110576868,0.002506653545424342,-0.015292084775865078
1783693593476155400,6.8041552734375,-0.000285295769572258,-0.002836239989846945,-0.02010292001068592
1783693593486117600,6.81411767578125,0.005090294871479273,-0.006952954456210136,-0.022829730063676834
1783693593496080400,6.824080322265625,0.015353226102888584,-0.010439550504088402,-0.02068920060992241
1783693593506042400,6.83404248046875,0.021999411284923553,-0.008287716656923294,-0.013543141074478626
1783693593516005600,6.844005615234375,0.02526525780558586,-0.0034245068673044443,0.0017748174723237753
1783693593525967600,6.853967529296875,0.022895310074090958,0.0012370902113616467,0.016730064526200294
1783693593535930400,6.863930419921875,0.014926472678780556,-0.003376804292201996,0.031004682183265686
1783693593545893400,6.873893310546875,0.009619059041142464,-0.01510030496865511,0.03732755780220032
1783693593555855600,6.883855712890625,0.004613046068698168,-0.023158246651291847,0.045114606618881226
1783693593565818600,6.893818603515625,0.0010742376325652003,-0.03161085397005081,0.049683790653944016
1783693593575780400,6.9037802734375,0.002805026015266776,-0.0334542952477932,0.05692519247531891
1783693593585743400,6.913743408203125,0.000426290585892275,-0.024764932692050934,0.06609578430652618
1783693593595705600,6.92370556640625,-0.004324823617935181,-0.01838025078177452,0.06822411715984344
1783693593605668600,6.933668701171875,-0.008813581429421902,-0.019675878807902336,0.06689173728227615
1783693593615631600,6.943631591796875,-0.019582165405154228,-0.0157107375562191,0.06287220865488052
1783693593625593300,6.95359326171875,-0.02867952361702919,-0.009826751425862312,0.057290226221084595
1783693593635556400,6.963556396484375,-0.0340166874229908,-0.005743617191910744,0.039555035531520844
1783693593645518600,6.9735185546875,-0.038263097405433655,0.0013699522241950035,0.02388313226401806
1783693593655481600,6.983481689453125,-0.037790097296237946,0.006295011378824711,0.009862790815532207
1783693593665443300,6.993443359375,-0.035868626087903976,0.002563656307756901,-0.009146586060523987
1783693593675406300,7.00340625,-0.025326881557703018,-0.0023486060090363026,-0.019880181178450584
1783693593685368600,7.01336865234375,-0.019112661480903625,-0.0031917626038193703,-0.016707822680473328
1783693593695331600,7.02333154296875,-0.014510152861475945,-0.0037446003407239914,-0.005820056423544884
1783693593705294600,7.033294677734375,-0.01677836664021015,-0.002491583116352558,0.007356998510658741
1783693593715256600,7.043256591796875,-0.017278403043746948,0.0034965320955961943,0.02154190093278885
1783693593725219600,7.053219482421875,-0.020930396392941475,0.01135924831032753,0.036503009498119354
1783693593735181600,7.063181640625,-0.02279566414654255,0.010168295353651047,0.04353587329387665
1783693593745144600,7.07314453125,-0.0200297050178051,0.0072294967249035835,0.04819853603839874
1783693593755106600,7.0831064453125,-0.013264431618154049,0.010841215960681438,0.05257107689976692
1783693593765069600,7.093069580078125,-0.007121850736439228,0.008763683959841728,0.0530451200902462
1783693593775032600,7.103032470703125,0.001438870676793158,0.0036648372188210487,0.04710724577307701
1783693593784994600,7.11299462890625,0.005980892106890678,0.0049985479563474655,0.037865277379751205
1783693593794957300,7.122957275390625,0.014962054789066315,0.0041806637309491634,0.029742607846856117
1783693593804919600,7.13291943359375,0.0190753061324358,0.006224107462912798,0.018107255920767784
1783693593814882600,7.142882568359375,0.024975135922431946,0.010252425447106361,0.003482593921944499
1783693593824844500,7.152844482421875,0.022481616586446762,0.01685892976820469,-0.005936207715421915
1783693593834807300,7.162807373046875,0.01930803246796131,0.025603415444493294,-0.018786650151014328
1783693593844769500,7.17276953125,0.019681140780448914,0.018572138622403145,-0.027082929387688637
1783693593854732500,7.182732666015625,0.0155264250934124,0.011139815673232079,-0.03469208627939224
1783693593864695600,7.192695556640625,0.014833737164735794,0.0015481748851016164,-0.0310819074511528
1783693593874657300,7.2026572265625,0.008125499822199345,-0.004028537310659885,-0.018865881487727165
1783693593884620500,7.21262060546875,0.001383440918289125,-0.004122813232243061,-0.005531966686248779
1783693593894582500,7.22258251953125,-0.007647200953215361,0.001612550113350153,0.008135288022458553
1783693593904545500,7.232545654296875,-0.014667026698589325,0.009645708836615086,0.022871091961860657
1783693593914507300,7.24250732421875,-0.0199151411652565,0.01341414824128151,0.03351445868611336
1783693593924470500,7.252470458984375,-0.01949143223464489,0.006786605808883905,0.0381651371717453
1783693593934433500,7.26243359375,-0.014693587087094784,0.004230986349284649,0.046489372849464417
1783693593944395500,7.2723955078125,-0.014551907777786255,0.0021377415396273136,0.04794852063059807
1783693593954358500,7.282358642578125,-0.01459407713264227,-0.006234690546989441,0.04451505467295647
1783693593964320500,7.292320556640625,-0.013690999709069729,-0.0001451063435524702,0.042513955384492874
1783693593974283500,7.302283447265625,-0.01606587879359722,0.005536235868930817,0.032974064350128174
1783693593984245500,7.31224560546875,-0.018185488879680634,0.007225478999316692,0.019974110648036003
1783693593994208500,7.32220849609375,-0.01631665602326393,0.007799428887665272,0.009751579724252224
1783693594004170500,7.33217041015625,-0.011385546997189522,0.009361905977129936,-0.001969791017472744
1783693594014133500,7.342133544921875,-0.005211296956986189,0.0026251503732055426,-0.011384841054677963
1783693594024096500,7.352096435546875,-0.0013526432448998094,0.0025769472122192383,-0.016137517988681793
1783693594034058500,7.36205859375,-0.00025637043290771544,0.0041266498155891895,-0.019106846302747726
1783693594044021500,7.372021484375,-0.00017487771401647478,0.005147173069417477,-0.019627228379249573
1783693594053983500,7.3819833984375,-0.000915063195861876,0.009118972346186638,-0.015427702106535435
1783693594063946500,7.391946533203125,-0.003902597352862358,0.016813909634947777,-0.009660627692937851
1783693594073908500,7.401908447265625,-0.004247743170708418,0.015843454748392105,-0.005723143462091684
1783693594083871500,7.41187158203125,0.00018189288675785065,0.009236950427293777,-0.005037912167608738
1783693594093834500,7.42183447265625,0.004160793498158455,0.006407055072486401,-0.0007907901890575886
1783693594103796500,7.43179638671875,0.012607275508344173,-0.0008647062350064516,0.006956611759960651
1783693594113759500,7.441759521484375,0.021376486867666245,-0.00197172281332314,0.017195502296090126
1783693594123721500,7.451721435546875,0.03044268675148487,-0.002507284516468644,0.02262994833290577
1783693594133684500,7.4616845703125,0.03300625830888748,-0.004166475031524897,0.030173446983098984
1783693594143646500,7.471646484375,0.030366797000169754,-0.004221868701279163,0.02815929800271988
1783693594153609500,7.481609375,0.030934233218431473,-0.00811996590346098,0.024021251127123833
1783693594163571700,7.49157177734375,0.026067839935421944,-0.004574232269078493,0.021463284268975258
1783693594173534500,7.501534423828125,0.01982094720005989,0.005088276229798794,0.017274159938097
1783693594183497500,7.51149755859375,0.01481659896671772,0.0067626056261360645,0.010945957154035568
1783693594193459500,7.52145947265625,0.011688334867358208,0.00728590739890933,0.012081164866685867
1783693594203422500,7.53142236328125,0.009539430029690266,0.009015364572405815,0.01587616838514805
1783693594213384400,7.541384521484375,0.007893017493188381,0.004875220824033022,0.01785323955118656
1783693594223347500,7.551347412109375,0.006334535777568817,-0.0005560298450291157,0.021910831332206726
1783693594233309400,7.561309326171875,0.004049242939800024,-0.004720130003988743,0.024876456707715988
1783693594243272400,7.5712724609375,0.0058002714067697525,-0.007964659482240677,0.026404844596982002
1783693594253235500,7.5812353515625,0.01170409470796585,-0.009895963594317436,0.02751387096941471
1783693594263197400,7.591197509765625,0.014374446123838425,-0.013116258196532726,0.03144416585564613
1783693594273160400,7.601160400390625,0.01636004075407982,-0.007529482711106539,0.036447130143642426
1783693594283122400,7.611122314453125,0.018876729533076286,-0.0036902697756886482,0.04238864406943321
1783693594293085700,7.621085693359375,0.020661404356360435,-0.001497969264164567,0.04410037770867348
1783693594303047400,7.63104736328125,0.02670012228190899,-0.010852854698896408,0.0368211604654789
1783693594313010400,7.641010498046875,0.0265201386064291,-0.013293116353452206,0.02855370193719864
1783693594322972400,7.650972412109375,0.027407504618167877,-0.01223610807210207,0.024423671886324883
1783693594332935700,7.660935791015625,0.029771175235509872,-0.008474117144942284,0.0228948462754488
1783693594342898700,7.670898681640625,0.02951711043715477,-0.004262860864400864,0.02880280278623104
1783693594352860400,7.6808603515625,0.021976960822939873,-0.0032481919042766094,0.03101567178964615
1783693594362823400,7.690823486328125,0.015054073184728622,-0.00007050810381770134,0.025341542437672615
1783693594372785700,7.70078564453125,0.00867275707423687,0.0016064753290265799,0.02157174050807953
1783693594382748700,7.710748779296875,-0.00008238494774559513,0.0011990116909146309,0.014292788691818714
1783693594392710400,7.72071044921875,-0.006925944704562426,0.007596475537866354,0.010971754789352417
1783693594402673400,7.73067333984375,-0.013693303801119328,0.01042102463543415,0.010608499869704247
1783693594412635600,7.7406357421875,-0.017855707556009293,0.007494751829653978,0.006431162357330322
1783693594422598700,7.7505986328125,-0.019716991111636162,0.006596467457711697,0.004613022319972515
1783693594432561400,7.7605615234375,-0.017200268805027008,0.013720671646296978,0.004098571836948395
1783693594442523400,7.7705234375,-0.01420501247048378,0.011785086244344711,0.0033907033503055573
1783693594452486400,7.780486328125,-0.006412893068045378,0.009293941780924797,-0.005969752557575703
1783693594462448600,7.79044873046875,0.0018961697351187468,0.007699507754296064,-0.00664433091878891
1783693594472411400,7.800411376953125,0.008299706503748894,0.004244607407599688,-0.006697133183479309
1783693594482373400,7.810373291015625,0.011652093380689621,0.0003044604090973735,-0.005504303146153688
1783693594492336400,7.82033642578125,0.014328048564493656,-0.004966722801327705,-0.0053189583122730255
1783693594502299600,7.830299560546875,0.018870603293180466,-0.0015986229991540313,0.00009444879833608866
1783693594512261400,7.840261474609375,0.016599930822849274,0.006601458881050348,0.015620999038219452
1783693594522224400,7.850224365234375,0.015261960215866566,0.007407331373542547,0.025090401992201805
1783693594532186600,7.8601865234375,0.012709657661616802,0.006429221015423536,0.029069097712635994
1783693594542149600,7.870149658203125,0.00905793160200119,0.00046880031004548073,0.026302872225642204
1783693594552111400,7.880111328125,0.007061972748488188,-0.004583241418004036,0.020262422040104866
1783693594562074400,7.890074462890625,0.0071722278371453285,0.003717565443366766,0.018641090020537376
1783693594572036600,7.90003662109375,0.0036991757806390524,0.007440108805894852,0.01191636361181736
1783693594581999600,7.90999951171875,0.0004426624800544232,0.0037859855219721794,0.00570454029366374
1783693594591962600,7.919962646484375,-0.0018835046794265509,0.004945789929479361,0.004585056100040674
1783693594601924400,7.92992431640625,-0.0028710048645734787,0.0036136768758296967,0.002037476282566786
1783693594611887400,7.939887451171875,-0.0018045816104859114,-0.0011259120656177402,-0.006148266606032848
1783693594621849600,7.949849609375,-0.0008857910870574415,0.002093316987156868,-0.01280483789741993
1783693594631812600,7.9598125,0.0006643886445090175,0.001600639196112752,-0.025004573166370392
1783693594641774300,7.9697744140625,0.004697213415056467,0.0034520686604082584,-0.03213411942124367
1783693594651737300,7.9797373046875,0.010181090794503689,0.011405867524445057,-0.032204270362854004
1783693594661699600,7.989699462890625,0.007643363904207945,0.012071391567587852,-0.03361068665981293
1783693594671662600,7.99966259765625,0.01201871782541275,0.004749023821204901,-0.03626340255141258
1783693594681625600,8.00962548828125,0.014040056616067886,-0.0006888849893584847,-0.03039592318236828
1783693594691587300,8.01958740234375,0.013607003726065159,-0.007554537616670132,-0.025635235011577606
1783693594701550600,8.029550537109374,0.013422979041934013,-0.014183677732944489,-0.02049347013235092
1783693594711512600,8.0395126953125,0.008382009342312813,-0.011056574061512947,-0.009006638079881668
1783693594721475600,8.0494755859375,-0.0012762105325236917,-0.008923115208745003,0.004798389971256256
1783693594731437600,8.0594375,-0.00792519748210907,-0.007322801277041435,0.02146613597869873
1783693594741400600,8.069400634765625,-0.01316070556640625,0.0005961083224974573,0.03503520414233208
1783693594751363600,8.079363525390624,-0.01743944361805916,0.00454632518813014,0.04347529262304306
1783693594761325600,8.08932568359375,-0.023360183462500572,0.005456061102449894,0.043264638632535934
1783693594771288300,8.099288330078124,-0.024747125804424286,0.007115829270333052,0.03463052585721016
1783693594781250600,8.10925048828125,-0.02488134801387787,0.004531497601419687,0.018417736515402794
1783693594791213600,8.119213623046875,-0.018994130194187164,-0.0028401503805071115,-0.0002602719468995929
1783693594801175600,8.129175537109376,-0.013224923983216286,-0.008611752651631832,-0.01830851472914219
1783693594811138300,8.13913818359375,-0.00469567533582449,-0.012510891072452068,-0.03347952663898468
1783693594821100500,8.1491005859375,0.0012626148527488112,-0.012844585813581944,-0.040177375078201294
1783693594831063600,8.1590634765625,0.003762235166504979,-0.0074815344996750355,-0.04156406223773956
1783693594841026600,8.169026611328125,0.004546802956610918,-0.000865975976921618,-0.04092703387141228
1783693594850988300,8.17898828125,-0.0013077401090413332,0.0016195430653169751,-0.03383193537592888
1783693594860951300,8.188951416015625,-0.006977876182645559,-0.002824740018695593,-0.023635489866137505
1783693594870913500,8.19891357421875,-0.008928167633712292,-0.0026356601156294346,-0.012372498400509357
1783693594880876500,8.20887646484375,-0.014441177248954773,-0.004447941202670336,0.0012011012295261025
1783693594890838300,8.21883837890625,-0.01384731475263834,-0.0050748721696436405,0.012767498381435871
1783693594900801500,8.228801513671876,-0.01177537627518177,-0.0035467506386339664,0.02735629491508007
1783693594910763500,8.238763427734375,-0.011668930761516094,-0.0029861298389732838,0.03888552263379097
1783693594920726500,8.2487265625,-0.007205738686025143,-0.0062367841601371765,0.04279983788728714
1783693594930689500,8.258689453125,-0.0034864256158471107,-0.006894856225699186,0.04158458486199379
1783693594940651500,8.268651611328124,-0.0009782605338841677,-0.002353101037442684,0.036129098385572433
1783693594950614500,8.278614501953125,0.0038765198551118374,-0.0019475040026009083,0.02242085337638855
1783693594960576500,8.288576416015625,0.01013974193483591,-0.0014196655247360468,0.005658918060362339
1783693594970539500,8.29853955078125,0.015371753834187984,0.0004887740360572934,-0.009982964023947716
1783693594980501500,8.30850146484375,0.021309271454811096,0.004753293935209513,-0.024525154381990433
1783693594990464500,8.318464599609374,0.0268830806016922,0.004896013997495174,-0.029981840401887894
1783693595000427500,8.328427490234375,0.028727320954203606,0.003155638463795185,-0.030103012919425964
1783693595010389500,8.338389404296874,0.02800600975751877,0.0029670658987015486,-0.02975396066904068
1783693595020352500,8.3483525390625,0.02452792227268219,0.005110644269734621,-0.024081960320472717
1783693595030314500,8.358314453125,0.014268231578171253,0.00589284673333168,-0.018542243167757988
1783693595040277500,8.368277587890624,0.009187986142933369,0.0008589397766627371,-0.014475862495601177
1783693595050239500,8.378239501953125,0.006284619215875864,-0.0009096541907638311,-0.004808866418898106
1783693595060202500,8.388202392578124,0.00004696359974332154,0.0007739963475614786,0.00605416763573885
1783693595070164500,8.39816455078125,-0.005922072101384401,0.004504779819399118,0.023180674761533737
1783693595080127500,8.40812744140625,-0.010190586559474468,0.0055463421158492565,0.031468700617551804
1783693595090090500,8.418090576171876,-0.0136688482016325,0.004585246089845896,0.039995357394218445
1783693595100052500,8.428052490234375,-0.018095288425683975,0.0023236898705363274,0.041321877390146255
1783693595110015500,8.438015380859374,-0.015679143369197845,0.0013178340159356594,0.039723530411720276
1783693595119977500,8.4479775390625,-0.021815598011016846,-0.0023767692036926746,0.026778172701597214
1783693595129940500,8.4579404296875,-0.02025575004518032,-0.011578061617910862,0.015325427055358887
1783693595139902500,8.46790234375,-0.016733452677726746,-0.008910372853279114,0.00945155881345272
1783693595149865500,8.477865478515625,-0.01647529937326908,-0.0020681405439972878,0.011093412525951862
1783693595159827500,8.487827392578126,-0.011877085082232952,0.00788089632987976,0.011119511909782887
1783693595169790500,8.49779052734375,-0.010321591049432755,0.013448496349155903,0.012272612191736698
1783693595179753500,8.50775341796875,-0.003344907658174634,0.010734468698501587,0.009200922213494778
1783693595189715500,8.517715576171875,0.0039231134578585625,0.0014637275598943233,0.0026860423386096954
1783693595199678500,8.527678466796875,0.009374603629112244,-0.003356593893840909,-0.001307367580011487
1783693595209640400,8.537640380859376,0.016428589820861816,-0.011428352445363998,-0.004659450612962246
1783693595219603500,8.547603515625,0.022335747256875038,-0.010094375349581242,-0.0009552603587508202
1783693595229565700,8.557565673828124,0.02490486204624176,-0.0026151356287300587,0.0051997653208673
1783693595239528400,8.567528564453125,0.026920609176158905,0.0012816016096621752,0.008434707298874855
1783693595249490400,8.577490478515625,0.023199165239930153,0.006123232655227184,0.014533394947648048
1783693595259453400,8.587453369140626,0.023979738354682922,0.004718948155641556,0.015181607566773891
1783693595269416400,8.59741650390625,0.023335948586463928,-0.0036910981871187687,0.011354376561939716
1783693595279378400,8.60737841796875,0.02160968817770481,-0.010880833491683006,0.005713535472750664
1783693595289341400,8.617341552734375,0.019022807478904724,-0.01936299353837967,0.0031055992003530264
1783693595299303400,8.627303466796874,0.015498114749789238,-0.025894928723573685,0.006636152043938637
1783693595309266700,8.6372666015625,0.009887020103633404,-0.021984582766890526,0.011890970170497894
1783693595319228400,8.647228515625,0.004598247818648815,-0.01307790819555521,0.01337355189025402
1783693595329191400,8.65719140625,-0.0008992351358756423,-0.008073801174759865,0.0096683194860816
1783693595339154400,8.667154541015625,-0.0030864891596138477,-0.0062636504881083965,0.0031305253505706787
1783693595349116700,8.67711669921875,-0.005650152452290058,-0.0011897938093170524,-0.0018294546753168106
1783693595359079700,8.68707958984375,-0.003784608095884323,-0.0008718123426660895,-0.013281313702464104
1783693595369041400,8.69704150390625,-0.0046224030666053295,-0.001456127967685461,-0.02005871944129467
1783693595379004400,8.70700439453125,0.00004904763773083687,-0.0003479867009446025,-0.028089748695492744
1783693595388966700,8.716966552734375,0.0066934144124388695,-0.0019842395558953285,-0.03225859999656677
1783693595398929700,8.7269296875,0.009319025091826916,-0.006519070826470852,-0.032819993793964386
1783693595408891400,8.736891357421875,0.013168797828257084,-0.010092537850141525,-0.031032230705022812
1783693595418855000,8.74685498046875,0.010547182522714138,-0.004704431165009737,-0.025398312136530876
1783693595428818000,8.75681787109375,0.006125883664935827,-0.003396259155124426,-0.015922490507364273
1783693595438780000,8.76677978515625,-0.0002704966173041612,-0.000275034224614501,-0.0013398206792771816
1783693595448743000,8.776742919921874,-0.004602429457008839,-0.0015493386890739202,0.007720713969320059
1783693595458705000,8.786704833984375,-0.004455156624317169,-0.00698724715039134,0.01409072894603014
1783693595468668000,8.79666796875,-0.005259060300886631,-0.01185391005128622,0.018342573195695877
1783693595478630000,8.8066298828125,-0.006491571664810181,-0.011087718419730663,0.023920830339193344
1783693595488593000,8.816593017578125,-0.00507950596511364,-0.010056005790829659,0.018875254318118095
1783693595498555000,8.826554931640626,-0.0061815218068659306,-0.009073831140995026,0.01728268340229988
1783693595508518000,8.836517822265625,-0.005264247767627239,-0.009718075394630432,0.014427642337977886
1783693595518481000,8.84648095703125,-0.002991506364196539,-0.011556988582015038,0.004808570723980665
1783693595528443000,8.85644287109375,-0.0026864700485020876,-0.008130034431815147,-0.004377362318336964
1783693595538406000,8.866406005859375,0.0018363764975219965,-0.004917730111628771,-0.012685892172157764
1783693595548368000,8.876367919921876,0.0012411943171173334,-0.006469838321208954,-0.021091822534799576
1783693595558331000,8.886330810546875,0.003932318650186062,-0.006665314547717571,-0.030126595869660378
1783693595568292900,8.89629296875,0.0060500530526041985,-0.006144625600427389,-0.03238238766789436
1783693595578256000,8.906255859375,0.007401873357594013,-0.003165613394230604,-0.032993584871292114
1783693595588217900,8.9162177734375,0.005016549024730921,-0.0009956539142876863,-0.028143398463726044
1783693595598180900,8.926180908203126,0.00456194719299674,0.004071010276675224,-0.02571779116988182
1783693595608144000,8.936143798828125,0.0063897911459207535,0.007414831779897213,-0.017908133566379547
1783693595618105900,8.94610595703125,0.010447916574776173,0.007765037938952446,-0.013291544280946255
1783693595628068900,8.95606884765625,0.012925826013088226,0.00411277636885643,-0.010993925854563713
1783693595638030800,8.96603076171875,0.01606968604028225,0.003221682505682111,-0.011779292486608028
1783693595647993900,8.975993896484376,0.020147740840911865,0.004228896927088499,-0.017942972481250763
1783693595657955800,8.985955810546875,0.017636645585298538,0.004481364507228136,-0.016392212361097336
1783693595667918800,8.9959189453125,0.01858435943722725,0.007427355740219355,-0.0158463753759861
1783693595677880800,9.005880859375,0.01847703568637371,0.0034579141065478325,-0.019011808559298515
1783693595687843800,9.01584375,0.014657852239906788,-0.0008433528710156679,-0.016605591401457787
1783693595697806800,9.025806884765625,0.012891110964119434,-0.001334706088528037,-0.016240205615758896
1783693595707768800,9.035768798828125,0.0071620037779212,0.0019284560112282634,-0.010645534843206406
1783693595717731800,9.04573193359375,0.001006905920803547,0.004188947379589081,-0.012193631380796432
1783693595727693800,9.05569384765625,-0.002122551668435335,0.004546366166323423,-0.00968229304999113
1783693595737656800,9.06565673828125,-0.00392684293910861,0.009432468563318253,-0.006287561729550362
1783693595747618800,9.075618896484375,-0.003868520027026534,0.011573916301131248,-0.006496354006230831
1783693595757581800,9.085581787109374,0.000612248491961509,0.011046609841287136,-0.00958615355193615
1783693595767545000,9.095545166015626,0.005068122409284115,0.014825348742306232,-0.014540251344442368
1783693595777506800,9.1055068359375,0.011280477978289127,0.007106176111847162,-0.018661759793758392
1783693595787469800,9.1154697265625,0.01619117334485054,0.004082461819052696,-0.016592470929026604
1783693595797432000,9.12543212890625,0.016953902319073677,0.005404987372457981,-0.011279996484518051
1783693595807395000,9.13539501953125,0.018139587715268135,-0.002847356256097555,-0.014800635166466236
1783693595817356800,9.145356689453125,0.019178221002221107,-0.003489178139716387,-0.014057879336178303
1783693595827319800,9.15531982421875,0.01880638673901558,0.004754898604005575,-0.00844211969524622
1783693595837282000,9.165281982421876,0.018000246956944466,0.006190875079482794,-0.005142463371157646
1783693595847245000,9.1752451171875,0.016346147283911705,0.0075400210916996,-0.0007687418255954981
1783693595857207800,9.185207763671874,0.01020649541169405,0.012302019633352757,0.003007354214787483
1783693595867169800,9.195169677734375,0.006020005326718092,0.015306863933801651,0.00032661628210917115
1783693595877132800,9.2051328125,0.003222354920580983,0.008993574418127537,-0.0019181621028110385
1783693595887095000,9.215094970703126,0.0005037535447627306,0.005494986195117235,-0.006906323134899139
1783693595897057800,9.225057861328125,0.000044890912249684334,0.0006996986921876669,-0.006778491660952568
1783693595907019800,9.235019775390626,0.0006708380533382297,0.00580284558236599,0.0011035088682547212
1783693595916982800,9.244982666015625,0.0043779583647847176,0.005440122913569212,0.007271123118698597
1783693595926945000,9.254945068359374,0.00553220696747303,0.002584663452580571,0.010793225839734077
1783693595936907800,9.26490771484375,0.005840867292135954,0.00852271355688572,0.017283614724874496
1783693595946870800,9.274870849609375,0.0061800372786819935,0.015399038791656494,0.01914416067302227
1783693595956832800,9.284832763671876,0.0021133902482688427,0.015600905753672123,0.015394963324069977
1783693595966796000,9.294796142578125,-0.001160884159617126,0.009114752523601055,0.004969886038452387
1783693595976757800,9.3047578125,-0.005358824972063303,0.0033061320427805185,-0.0007132996106520295
1783693595986720800,9.314720703125,-0.004674983210861683,-0.0008835573680698872,-0.0017810094868764281
1783693595996683000,9.32468310546875,-0.004167118109762669,-0.003487063804641366,-0.0032587978057563305
1783693596006646000,9.33464599609375,0.0007952876039780676,-0.0038545483257621527,-0.003217445919290185
1783693596016609000,9.344609130859375,0.00287468358874321,-0.0034135289024561644,-0.0025796189438551664
1783693596026570800,9.35457080078125,0.0015221349895000458,0.001429127063602209,-0.0026607001200318336
1783693596036533800,9.36453369140625,0.0018387848976999521,0.002230206038802862,-0.0017749329563230276
1783693596046496000,9.37449609375,-0.0020141724962741137,-0.0003671774175018072,-0.0046105580404400826
1783693596056459000,9.384458984375,-0.007700819987803698,0.00023123493883758783,-0.002397470874711871
1783693596066420700,9.394420654296875,-0.01646239310503006,0.0002976177493110299,0.0045364187099039555
1783693596076383700,9.4043837890625,-0.023053983226418495,0.0004813758423551917,0.009628916159272194
1783693596086346000,9.414345947265625,-0.025591809302568436,-0.002754733432084322,0.01474735327064991
1783693596096309000,9.42430908203125,-0.027318868786096573,-0.0010774745605885983,0.016649648547172546
1783693596106270700,9.434270751953125,-0.027134427800774574,-0.0005016556242480874,0.018905675038695335
1783693596116233700,9.444233642578125,-0.020868541672825813,0.000249355798587203,0.020268414169549942
1783693596126196700,9.45419677734375,-0.015322787687182426,-0.0025725411251187325,0.017530962824821472
1783693596136159000,9.464158935546875,-0.008413216099143028,-0.004986163694411516,0.016063561663031578
1783693596146122000,9.4741220703125,-0.007496328093111515,-0.0006041285814717412,0.014631928876042366
1783693596156083700,9.484083740234375,-0.00762921990826726,-0.0035405303351581097,0.007935144938528538
1783693596166047000,9.494046875,-0.006170683540403843,-0.006796589586883783,0.0005766500835306942
1783693596176009000,9.504009033203126,-0.008935310877859592,-0.0063603646121919155,-0.0027829275932163
1783693596185972000,9.513971923828125,-0.012429123744368553,-0.005670883692800999,0.0008485700818710029
1783693596195934700,9.523934814453124,-0.017804980278015137,-0.01006962638348341,0.006890749558806419
1783693596205897000,9.53389697265625,-0.023892629891633987,-0.013345032930374146,0.012983567081391811
1783693596215860000,9.54385986328125,-0.024523001164197922,-0.013813748955726624,0.02149982377886772
1783693596225822000,9.553822021484375,-0.022181816399097443,-0.012499477714300156,0.031633950769901276
1783693596235784700,9.56378466796875,-0.022194333374500275,-0.009052015841007233,0.03715228661894798
1783693596245747000,9.573746826171876,-0.021698465570807457,-0.004805298987776041,0.037885092198848724
1783693596255710000,9.5837099609375,-0.02195572666823864,-0.0004217358073219657,0.032419219613075256
1783693596265672000,9.593671875,-0.019408700987696648,-0.002097419463098049,0.0217365063726902
1783693596275634700,9.603634765625,-0.013878115452826023,-0.010843507014214993,0.009201540611684322
1783693596285597700,9.61359765625,-0.01109057292342186,-0.013434270396828651,0.005731802433729172
1783693596295560000,9.623559814453126,-0.007274795789271593,-0.008112476207315922,0.0034129880368709564
1783693596305523000,9.63352294921875,-0.008712995797395706,-0.004681992344558239,0.001619919785298407
1783693596315484700,9.643484619140626,-0.013004946522414684,-0.0013881947379559278,-0.002382545033469796
1783693596325447700,9.65344775390625,-0.015518680214881897,0.002625958528369665,-0.0019744636956602335
1783693596335410000,9.663409912109374,-0.014814806170761585,0.004097621422261,-0.0027632920537143946
1783693596345373000,9.673373046875,-0.013743463903665543,0.004681873135268688,-0.007797952741384506
1783693596355335000,9.6833349609375,-0.0073401592671871185,0.004770023748278618,-0.013755178079009056
1783693596365298000,9.6932978515625,0.001665841438807547,0.006954922340810299,-0.017096474766731262
1783693596375261000,9.703260986328125,0.006344749126583338,-0.00035785173531621695,-0.02261481061577797
1783693596385223000,9.713222900390624,0.011437523178756237,-0.006857284810394049,-0.02619650587439537
1783693596395186000,9.72318603515625,0.01440774742513895,0.00008477701339870691,-0.02654990740120411
1783693596405148000,9.73314794921875,0.019176600500941277,0.004434502217918634,-0.021849466487765312
1783693596415111000,9.74311083984375,0.017898550257086754,0.0017798630287870765,-0.01665710099041462
1783693596425072400,9.753072265625,0.0204138346016407,0.00643803458660841,-0.010881648398935795
1783693596435035400,9.763035400390624,0.018974661827087402,0.006192490924149752,-0.008524484001100063
1783693596444997400,9.772997314453125,0.015731431543827057,0.005103756673634052,-0.008923123590648174
1783693596454960400,9.78296044921875,0.01714264042675495,0.013951843604445457,-0.0070416005328297615
1783693596464923400,9.79292333984375,0.013965616002678871,0.012707901187241077,-0.003553306683897972
1783693596474885400,9.802885498046875,0.013766145333647728,0.004485124722123146,-0.004119760822504759
1783693596484848400,9.812848388671876,0.015035639517009258,0.002358822850510478,-0.006247325334697962
1783693596494810400,9.822810302734375,0.015628192573785782,0.0033836071379482746,-0.0057213506661355495
1783693596504773400,9.8327734375,0.014440109953284264,0.003952731378376484,-0.003706196788698435
1783693596514735400,9.8427353515625,0.011997724883258343,0.0039018653333187103,-0.001399100641719997
1783693596524698400,9.852698486328125,0.01068929024040699,0.008140581659972668,0.006200145464390516
1783693596534660400,9.862660400390626,0.005682813934981823,0.014119644649326801,0.01340159960091114
1783693596544623400,9.872623291015625,0.0019277343526482582,0.011318509466946125,0.016057061031460762
1783693596554586400,9.88258642578125,-0.003647326957434416,0.010814373381435871,0.009980525821447372
1783693596564548600,9.892548583984375,-0.004398060496896505,0.010172296315431595,0.004831559024751186
1783693596574511600,9.90251171875,-0.0021913654636591673,0.006148259621113539,-0.003430898068472743
1783693596584473300,9.912473388671875,0.003857032395899296,0.0026131661143153906,-0.008886262774467468
1783693596594436400,9.922436279296875,0.009793218225240707,-0.0001711687073111534,-0.011221056804060936
1783693596604398600,9.932398681640626,0.016129711642861366,-0.004145902581512928,-0.009930524043738842
1783693596614361600,9.942361572265625,0.0161448922008276,-0.0026500048115849495,-0.0068396590650081635
1783693596624323300,9.9523232421875,0.014511934481561184,0.0015913316747173667,0.00018774467753246427
1783693596634286300,9.962286376953125,0.008867630735039711,0.0038369090761989355,0.011225748807191849
1783693596644249300,9.972249267578125,0.0031163960229605436,0.0036733592860400677,0.01796027645468712
1783693596654211600,9.982211669921876,-0.00041309153311885893,0.00827370397746563,0.023832280188798904
1783693596664174300,9.99217431640625,-0.002571456367149949,0.004445962607860565,0.023629166185855865
1783693596674136300,10.00213623046875,-0.003380258334800601,-0.0023091451730579138,0.016162995249032974
1783693596684099300,10.012099365234375,-0.0039503504522144794,-0.003980506677180529,0.009131195954978466
1783693596694061600,10.0220615234375,-0.005705107003450394,-0.006207974627614021,-0.0027627479285001755
1783693596704024300,10.0320244140625,-0.004541176836937666,-0.008994471281766891,-0.009766400791704655
1783693596713986300,10.041986328125,-0.004210678394883871,-0.006057537626475096,-0.011561105027794838
1783693596723949300,10.05194921875,-0.005943504627794027,-0.005533973686397076,-0.015758657827973366
1783693596733912600,10.06191259765625,-0.007516633719205856,-0.004752336069941521,-0.0187216904014349
1783693596743874300,10.071874267578124,-0.009497296996414661,0.0020422230008989573,-0.015985172241926193
1783693596753837300,10.08183740234375,-0.013802830129861832,0.00017321656923741102,-0.01226074155420065
1783693596763799600,10.091799560546875,-0.013241156935691833,-0.005730785895138979,-0.0031595586333423853
1783693596773762600,10.101762451171876,-0.013481906615197659,-0.006683398969471455,0.007342883385717869
1783693596783724300,10.111724365234375,-0.016388295218348503,-0.004912903998047113,0.013786534778773785
1783693596793687300,10.121687255859374,-0.01618163473904133,-0.003742711152881384,0.021279605105519295
1783693596803649500,10.1316494140625,-0.01572536677122116,0.000791868835221976,0.023495657369494438
1783693596813612500,10.141612548828125,-0.013991115614771843,0.0002824061084538698,0.020994950085878372
1783693596823575600,10.151575439453126,-0.009621134027838707,-0.004411947913467884,0.014684589579701424
1783693596833537300,10.161537353515625,-0.0028830706141889095,-0.011369988322257996,0.0045070527121424675
1783693596843500300,10.171500244140624,0.00017538582324050367,-0.017007658258080482,-0.008102082647383213
1783693596853462500,10.181462646484375,0.00256051286123693,-0.016495266929268837,-0.021867429837584496
1783693596863425500,10.191425537109374,-0.0016814745031297207,-0.011167079210281372,-0.0316312201321125
1783693596873387300,10.20138720703125,-0.008243503049015999,0.0006634818855673075,-0.04047051817178726
1783693596883350300,10.211350341796875,-0.020562371239066124,0.004158090800046921,-0.04805217310786247
1783693596893312500,10.2213125,-0.028447991237044334,0.002758866176009178,-0.05046020448207855
1783693596903275500,10.231275634765625,-0.03165307268500328,-0.0010057964827865362,-0.04357106611132622
1783693596913238500,10.241238525390624,-0.03377454727888107,0.0019417901057749987,-0.022323301061987877
1783693596923200300,10.2512001953125,-0.03383525833487511,0.010361970402300358,-0.0008085455046966672
1783693596933163500,10.26116357421875,-0.029782725498080254,0.012668001465499401,0.014455361291766167
1783693596943125500,10.27112548828125,-0.0293656587600708,0.010633785277605057,0.021928131580352783
1783693596953088500,10.281088623046875,-0.024828165769577026,0.0046150414273142815,0.014778874814510345
1783693596963050200,10.29105029296875,-0.016925422474741936,-0.0019530331483110785,0.001533027389086783
1783693596973013500,10.301013427734375,-0.006891696713864803,-0.013691182248294353,-0.007411997765302658
1783693596982975500,10.3109755859375,-0.001661141635850072,-0.019820768386125565,-0.013878201134502888
1783693596992938500,10.3209384765625,0.005938454996794462,-0.022875415161252022,-0.01365609373897314
1783693597002901200,10.3309013671875,0.010070476680994034,-0.017602602019906044,-0.011145979166030884
1783693597012863500,10.340863525390626,0.009990847669541836,-0.009579028934240341,-0.004905126988887787
1783693597022826500,10.350826416015625,0.0066664936020970345,0.00033641618210822344,-0.00020237325225025415
1783693597032788500,10.36078857421875,0.0015668065752834082,0.005821729078888893,0.002029089257121086
1783693597042751200,10.370751220703125,0.0000974925933405757,0.0062111420556902885,0.00252080662176013
1783693597052713500,10.38071337890625,-0.0017981454730033875,-0.004097954370081425,-0.0027043153531849384
1783693597062676500,10.390676513671876,0.0024204994551837444,-0.013999336399137974,-0.007591784931719303
1783693597072638500,10.400638427734375,0.007356402464210987,-0.01630030758678913,-0.005776307545602322
1783693597082601200,10.410601318359374,0.013556007295846939,-0.010054895654320717,0.00099953543394804
1783693597092564200,10.420564208984375,0.016613848507404327,0.0003676520427688956,0.010895042680203915
1783693597102526500,10.4305263671875,0.019635485485196114,0.010548610240221024,0.017298711463809013
1783693597112489500,10.440489501953126,0.015348062850534916,0.025584816932678223,0.021718226373195648
1783693597122451200,10.450451171875,0.013368291780352592,0.03567550331354141,0.015341105870902538
1783693597132414500,10.46041455078125,0.007924525067210197,0.032867468893527985,-0.0030083395540714264
1783693597142376400,10.47037646484375,0.00832961406558752,0.025522759184241295,-0.023992741480469704
1783693597152339500,10.48033935546875,0.015738261863589287,0.015553215518593788,-0.03607496991753578
1783693597162301200,10.49030126953125,0.025542782619595528,0.004704016260802746,-0.038810450583696365
1783693597172264400,10.500264404296875,0.03475119173526764,-0.002783727366477251,-0.034296125173568726
1783693597182227500,10.5102275390625,0.043838340789079666,-0.011439040303230286,-0.0242467001080513
1783693597192189400,10.520189453125,0.04734519124031067,-0.015989849343895912,-0.010635551065206528
1783693597202152400,10.53015234375,0.048724010586738586,-0.012891211546957493,0.002751363907009363
1783693597212114400,10.540114501953125,0.0460539273917675,-0.014528789557516575,0.01462826319038868
1783693597222077400,10.550077392578125,0.043579619377851486,-0.018504373729228973,0.03195033222436905
1783693597232039400,10.560039306640626,0.04563211649656296,-0.02070547640323639,0.05216372758150101
1783693597242002400,10.57000244140625,0.046221889555454254,-0.021606646478176117,0.07062402367591858
1783693597251964400,10.57996435546875,0.04402105137705803,-0.021725423634052277,0.08562667667865753
1783693597261927400,10.589927490234375,0.039814695715904236,-0.02319682203233242,0.09241464734077454
1783693597271890400,10.599890380859375,0.03087499737739563,-0.021673761308193207,0.08991873264312744
1783693597281852400,10.609852294921875,0.018458714708685875,-0.017421212047338486,0.07793278992176056
1783693597291815400,10.6198154296875,0.007887030020356178,-0.011639755219221115,0.05903473123908043
1783693597301777400,10.62977734375,-0.0015288174618035555,-0.0033581533934921026,0.041767675429582596
1783693597311740400,10.639740478515625,-0.00822959654033184,0.002788156270980835,0.023518899455666542
1783693597321702400,10.649702392578124,-0.011521889828145504,0.007084914017468691,0.0017945750150829554
1783693597331665400,10.65966552734375,-0.01574353314936161,0.013116441667079926,-0.022005563601851463
1783693597341627400,10.66962744140625,-0.026024920865893364,0.02544315904378891,-0.045568425208330154
1783693597351590400,10.67959033203125,-0.03483492508530617,0.03252850100398064,-0.07013209164142609
1783693597361553400,10.689553466796875,-0.04400882124900818,0.03200465813279152,-0.08837752044200897
1783693597371515400,10.699515380859374,-0.04607383534312248,0.027449853718280792,-0.10138892382383347
1783693597381478400,10.709478515625,-0.044890351593494415,0.022413261234760284,-0.10034334659576416
1783693597391440400,10.7194404296875,-0.04110413417220116,0.02305108867585659,-0.09238022565841675
1783693597401403400,10.7294033203125,-0.03688906505703926,0.024021252989768982,-0.07617342472076416
1783693597411365600,10.73936572265625,-0.03342056646943092,0.029512424021959305,-0.059529997408390045
1783693597421329200,10.7493291015625,-0.03110240027308464,0.027089204639196396,-0.0458608902990818
1783693597431291400,10.75929150390625,-0.024377118796110153,0.020354336127638817,-0.03719869256019592
1783693597441254100,10.769254150390625,-0.008318360894918442,0.017147893086075783,-0.027146168053150177
1783693597451217200,10.779217041015626,0.00658522080630064,0.005476856604218483,-0.019920745864510536
1783693597461179100,10.78917919921875,0.015418926253914833,-0.0023970454931259155,-0.0028336364775896072
1783693597471142400,10.799142333984374,0.021040860563516617,-0.0007323035970330238,0.0018774954369291663
1783693597481104100,10.809104248046875,0.021450696513056755,-0.008853050880134106,0.005610364489257336
1783693597491067100,10.819067138671874,0.022411564365029335,-0.010010726749897003,-0.0004544524708762765
1783693597501029400,10.829029296875,0.015976497903466225,-0.0004861617926508188,-0.015926498919725418
1783693597510992400,10.838992431640625,0.007724425755441189,0.013782521709799767,-0.040041957050561905
1783693597520954400,10.848954345703126,0.003250167239457369,-0.00491024786606431,-0.069985531270504
1783693597530917000,10.858917236328125,0.002735910704359412,-0.028826499357819557,-0.08445821702480316
1783693597540880100,10.868880126953124,-0.006890466902405024,-0.03962961956858635,-0.08414459228515625
1783693597550842400,10.87884228515625,-0.012383236549794674,-0.04148637875914574,-0.07493378967046738
1783693597560805400,10.888805419921875,-0.022532891482114792,0.018446436151862144,-0.01987774670124054
1783693597570767000,10.89876708984375,-0.03848655894398689,0.06958312541246414,0.019978854805231094
1783693597580730000,10.908730224609375,-0.0512801893055439,0.06191005930304527,0.027992162853479385
1783693597590692400,10.9186923828125,-0.05362590029835701,0.03193644806742668,0.013306694105267525
1783693597600655400,10.9286552734375,-0.04336230084300041,0.014569489285349846,-0.008098512887954712
1783693597610617000,10.9386171875,-0.03692011162638664,-0.0010275801178067923,-0.03436873108148575
1783693597620580000,10.948580078125,-0.02831108309328556,-0.018268898129463196,-0.03439763933420181
1783693597630543000,10.958543212890625,-0.026247398927807808,-0.009042643010616302,-0.013336827978491783
1783693597640505300,10.96850537109375,-0.030851300805807114,0.011775832623243332,0.01953551173210144
1783693597650468400,10.97846826171875,-0.035556841641664505,0.02939397469162941,0.047363415360450745
1783693597660430000,10.98843017578125,-0.03875347599387169,0.032385192811489105,0.06172509118914604
1783693597670393300,10.998393310546875,-0.04221585392951965,0.03450347110629082,0.06729935854673386
1783693597680355300,11.008355224609375,-0.0535275824368,0.04667757451534271,0.08502914756536484
1783693597690318300,11.018318359375,-0.05296272784471512,0.04039730876684189,0.0841313973069191
1783693597700280000,11.028280029296875,-0.043445199728012085,0.01949971914291382,0.06538750231266022
1783693597710243300,11.038243408203124,-0.04295864328742027,0.009400746785104275,0.044328026473522186
1783693597720205300,11.048205322265625,-0.044165171682834625,0.011682053096592426,0.02693871408700943
1783693597730168300,11.058168212890624,-0.06014467030763626,0.00664894562214613,0.004879217594861984
1783693597740131000,11.068131103515626,-0.06882753223180771,-0.00932065024971962,-0.01609823852777481
1783693597750093300,11.07809326171875,-0.06833964586257935,-0.010310014709830284,-0.035498566925525665
1783693597760056300,11.088056396484374,-0.05826921388506889,-0.017512312158942223,-0.04237905889749527
1783693597770018300,11.098018310546875,-0.04248838871717453,-0.020176006481051445,-0.04228904843330383
1783693597779981000,11.10798095703125,-0.024766379967331886,-0.012795321643352509,-0.036456719040870667
1783693597789943300,11.117943359375,-0.014669271185994148,-0.0063552651554346085,-0.029220912605524063
1783693597799906300,11.12790625,-0.009644757024943829,-0.004181290976703167,-0.021945837885141373
1783693597809868300,11.137868408203126,-0.009680976159870625,0.0007671284838579595,-0.013071917928755283
1783693597819831300,11.147831298828125,-0.016885971650481224,-0.004518740810453892,-0.009603706188499928
1783693597829794000,11.1577939453125,-0.020022375509142876,-0.014416111633181572,-0.013816826976835728
1783693597839756300,11.16775634765625,-0.02111642435193062,-0.0031805247999727726,-0.010158684104681015
1783693597849719300,11.17771923828125,-0.025868302211165428,0.021177012473344803,0.006625622045248747
1783693597859681300,11.187681396484376,-0.023415764793753624,0.03737092763185501,0.02057974971830845
1783693597869644300,11.197644287109375,-0.021851690486073494,0.04770426079630852,0.031155694276094437
1783693597879606300,11.207606201171876,-0.010099750943481922,0.03091515600681305,0.009661274030804634
1783693597889569300,11.2175693359375,0.002374495379626751,0.011987804435193539,-0.01707739569246769
1783693597899531300,11.22753125,0.0019103887025266886,0.011778721585869789,-0.027258792892098427
1783693597909494300,11.237494384765625,-0.012155096046626568,0.011212266981601715,-0.03395664691925049
1783693597919457300,11.247457275390625,-0.024439934641122818,0.02101163938641548,-0.025731688365340233
1783693597929419300,11.257419189453126,-0.04098881781101227,0.02003905363380909,-0.020276468247175217
1783693597939382300,11.26738232421875,-0.04283199459314346,-0.0035626792814582586,-0.026098938658833504
1783693597949344300,11.27734423828125,-0.04344558343291283,0.027787787839770317,-0.006842952221632004
1783693597959307300,11.287307373046875,-0.04785441234707832,0.04021647572517395,0.004093657713383436
1783693597969269200,11.297269287109375,-0.050703730434179306,0.11137080937623978,0.03452054038643837
1783693597979232300,11.307232177734376,-0.03605296462774277,0.08071865141391754,-0.011983445845544338
1783693597989194200,11.3171943359375,-0.015434501692652702,0.04745763540267944,-0.037629421800374985
1783693597999157200,11.3271572265625,-0.018259769305586815,0.028569724410772324,-0.03479393199086189
1783693598009120300,11.337120361328125,-0.020415598526597023,0.01187782920897007,-0.028855081647634506
1783693598019082200,11.347082275390624,-0.024080811068415642,-0.013689114712178707,-0.02415517158806324
1783693598029045200,11.357045166015626,-0.025598013773560524,-0.041992660611867905,-0.022996162995696068
1783693598039007200,11.36700732421875,-0.03155182674527168,-0.05108148604631424,-0.013935616239905357
1783693598048970200,11.37697021484375,-0.04776088893413544,-0.04398149996995926,0.006385368295013905
1783693598058932200,11.38693212890625,-0.04364113137125969,0.012400824576616287,0.050538014620542526
