time,seconds_elapsed,z,y,x
1783693611402449700,0.06644970703125,0.001105253933928907,-0.020877975970506668,0.04410044848918915
1783693611412412700,0.07641259765625,0.0020749608520418406,-0.011665096506476402,0.03612338751554489
1783693611422374400,0.08637451171875,0.0013111662119626999,-0.008846939541399479,0.02503824420273304
1783693611432337400,0.09633740234375,0.001045379787683487,-0.011377156712114811,0.012621412985026836
1783693611442300700,0.10630078125,0.0014760129852220416,-0.00020146765746176243,0.0025581263471394777
1783693611452262700,0.1162626953125,0.0012765784049406648,0.006725396029651165,-0.013432217761874199
1783693611462225700,0.1262255859375,0.00557705108076334,-0.0010022983187809587,-0.03402324765920639
1783693611472187400,0.1361875,0.006768815219402313,-0.0038129985332489014,-0.05218733847141266
1783693611482150700,0.146150634765625,0.007518229074776173,0.0017338334582746029,-0.06327887624502182
1783693611492112600,0.156112548828125,0.0072814952582120895,0.005950438790023327,-0.07596220076084137
1783693611502075600,0.16607568359375,0.007634896785020828,0.005599168129265308,-0.08260226249694824
1783693611512037600,0.17603759765625,0.0016166885616257787,0.005518421996384859,-0.08639954775571823
1783693611522000600,0.186000732421875,-0.0028739336412400007,0.0025894776917994022,-0.07075507193803787
1783693611531962600,0.195962646484375,-0.010867990553379059,0.013951062224805355,-0.05025359243154526
1783693611541925600,0.205925537109375,-0.021139536052942276,0.019877661019563675,-0.0299304760992527
1783693611551888600,0.215888671875,-0.029028387740254402,0.007442580536007881,-0.013899917714297771
1783693611561850600,0.2258505859375,-0.03479333594441414,-0.005868962965905666,0.0011192455422133207
1783693611571813600,0.235813720703125,-0.036611251533031464,-0.0024188836105167866,0.012294183485209942
1783693611581775600,0.245775634765625,-0.031982943415641785,0.0011516164522618055,0.018370451405644417
1783693611591738600,0.255738525390625,-0.020759042352437973,-0.00238606333732605,0.01498651783913374
1783693611601700600,0.26570068359375,-0.007237907964736223,-0.0058889188803732395,0.010940643958747387
1783693611611663600,0.27566357421875,0.00684640696272254,-0.00880297739058733,0.0067163147032260895
1783693611621625600,0.28562548828125,0.018083348870277405,-0.008302569389343262,0.00786679983139038
1783693611631588600,0.295588623046875,0.026315977796912193,-0.007514007389545441,0.011791500262916088
1783693611641551600,0.305551513671875,0.026143671944737434,-0.003699295222759247,0.014607793651521206
1783693611651513600,0.315513671875,0.019613636657595634,-0.00042788602877408266,0.010600341483950615
1783693611661476600,0.3254765625,0.016382424160838127,0.0050672804936766624,0.003762675216421485
1783693611671438600,0.3354384765625,0.011787381023168564,0.012490338645875454,-0.003926222212612629
1783693611681401900,0.34540185546875,0.012869689613580704,0.015497313812375069,-0.01072900090366602
1783693611691363600,0.355363525390625,0.011461826972663403,0.014087427407503128,-0.016806164756417274
1783693611701326600,0.36532666015625,0.016517305746674538,0.017199063673615456,-0.01780644804239273
1783693611711288600,0.37528857421875,0.021496154367923737,0.014926338568329811,-0.024070166051387787
1783693611721251800,0.385251953125,0.02428901195526123,0.011827219277620316,-0.030621541664004326
1783693611731213600,0.395213623046875,0.024236662313342094,0.019437743350863457,-0.03855447098612785
1783693611741176600,0.405176513671875,0.023756228387355804,0.025390440598130226,-0.04239261895418167
1783693611751139600,0.4151396484375,0.02349669486284256,0.029752451926469803,-0.04688555374741554
1783693611761101800,0.425101806640625,0.026538290083408356,0.024215472862124443,-0.042686812579631805
1783693611771064600,0.435064697265625,0.02675636112689972,0.021040674299001694,-0.03671089932322502
1783693611781026600,0.445026611328125,0.024136876687407494,0.020521357655525208,-0.021624090149998665
1783693611790989600,0.454989501953125,0.02419895865023136,0.020456410944461823,-0.0047133201733231544
1783693611800951800,0.464951904296875,0.021210359409451485,0.023370973765850067,0.011133287101984024
1783693611810914600,0.47491455078125,0.01740093156695366,0.026839695870876312,0.024606002494692802
1783693611820876500,0.48487646484375,0.014420054852962494,0.02604900300502777,0.03229880705475807
1783693611830839600,0.494839599609375,0.014678727835416794,0.01884305104613304,0.02862979657948017
1783693611840802600,0.504802490234375,0.018711285665631294,0.012651201337575912,0.01634277030825615
1783693611850764500,0.5147646484375,0.019623106345534325,0.013655751943588257,0.005060227122157812
1783693611860727600,0.5247275390625,0.020158667117357254,0.013464270159602165,-0.0004226888995617628
1783693611870689500,0.534689453125,0.01559848990291357,0.005963750183582306,-0.00904792919754982
1783693611880652500,0.544652587890625,0.01286209188401699,0.002575676655396819,-0.014558807946741581
1783693611890614500,0.554614501953125,0.010315937921404839,0.006490509957075119,-0.010839582420885563
1783693611900577500,0.56457763671875,0.004787747282534838,0.010427195578813553,-0.0026825866661965847
1783693611910539500,0.57453955078125,0.0026150832418352365,0.0060422951355576515,-0.002969191176816821
1783693611920502800,0.584502685546875,-0.004756280221045017,-0.00007871398702263832,-0.0014543849974870682
1783693611930465800,0.5944658203125,-0.006387812551110983,0.0023841504007577896,-0.002971345093101263
1783693611940427500,0.604427490234375,-0.009465627372264862,0.013675155118107796,-0.004474433604627848
1783693611950390500,0.614390625,-0.00979427620768547,0.013423525728285313,-0.013092254288494587
1783693611960352800,0.624352783203125,-0.008474679663777351,0.014166015200316906,-0.01999463513493538
1783693611970315800,0.634315673828125,-0.004844769835472107,0.00907061155885458,-0.02793807163834572
1783693611980277500,0.644277587890625,0.0022197971120476723,0.005018079653382301,-0.03963600844144821
1783693611990240500,0.654240478515625,0.006615971680730581,0.0016417105216532946,-0.05363532528281212
1783693612000202800,0.66420263671875,0.008328650146722794,-0.001275249756872654,-0.06587760895490646
1783693612010165800,0.674165771484375,0.008629968389868736,-0.004123757593333721,-0.07917441427707672
1783693612020127500,0.68412744140625,0.005883450154215097,-0.0014382260851562023,-0.07625505328178406
1783693612030090500,0.694090576171875,0.0007916635368019342,0.007075328845530748,-0.06159622594714165
1783693612040053500,0.704053466796875,-0.005609244108200073,0.011202429421246052,-0.04271121695637703
1783693612050015700,0.714015625,-0.012081257998943329,0.005404195282608271,-0.020225616171956062
1783693612059978800,0.723978759765625,-0.014648279175162315,0.002049677539616823,0.00218195584602654
1783693612069940500,0.7339404296875,-0.022556666284799576,0.005157617852091789,0.0238425824791193
1783693612079903500,0.743903564453125,-0.029106711968779564,0.0006179936463013291,0.03070368431508541
1783693612089865700,0.75386572265625,-0.03609594330191612,-0.00770947802811861,0.019669445231556892
1783693612099828700,0.763828857421875,-0.033947307616472244,-0.01141340285539627,-0.0022451740223914385
1783693612109790500,0.77379052734375,-0.030132383108139038,-0.017123224213719368,-0.03053092397749424
1783693612119753500,0.78375341796875,-0.023274477571249008,-0.02344876527786255,-0.05945098400115967
1783693612129715700,0.7937158203125,-0.019810784608125687,-0.02798967994749546,-0.08245626837015152
1783693612139678700,0.8036787109375,-0.016059989109635353,-0.03374743461608887,-0.09163884818553925
1783693612149641500,0.813641357421875,-0.012066579423844814,-0.02864561602473259,-0.08540146052837372
1783693612159603700,0.823603759765625,-0.015755590051412582,-0.009797360748052597,-0.06422027200460434
1783693612169566700,0.833566650390625,-0.01859086938202381,0.000490669859573245,-0.049086086452007294
1783693612179528700,0.84352880859375,-0.02231663092970848,-0.0024124421179294586,-0.03918099030852318
1783693612189491500,0.853491455078125,-0.02732980251312256,0.0015471639344468713,-0.02703758329153061
1783693612199453700,0.86345361328125,-0.028686150908470154,-0.002573278732597828,-0.0177663192152977
1783693612209416700,0.873416748046875,-0.023053256794810295,-0.012176060117781162,-0.0072847031988203526
1783693612219378700,0.883378662109375,-0.020278509706258774,-0.016501033678650856,0.002152207773178816
1783693612229341400,0.893341552734375,-0.01325996220111847,-0.018807921558618546,0.011218315921723843
1783693612239304400,0.903304443359375,-0.008232712745666504,-0.013825414702296257,0.02170930616557598
1783693612249266700,0.9132666015625,-0.005004026927053928,-0.012300723232328892,0.033752456307411194
1783693612259229700,0.923229736328125,-0.006119358818978071,-0.011475143022835255,0.042470045387744904
1783693612269191400,0.93319140625,-0.00566254323348403,-0.013086380437016487,0.04405263438820839
1783693612279154400,0.943154541015625,-0.004232958424836397,-0.013585456646978855,0.03983578458428383
1783693612289116700,0.95311669921875,-0.0023996385280042887,-0.01750642992556095,0.030779438093304634
1783693612299079700,0.96307958984375,0.0001532677561044693,-0.013466945849359035,0.020196568220853806
1783693612309041400,0.97304150390625,0.004009211901575327,-0.006585597060620785,0.006907867267727852
1783693612319004400,0.98300439453125,0.009960844181478024,-0.007322760298848152,-0.007124594412744045
1783693612328966700,0.992966552734375,0.015937378630042076,-0.008539260365068913,-0.02078654058277607
1783693612338929700,1.0029296875,0.016119806095957756,-0.007321397308260202,-0.03496947139501572
1783693612348892700,1.012892578125,0.015570087358355522,-0.006548060569912195,-0.047234874218702316
1783693612358854700,1.022854736328125,0.011228336952626705,0.0024608809035271406,-0.053371597081422806
1783693612368817700,1.032817626953125,0.0035674762912094593,0.008168024010956287,-0.05015794560313225
1783693612378779600,1.042779541015625,-0.004081654828041792,0.013638689182698727,-0.0407085195183754
1783693612388742700,1.05274267578125,-0.0082603320479393,0.010683950036764145,-0.0266139954328537
1783693612398704600,1.06270458984375,-0.012259334325790405,0.009490055963397026,-0.011750360950827599
1783693612408667600,1.072667724609375,-0.012964294292032719,0.00650542788207531,0.0011297768214717507
1783693612418629600,1.082629638671875,-0.010038545355200768,0.0030963155440986156,0.012541156262159348
1783693612428592600,1.092592529296875,-0.006383252330124378,-0.0038958159275352955,0.021279627457261086
1783693612438555000,1.102554931640625,-0.0033373949117958546,0.00019160367082804441,0.026335906237363815
1783693612448518100,1.11251806640625,0.0000457335845567286,0.0006368931499309838,0.033620547503232956
1783693612458479900,1.12247998046875,0.0054122693836688995,-0.003502191975712776,0.03618144243955612
1783693612468443000,1.13244287109375,0.005410102196037769,-0.005175704136490822,0.03417254611849785
1783693612478406000,1.142406005859375,0.009258902631700039,0.000785781885497272,0.03471849486231804
1783693612488368000,1.1523681640625,0.011032406240701675,0.005665755830705166,0.02927696704864502
1783693612498331100,1.1623310546875,0.01045263558626175,0.0020449222065508366,0.01825813762843609
1783693612508292900,1.17229296875,0.011132901534438133,-0.001765275839716196,0.008181391283869743
1783693612518255900,1.182255859375,0.01241041999310255,-0.0009756486397236586,-0.0028078770264983177
1783693612528218000,1.192218017578125,0.014259577728807926,0.005092384293675423,-0.004002754110842943
1783693612538181000,1.20218115234375,0.015920326113700867,0.008260480128228664,-0.0012237455230206251
1783693612548142800,1.212142822265625,0.016370894387364388,0.009575567208230495,0.0029765176586806774
1783693612558105900,1.22210595703125,0.01692749559879303,0.007508421316742897,0.006525712087750435
1783693612568068000,1.232068115234375,0.016804786399006844,0.007578682154417038,0.007292331662029028
1783693612578031000,1.242031005859375,0.01563699170947075,0.0008571298094466329,0.0003803632571361959
1783693612587994000,1.251994140625,0.012327238917350769,-0.00448759738355875,-0.006624996662139893
1783693612597955800,1.261955810546875,0.008759668096899986,-0.0015650443965569139,-0.007573348470032215
1783693612607919000,1.271919189453125,0.005557573400437832,-0.000447011087089777,-0.006119783967733383
1783693612617881000,1.281881103515625,0.004771674983203411,0.00043236464262008667,-0.002127439249306917
1783693612627844000,1.291843994140625,0.0019781123846769333,0.0022140059154480696,0.008387907408177853
1783693612637805800,1.301805908203125,-0.0010208731982856989,0.006448964588344097,0.018780894577503204
1783693612647769000,1.31176904296875,-0.005929136648774147,0.007997321896255016,0.02597777172923088
1783693612657731000,1.32173095703125,-0.004269454628229141,0.005597281269729137,0.028220953419804573
1783693612667694000,1.331694091796875,-0.0032567845191806555,0.00023104320280253887,0.03223813325166702
1783693612677655800,1.34165576171875,0.002879937645047903,-0.002236908068880439,0.0310911126434803
1783693612687619000,1.351619140625,0.006724894978106022,-0.0017524883151054382,0.02278647944331169
1783693612697582000,1.36158203125,0.010682351887226105,-0.006385322660207748,0.014623359777033329
1783693612707544000,1.3715439453125,0.011891390196979046,-0.01312177162617445,0.009249825030565262
1783693612717506800,1.3815068359375,0.0064313774928450584,-0.012711644172668457,0.0055701350793242455
1783693612727469000,1.391468994140625,0.002466917736455798,-0.008828516118228436,0.007166678085923195
1783693612737432000,1.40143212890625,-0.0011762867216020823,-0.011869313195347786,0.007010350469499826
1783693612747394000,1.41139404296875,-0.004903464112430811,-0.00730569614097476,0.015268411487340927
1783693612757356800,1.421356689453125,-0.0077264150604605675,0.0012286700075492263,0.02069753222167492
1783693612767319000,1.431319091796875,-0.013401470147073269,0.0031325435265898705,0.023190967738628387
1783693612777282000,1.441281982421875,-0.02006683126091957,-0.0017956357914954424,0.016543984413146973
1783693612787244000,1.451244140625,-0.023065976798534393,-0.0019660803955048323,0.006936206482350826
1783693612797206800,1.461206787109375,-0.027231959626078606,-0.001108808908611536,0.002111357171088457
1783693612807169000,1.4711689453125,-0.019368015229701996,-0.0038177738897502422,-0.0033847177401185036
1783693612817132000,1.481132080078125,-0.013318912126123905,-0.008624247275292873,-0.007476132363080978
1783693612827095000,1.491094970703125,-0.008614720776677132,-0.008433258160948753,-0.00707516074180603
1783693612837056800,1.501056884765625,-0.004199466202408075,-0.0039018900133669376,-0.007816052064299583
1783693612847020000,1.51102001953125,-0.0016717496328055859,-0.0011796602047979832,-0.013732041232287884
1783693612856982000,1.52098193359375,-0.000047754074330441654,-0.0015511712990701199,-0.01759149506688118
1783693612866945000,1.530945068359375,-0.0011532281059771776,0.00047129590529948473,-0.02216959558427334
1783693612876907000,1.540906982421875,-0.0017804024973884225,0.004447928164154291,-0.018679257482290268
1783693612886870000,1.5508701171875,-0.006219075992703438,0.004339230712503195,-0.013586392626166344
1783693612896832000,1.56083203125,-0.01038772240281105,0.0027684983797371387,-0.007949279621243477
1783693612906795000,1.570794921875,-0.014526065438985825,0.004205801989883184,-0.003408105345442891
1783693612916757000,1.580757080078125,-0.017241159453988075,0.004064121749252081,-0.0005390818696469069
1783693612926720000,1.590719970703125,-0.01739213429391384,-0.002643344923853874,-0.004271149635314941
1783693612936683000,1.60068310546875,-0.012997118756175041,-0.00926236528903246,-0.010623587295413017
1783693612946645000,1.61064501953125,-0.009089953266084194,-0.010563007555902004,-0.011202078312635422
1783693612956608000,1.62060791015625,-0.002335377736017108,-0.009616786614060402,-0.008937858045101166
1783693612966570000,1.630570068359375,0.0018793035997077823,-0.012343047186732292,-0.006585029885172844
1783693612976533000,1.640532958984375,0.006181906908750534,-0.013903127051889896,-0.0010174252092838287
1783693612986495000,1.650494873046875,0.007927113212645054,-0.01080908440053463,0.0027374401688575745
1783693612996458000,1.6604580078125,0.004938247613608837,-0.006599425803869963,0.005901275668293238
1783693613006420000,1.670419921875,0.0031017991714179516,-0.00490244384855032,0.002678885357454419
1783693613016383000,1.680383056640625,0.0019619662780314684,-0.0005617577116936445,0.0018937854329124093
1783693613026345000,1.690344970703125,0.0032274590339511633,0.0004696398973464966,0.002478668000549078
1783693613036308000,1.700307861328125,0.006410202942788601,0.0008957456448115408,0.003388670040294528
1783693613046270000,1.71027001953125,0.005530560854822397,-0.007160317152738571,0.0014882382238283753
1783693613056233000,1.72023291015625,0.010097615420818329,-0.008177910931408405,-0.0033608456142246723
1783693613066196000,1.730196044921875,0.011736859567463398,-0.005152810364961624,-0.006020775530487299
1783693613076158000,1.740157958984375,0.013573109172284603,-0.008421573787927628,-0.00850843358784914
1783693613086121000,1.750120849609375,0.01666564866900444,-0.01099096518009901,-0.013132459484040737
1783693613096083000,1.7600830078125,0.01510237343609333,-0.008769888430833817,-0.012715141288936138
1783693613106046000,1.7700458984375,0.011901176534593105,-0.004847345408052206,-0.008059957064688206
1783693613116008000,1.780008056640625,0.010146419517695904,-0.0012526105856522918,-0.004845522344112396
1783693613125971200,1.78997119140625,0.009291383437812328,-0.0023833911400288343,-0.004878436215221882
1783693613135933000,1.799932861328125,0.004766938742250204,0.0007985537522472441,-0.002726868726313114
1783693613145896000,1.80989599609375,0.0014187286142259836,0.000288849463686347,0.0001361604081466794
1783693613155858000,1.81985791015625,0.0045130555517971516,-0.004533869214355946,0.0004853007849305868
1783693613165821200,1.8298212890625,0.004218700807541609,-0.005401491187512875,0.00037143361987546086
1783693613175784200,1.8397841796875,0.002937454031780362,-0.0057381149381399155,-0.0027021204587072134
1783693613185746000,1.849745849609375,0.0009503624751232564,-0.008871117606759071,0.0002058043610304594
1783693613195709000,1.859708984375,0.0008177370182238519,-0.010902044363319874,0.0079787727445364
1783693613205671200,1.869671142578125,0.00020537184900604188,-0.013245091773569584,0.009650862775743008
1783693613215634200,1.87963427734375,-0.0013224836438894272,-0.012039744295179844,0.011744639836251736
1783693613225596000,1.889595947265625,-0.0026091979816555977,-0.002044348046183586,0.013160725124180317
1783693613235559000,1.899558837890625,-0.003122122958302498,-0.0013732315273955464,0.011398245580494404
1783693613245521200,1.909521240234375,-0.002782465424388647,-0.00850970670580864,0.004842717200517654
1783693613255484200,1.919484130859375,-0.00014513697533402592,-0.011719348840415478,-0.006371587980538607
1783693613265446000,1.92944580078125,0.0024743848480284214,-0.01063173171132803,-0.011649898253381252
1783693613275409000,1.939408935546875,0.0037974435836076736,-0.011087131686508656,-0.018185827881097794
1783693613285372000,1.949371826171875,0.004366942215710878,-0.012559051625430584,-0.020240627229213715
1783693613295334100,1.959334228515625,0.0033464187290519476,-0.008341137319803238,-0.018521558493375778
1783693613305297000,1.969296875,0.0003146659582853317,-0.0007966796401888132,-0.015554782934486866
1783693613315259000,1.9792587890625,-0.0038087063003331423,0.0049882386811077595,-0.01212223432958126
1783693613325222000,1.989221923828125,-0.0034957171883434057,0.0035623982548713684,-0.010871579870581627
1783693613335184100,1.99918408203125,-0.001598481321707368,0.0006102839834056795,-0.010443076491355896
1783693613345147000,2.00914697265625,-0.00031561049399897456,-0.004250546917319298,-0.011020096018910408
1783693613355108900,2.01910888671875,0.0004236830282025039,-0.009404296055436134,-0.01476290263235569
1783693613365072100,2.029072021484375,0.003036028705537319,-0.006793543696403503,-0.013137908652424812
1783693613375034000,2.0390341796875,0.0033614670392125845,-0.0035918911453336477,-0.011376493610441685
1783693613384996900,2.048996826171875,0.0034922854974865913,-0.0044057490304112434,-0.00834044162184
1783693613394958800,2.058958740234375,0.002509312704205513,-0.0033183800987899303,-0.000039901467971503735
1783693613404922000,2.068922119140625,-0.006656121928244829,0.005818594247102737,0.0023617069236934185
1783693613414885000,2.078885009765625,-0.012345432303845882,0.006155750714242458,-0.0005965324817225337
1783693613424846800,2.088846923828125,-0.019385753199458122,0.0005745751550421119,-0.007806254550814629
1783693613434809900,2.098809814453125,-0.018626220524311066,-0.0011761868372559547,-0.004793420433998108
1783693613444771000,2.10877099609375,-0.017301080748438835,-0.004449471831321716,0.0017043650150299072
1783693613454734000,2.118734130859375,-0.011584337800741196,-0.010094840079545975,0.003604796715080738
1783693613464696000,2.128696044921875,-0.008443593978881836,-0.008114220574498177,0.005535077303647995
1783693613474659300,2.138659423828125,-0.005404128227382898,-0.003504555206745863,0.011268064379692078
1783693613484621000,2.14862109375,-0.00693502789363265,-0.0032702055759727955,0.012609669007360935
1783693613494584000,2.158583984375,-0.008324399590492249,-0.0021343675907701254,0.009624531492590904
1783693613504546000,2.168546142578125,-0.010426166467368603,0.0007889842963777483,0.00598931685090065
1783693613514509300,2.17850927734375,-0.015648091211915016,0.0024987338110804558,0.00009920378215610981
1783693613524471000,2.188470947265625,-0.01563524268567562,0.0006622333312407136,-0.0025010721292346716
1783693613534434000,2.19843408203125,-0.015656014904379845,-0.0032416945323348045,-0.005863579455763102
1783693613544397000,2.20839697265625,-0.008225214667618275,-0.004295247606933117,-0.005918645299971104
1783693613554359300,2.218359375,-0.007062478922307491,0.002372508868575096,-0.0022280369885265827
1783693613564322300,2.228322265625,-0.0016186818247660995,0.00395392719656229,-0.003234220203012228
1783693613574284000,2.238283935546875,0.000646869302727282,0.005973935127258301,-0.006771697197109461
1783693613584247000,2.2482470703125,0.0012388189788907766,0.004904597532004118,-0.011116551235318184
1783693613594209300,2.258209228515625,0.003699579741805792,0.00212585530243814,-0.017454607412219048
1783693613604172300,2.26817236328125,-0.006261859089136124,0.013429384678602219,-0.018833495676517487
1783693613614134000,2.278134033203125,-0.012974089942872524,0.019116565585136414,-0.03185901790857315
1783693613624097000,2.288096923828125,-0.01711328700184822,0.015485665760934353,-0.035872090607881546
1783693613634059300,2.298059326171875,-0.011364853009581566,0.012030214071273804,-0.030762016773223877
1783693613644022300,2.308022216796875,-0.004193475935608149,0.009469810873270035,-0.021463757380843163
1783693613653984000,2.31798388671875,0.0002984780294355005,0.003311250824481249,-0.01446390338242054
1783693613663947000,2.327947021484375,-0.0005397501518018544,0.004446853883564472,-0.005889787804335356
1783693613673910000,2.337909912109375,-0.009079975076019764,0.009482092224061489,0.0047511388547718525
1783693613683872300,2.347872314453125,-0.013020846992731094,0.010847725905478,0.01342174131423235
1783693613693835000,2.3578349609375,-0.015107699669897556,0.01165146753191948,0.014312302693724632
1783693613703797000,2.367796875,-0.014182250946760178,0.00970389787107706,0.015540019609034061
1783693613713760300,2.37776025390625,-0.01655353046953678,0.0023636934347450733,0.013558628037571907
1783693613723722200,2.38772216796875,-0.015559695661067963,0.0010627348674461246,0.014865126460790634
1783693613733685000,2.39768505859375,-0.012126880697906017,0.0015381091507151723,0.014771649613976479
1783693613743647000,2.40764697265625,-0.005590853281319141,0.001456665457226336,0.008465545251965523
1783693613753610200,2.4176103515625,-0.0006208622362464666,0.007829876616597176,0.0012624935479834676
1783693613763572200,2.427572265625,-0.000048892354243434966,0.01205815002322197,-0.007559515535831451
1783693613773535000,2.437534912109375,0.004429745487868786,0.007672722917050123,-0.013404088094830513
1783693613783497200,2.447497314453125,0.006969571113586426,0.004521903581917286,-0.016943657770752907
1783693613793460200,2.457460205078125,0.006041459273546934,0.001023042481392622,-0.021465705707669258
1783693613803423200,2.46742333984375,0.00462255859747529,0.0009418497211299837,-0.022071344777941704
1783693613813385000,2.477385009765625,0.001955402782186866,0.002680094912648201,-0.014763898216187954
1783693613823348000,2.487347900390625,-0.0008855530177243054,0.008609354496002197,-0.005989206023514271
1783693613833310200,2.497310302734375,-0.001155064906924963,0.013879484497010708,0.00217764382250607
1783693613843273200,2.507273193359375,-0.003522301558405161,0.013570550829172134,0.001435748185031116
1783693613853235000,2.51723486328125,-0.003666112432256341,0.008233043365180492,0.003009942825883627
1783693613863198000,2.527197998046875,-0.002646795939654112,0.007104415446519852,0.0036145630292594433
1783693613873160200,2.53716015625,0.000029947288567200303,-0.002501073759049177,0.001957011641934514
1783693613883123200,2.547123291015625,0.008564893156290054,-0.007970946840941906,0.004133674316108227
1783693613893085000,2.5570849609375,0.011811019852757454,-0.003412147518247366,0.013679509051144123
1783693613903048000,2.5670478515625,0.013501537032425404,-0.0006493888795375824,0.023284951224923134
1783693613913010200,2.57701025390625,0.012006704695522785,-0.0027740588411688805,0.027572108432650566
1783693613922973200,2.58697314453125,0.009359141811728477,-0.0033088303171098232,0.02932863123714924
1783693613932936200,2.596936279296875,0.0014159977436065674,0.00026193587109446526,0.022431310266256332
1783693613942898000,2.60689794921875,-0.003490923438221216,0.0009447770426049829,0.01179485023021698
1783693613952861200,2.616861083984375,-0.009509400464594364,-0.0005172983510419726,-0.000863153487443924
1783693613962823200,2.6268232421875,-0.011343494988977909,0.0016446264926344156,-0.011864852160215378
1783693613972786200,2.6367861328125,-0.012579468078911304,0.0024952401872724295,-0.01613656058907509
1783693613982748000,2.646747802734375,-0.014536488801240921,0.005859376862645149,-0.016559401527047157
1783693613992711200,2.656711181640625,-0.012404894456267357,0.005342723336070776,-0.017141301184892654
1783693614002673200,2.666673095703125,-0.007535702548921108,0.0019115377217531204,-0.01923048309981823
1783693614012636200,2.67663623046875,-0.007142353802919388,-0.0009478983702138066,-0.019932491704821587
1783693614022598100,2.68659814453125,-0.007044551428407431,0.0007652664789929986,-0.01731683872640133
1783693614032561200,2.69656103515625,-0.008305558003485203,-0.0006273003527894616,-0.015602828934788704
1783693614042523100,2.706523193359375,-0.008932712487876415,0.000963960716035217,-0.01347845233976841
1783693614052486100,2.716486083984375,-0.010811039246618748,-0.0032654053065925837,-0.016095006838440895
1783693614062449200,2.72644921875,-0.006885608192533255,-0.004621502477675676,-0.017944874241948128
1783693614072411100,2.7364111328125,-0.0022418538574129343,-0.0037293434143066406,-0.01987539976835251
1783693614082374100,2.7463740234375,0.0015627779066562653,-0.0033889473415911198,-0.024482455104589462
1783693614092336000,2.756336181640625,0.004582802765071392,-0.0012544236378744245,-0.023172447457909584
1783693614102299100,2.766299072265625,0.007185005117207766,-0.001324493670836091,-0.019334210082888603
1783693614112261000,2.77626123046875,0.0066792708821594715,-0.0010041152127087116,-0.017901962623000145
1783693614122224000,2.78622412109375,0.004087245091795921,0.003067358396947384,-0.015561617910861969
1783693614132186000,2.79618603515625,0.0015868034679442644,0.004136617295444012,-0.012959175743162632
1783693614142149000,2.806149169921875,-0.005024389363825321,-0.0001835644943639636,-0.012662657536566257
1783693614152111000,2.816111083984375,-0.009976803325116634,-0.002694126218557358,-0.016042208299040794
1783693614162074000,2.82607421875,-0.010435591451823711,-0.0050462656654417515,-0.015200233086943626
1783693614172036000,2.8360361328125,-0.008000929839909077,-0.002762604970484972,-0.01058976911008358
1783693614181999000,2.8459990234375,-0.008327584713697433,0.001987950410693884,-0.0044233896769583225
1783693614191961000,2.855961181640625,-0.002960250014439225,0.0050154319033026695,-0.0033743707463145256
1783693614201924000,2.865924072265625,0.0008511617197655141,0.0022204467095434666,-0.003355038585141301
1783693614211887000,2.87588720703125,0.005286389961838722,-0.0007998442742973566,-0.009822258725762367
1783693614221849000,2.88584912109375,0.011246325448155403,0.0004148168954998255,-0.017435641959309578
1783693614231812000,2.89581201171875,0.01597902737557888,0.0015091098612174392,-0.02159762941300869
1783693614241774000,2.905774169921875,0.020250046625733376,-0.001637683599255979,-0.019928785040974617
1783693614251737000,2.915737060546875,0.020309435203671455,0.0008086962625384331,-0.011358998715877533
1783693614261699000,2.925698974609375,0.01713917963206768,0.0013195192441344261,-0.0022143248934298754
1783693614271662300,2.935662353515625,0.010983815416693687,0.0052207838743925095,0.001047514844685793
1783693614281624000,2.9456240234375,0.000055284384870901704,0.013986805453896523,0.0022636158391833305
1783693614291587000,2.955587158203125,-0.007723542861640453,0.02077307179570198,-0.003684554249048233
1783693614301549300,2.96554931640625,-0.012491360306739807,0.011851792223751545,-0.019151980057358742
1783693614311512300,2.97551220703125,-0.013724403455853462,0.0051624649204313755,-0.028020840138196945
1783693614321474000,2.98547412109375,-0.013812129385769367,0.002554904203861952,-0.03309254348278046
1783693614331437000,2.99543701171875,-0.008271423168480396,0.004358929581940174,-0.03807425498962402
1783693614341400000,3.005400146484375,-0.003212185110896826,0.004726745188236237,-0.03598158434033394
1783693614351362300,3.0153623046875,0.0006006626645103097,0.008820556104183197,-0.034208450466394424
1783693614361325000,3.025324951171875,0.004842555616050959,0.012333810329437256,-0.03563644737005234
1783693614371287000,3.035287109375,0.009024517610669136,0.007911364547908306,-0.03690890595316887
1783693614381250000,3.04525,0.011308815330266953,0.009577702730894089,-0.02978244610130787
1783693614391212300,3.05521240234375,0.01487691793590784,0.0031307218596339226,-0.02323027141392231
1783693614401175000,3.065175048828125,0.018948910757899284,-0.004234228283166885,-0.008598892018198967
1783693614411137000,3.075136962890625,0.021791568025946617,-0.006666227243840694,0.006401096470654011
1783693614421100000,3.08510009765625,0.023407984524965286,-0.004341839347034693,0.01934078149497509
1783693614431062300,3.095062255859375,0.022867096588015556,-0.0031175841577351093,0.029042677953839302
1783693614441026000,3.105026123046875,0.0200949814170599,-0.00646787416189909,0.03235835209488869
1783693614450987800,3.11498779296875,0.016864566132426262,-0.00785884354263544,0.02835562266409397
1783693614460950800,3.12495068359375,0.010369498282670975,-0.003861962351948023,0.023802511394023895
1783693614470913000,3.1349130859375,0.0006572161801159382,0.002601795829832554,0.021875182166695595
1783693614480876000,3.1448759765625,-0.006359111052006483,0.003175156656652689,0.020183881744742393
1783693614490838800,3.1548388671875,-0.013831408694386482,-0.0007000091718509793,0.014363810420036316
1783693614500800800,3.16480078125,-0.012698213569819927,0.0031621293164789677,0.0069346302188932896
1783693614510763800,3.174763671875,-0.01335015520453453,0.0042596179991960526,0.0024597204755991697
1783693614520726000,3.18472607421875,-0.008213966153562069,-0.0031839576549828053,-0.0042910268530249596
1783693614530688800,3.194688720703125,-0.0007965306285768747,-0.011178234592080116,-0.010671960189938545
1783693614540650800,3.204650634765625,0.007809134665876627,-0.012702325358986855,-0.01738540455698967
1783693614550613800,3.21461376953125,0.013138920068740845,-0.01393856480717659,-0.01805306039750576
1783693614560576000,3.224575927734375,0.015062760561704636,-0.014791012741625309,-0.014496495947241783
1783693614570538800,3.234538818359375,0.01244194246828556,-0.012555822730064392,-0.008994937874376774
1783693614580500700,3.244500732421875,0.009722787886857986,-0.003920272458344698,0.005085160490125418
1783693614590464000,3.254464111328125,0.006925137713551521,-0.0017886782297864556,0.013136428780853748
1783693614600426000,3.264426025390625,0.0067243073135614395,-0.0037178434431552887,0.01621149107813835
1783693614610388700,3.274388671875,0.008465749211609364,-0.010928617790341377,0.02113514393568039
1783693614620350700,3.284350830078125,0.010282594710588455,-0.014151327311992645,0.024376818910241127
1783693614630314000,3.29431396484375,0.01437267754226923,-0.010228224098682404,0.023210620507597923
1783693614640277000,3.304277099609375,0.015641100704669952,-0.007176819257438183,0.02117069438099861
1783693614650238700,3.31423876953125,0.018649142235517502,-0.003931757528334856,0.01796025037765503
1783693614660201700,3.32420166015625,0.02005298063158989,-0.002359389327466488,0.01402144506573677
1783693614670164000,3.3341640625,0.02222026139497757,-0.004098966252058744,0.003707022638991475
1783693614680127000,3.344126953125,0.019542641937732697,-0.00302493991330266,-0.004732822999358177
1783693614690088700,3.354088623046875,0.01744886487722397,-0.003525081556290388,-0.011801651678979397
1783693614700051700,3.3640517578125,0.014291336759924889,-0.001908252015709877,-0.018339313566684723
1783693614710014000,3.374013916015625,0.010665176436305046,0.0012113748816773295,-0.017162462696433067
1783693614719977000,3.38397705078125,0.00802476704120636,0.005408525932580233,-0.015021451748907566
1783693614729939000,3.39393896484375,0.009907089173793793,0.009814726188778877,-0.013441665098071098
1783693614739901700,3.403901611328125,0.0174565427005291,0.011487757787108421,-0.015843989327549934
1783693614749864000,3.413864013671875,0.020267775282263756,0.012411342933773994,-0.01912473700940609
1783693614759827000,3.423826904296875,0.02440730668604374,0.00482955202460289,-0.023820428177714348
1783693614769789000,3.433788818359375,0.0309648085385561,-0.0005857194773852825,-0.025681445375084877
1783693614779751700,3.443751708984375,0.033531248569488525,0.001641222508624196,-0.022694770246744156
1783693614789714700,3.453714599609375,0.032275568693876266,0.0010707734618335962,-0.019325606524944305
1783693614799677000,3.463677001953125,0.02830919809639454,0.0016742257867008448,-0.01714961789548397
1783693614809640000,3.473639892578125,0.024419916793704033,0.009591271169483662,-0.016993025317788124
1783693614819601700,3.4836015625,0.02093474380671978,0.011214998550713062,-0.019261397421360016
1783693614829565000,3.49356494140625,0.021933963522315025,0.00664474768564105,-0.023659341037273407
1783693614839527000,3.50352685546875,0.023089030757546425,0.0025972796138375998,-0.02609155885875225
1783693614849490000,3.513489990234375,0.02431834675371647,-0.00030370173044502735,-0.023411884903907776
1783693614859451600,3.52345166015625,0.02366558462381363,-0.0009764385176822543,-0.02047971822321415
1783693614869415000,3.533414794921875,0.021825607866048813,0.0032004632521420717,-0.017337987199425697
1783693614879377000,3.543376953125,0.012370712123811245,0.010151333175599575,-0.015800993889570236
1783693614889340000,3.55333984375,0.010097703896462917,0.016012152656912804,-0.020416785031557083
1783693614899302000,3.563302001953125,0.007261000573635101,0.013477670028805733,-0.025260815396904945
1783693614909265000,3.573264892578125,0.007757147774100304,0.012246224097907543,-0.03133894503116608
1783693614919228000,3.583227783203125,0.009189795702695847,0.0034295329824090004,-0.03513988107442856
1783693614929190000,3.59318994140625,0.013609576970338821,-0.009293452836573124,-0.038729287683963776
1783693614939153000,3.60315283203125,0.01837047189474106,-0.01695721223950386,-0.03925507143139839
1783693614949115000,3.613114990234375,0.022213414311408997,-0.014627479948103428,-0.03341608867049217
1783693614959078000,3.623077880859375,0.02319732867181301,-0.00786653347313404,-0.020534196868538857
1783693614969040000,3.633039794921875,0.019655857235193253,-0.0033705844543874264,-0.007447689305990934
1783693614979003000,3.6430029296875,0.015522296540439129,0.0004385190550237894,0.002199843991547823
1783693614988964900,3.65296484375,0.01144260074943304,-0.0018432773649692535,0.009982666000723839
1783693614998928000,3.662927978515625,0.0048585617914795876,0.0015586311928927898,0.023906860500574112
1783693615008889900,3.672889892578125,-0.002158601302653551,0.007302803453058004,0.03509480133652687
1783693615018852900,3.682852783203125,-0.008530470542609692,0.009618699550628662,0.034246303141117096
1783693615028814800,3.69281494140625,-0.010371247306466103,0.004002891480922699,0.028686420992016792
1783693615038777900,3.70277783203125,-0.006565389223396778,-0.0002900778781622648,0.02507421374320984
1783693615048739800,3.71273974609375,-0.0019256300292909145,-0.002527932170778513,0.018853865563869476
1783693615058702800,3.722702880859375,-0.00003465297049842775,-0.011038361117243767,0.005007225554436445
1783693615068665900,3.732665771484375,0.0036777935456484556,-0.015622725710272789,-0.009671319276094437
1783693615078627800,3.7426279296875,0.0044839694164693356,-0.009290279820561409,-0.010491764172911644
1783693615088590800,3.7525908203125,0.0022109616547822952,-0.005550135858356953,-0.009290944784879684
1783693615098552800,3.762552734375,-0.0037611760199069977,-0.005131958052515984,-0.011207752861082554
1783693615108516000,3.77251611328125,-0.00642300583422184,-0.006684846710413694,-0.006955749820917845
1783693615118477800,3.782477783203125,-0.006795201916247606,0.0009642313816584647,0.005379173438996077
1783693615128440800,3.79244091796875,-0.006871634628623724,0.0003437148407101631,0.013608873821794987
1783693615138402800,3.80240283203125,-0.006123266648501158,-0.006040658801794052,0.015742838382720947
1783693615148366000,3.812365966796875,-0.002402298152446747,-0.005072866566479206,0.013952660374343395
1783693615158327800,3.822327880859375,-0.0028042460326105356,0.0032646656036376953,0.020437704399228096
1783693615168290800,3.832290771484375,-0.003813317744061351,0.005194658413529396,0.02510196343064308
1783693615178253000,3.842253173828125,-0.001966190990060568,0.0025165388360619545,0.02347082830965519
1783693615188216000,3.852216064453125,-0.0052738371305167675,-0.0034425505436956882,0.012896216474473476
1783693615198177800,3.862177734375,-0.0039940220303833485,-0.0062790182419121265,0.005445786751806736
1783693615208140800,3.872140869140625,-0.00170183926820755,-0.0026251617819070816,-0.0006568465614691377
1783693615218103000,3.88210302734375,-0.0016297247493639588,-0.0030757728964090347,-0.006432492285966873
1783693615228066000,3.892066162109375,-0.0005450192256830633,0.001219639671035111,-0.006354727782309055
1783693615238028800,3.90202880859375,-0.0013525942340493202,0.005408528260886669,-0.0035433380398899317
1783693615247990800,3.91199072265625,-0.005251462105661631,0.003264683298766613,-0.009590578265488148
1783693615257953800,3.921953857421875,-0.01261255331337452,-0.0011143613373860717,-0.013969708234071732
1783693615267916000,3.931916015625,-0.016729533672332764,0.0017535967053845525,-0.014943893998861313
1783693615277878800,3.941878662109375,-0.021151628345251083,0.0013402497861534357,-0.010111185722053051
1783693615287840800,3.9518408203125,-0.019795548170804977,-0.007678811904042959,-0.009637941606342793
1783693615297803800,3.9618037109375,-0.017208894714713097,-0.002485079225152731,-0.0010576524073258042
1783693615307766000,3.97176611328125,-0.01355370506644249,0.006977398414164782,0.012540713883936405
1783693615317728800,3.981728759765625,-0.014448887668550014,0.00680244155228138,0.0175864826887846
1783693615327690800,3.991690673828125,-0.014284837059676647,0.006197371520102024,0.020692527294158936
1783693615337653800,4.00165380859375,-0.015514296479523182,0.015104006044566631,0.02159528248012066
1783693615347616000,4.011615966796875,-0.0154168251901865,0.013568427413702011,0.01979045942425728
1783693615357578800,4.021578857421875,-0.012730730697512627,0.004009576048702002,0.019787224009633064
1783693615367540700,4.031540771484375,-0.00809017289429903,-0.0065993922762572765,0.011191871017217636
1783693615377503700,4.041503662109375,-0.004943991545587778,-0.008826619945466518,0.0039911954663693905
1783693615387467000,4.051467041015625,-0.0002589583455119282,-0.004004701040685177,0.003549110610038042
1783693615397428700,4.0614287109375,0.001284667057916522,0.002913130447268486,-0.0010637028608471155
1783693615407391700,4.071391845703125,-0.0004274792445357889,0.004220742732286453,-0.007370068691670895
1783693615417354000,4.08135400390625,-0.003951364196836948,0.004945932421833277,-0.010821804404258728
1783693615427317000,4.09131689453125,-0.0043873232789337635,0.011113546788692474,-0.013820524327456951
1783693615437279000,4.101279052734375,-0.00336734252050519,0.008102094754576683,-0.012351908721029758
1783693615447241200,4.1112412109375,-0.0003047072677873075,-0.0034192726016044617,-0.011312210001051426
1783693615457203500,4.121203369140625,0.004522831179201603,-0.005038564559072256,-0.00010035012383013964
1783693615467166200,4.131166259765625,0.008434748277068138,0.0008235852583311498,0.0139917666092515
1783693615477128200,4.141128173828125,0.011382109485566616,0.00036902830470353365,0.026329606771469116
1783693615487091200,4.15109130859375,0.013593065552413464,0.005044473800808191,0.03536198288202286
1783693615497053400,4.161053466796875,0.01274341344833374,0.011306633241474628,0.03782156854867935
1783693615507016200,4.17101611328125,0.013841966167092323,0.006564608309417963,0.03148191422224045
1783693615516979200,4.180979248046875,0.01200077123939991,0.00916998740285635,0.021999558433890343
1783693615526941200,4.190941162109375,0.011650032363831997,0.011660309508442879,0.012528026476502419
1783693615536904400,4.200904541015625,0.010910719633102417,0.013212909922003746,0.009822548367083073
1783693615546866200,4.2108662109375,0.009325074031949043,0.014590563252568245,0.0033851556945592165
1783693615556829200,4.2208291015625,0.004597628954797983,0.011537234298884869,-0.009855050593614578
1783693615566791400,4.23079150390625,-0.002487177960574627,0.009838936850428581,-0.021446991711854935
1783693615576754400,4.24075439453125,-0.007710435893386602,0.011794761754572392,-0.03163358196616173
1783693615586716200,4.250716064453125,-0.009709936566650867,0.014193205162882805,-0.03803795203566551
1783693615596679200,4.26067919921875,-0.012369026429951191,0.01572960801422596,-0.040782853960990906
1783693615606641400,4.270641357421875,-0.012697127647697926,0.008595799095928669,-0.0394001379609108
1783693615616604400,4.2806044921875,-0.011679048649966717,0.009483437053859234,-0.030134795233607292
1783693615626566100,4.290566162109375,-0.010881698690354824,0.009553744457662106,-0.01641205884516239
1783693615636529200,4.300529052734375,-0.010802012868225574,0.0035264831967651844,-0.00693035963922739
1783693615646491400,4.310491455078125,-0.011718406341969967,-0.00043843116145581007,0.006017130799591541
1783693615656454400,4.320454345703125,-0.012786848470568657,-0.001170840347185731,0.012758226133883
1783693615666416000,4.330416015625,-0.01726122573018074,-0.0018334349151700735,0.02018844522535801
1783693615676379100,4.340379150390625,-0.018130376935005188,-0.0028283940628170967,0.02509942278265953
1783693615686342100,4.350342041015625,-0.017271507531404495,0.0009050914668478072,0.03467908129096031
1783693615696304400,4.360304443359375,-0.01913434825837612,0.003007701365277171,0.048467010259628296
1783693615706267400,4.370267333984375,-0.013814418576657772,0.0014521490084007382,0.05859287828207016
1783693615716229000,4.38022900390625,-0.006864225026220083,0.005147797986865044,0.0617811344563961
1783693615726192000,4.390192138671875,-0.0012191225541755557,0.001188476337119937,0.053671542555093765
1783693615736154400,4.400154296875,0.0031643742695450783,-0.0048360805958509445,0.03793848678469658
1783693615746117400,4.410117431640625,0.006615031976252794,-0.007025997620075941,0.019089166074991226
1783693615756079000,4.4200791015625,0.009199628606438637,-0.00782234501093626,-0.000014622462913393974
1783693615766042000,4.4300419921875,0.010361033491790295,-0.0012778927339240909,-0.014020719565451145
1783693615776004400,4.44000439453125,0.011100336909294128,-0.0018238297197967768,-0.024411853402853012
1783693615785967400,4.44996728515625,0.011785035952925682,-0.0006565663497895002,-0.025504283607006073
1783693615795929000,4.45992919921875,0.012857375666499138,0.0019503934308886528,-0.01440512202680111
1783693615805892400,4.469892333984375,0.01073883194476366,0.00658402731642127,-0.003582568373531103
1783693615815854300,4.479854248046875,0.007416632026433945,0.008297225460410118,0.0073631457053124905
1783693615825817300,4.4898173828125,-0.00025327151524834335,0.007820253260433674,0.015658359974622726
1783693615835780400,4.4997802734375,-0.00424222880974412,0.008852530270814896,0.021337134763598442
1783693615845742300,4.509742431640625,-0.0005620063748210669,0.0069552939385175705,0.02457740344107151
1783693615855705300,4.519705322265625,0.008437400683760643,-0.0034425437916070223,0.023104850202798843
1783693615865667300,4.529667236328125,0.015904106199741364,-0.009239180013537407,0.026731543242931366
1783693615875630300,4.53963037109375,0.020601850003004074,0.000888857408426702,0.028989754617214203
1783693615885592300,4.54959228515625,0.027224332094192505,-0.0005471190670505166,0.02897830307483673
1783693615895555300,4.559555419921875,0.03188630938529968,-0.009197589941322803,0.01928156428039074
1783693615905517300,4.569517333984375,0.034065309911966324,-0.017436612397432327,0.003142541740089655
1783693615915480300,4.579480224609375,0.03311382606625557,-0.017032328993082047,-0.01321136299520731
1783693615925442300,4.5894423828125,0.028445838019251823,-0.015177703462541103,-0.02913546934723854
1783693615935405300,4.5994052734375,0.019804544746875763,-0.01435588113963604,-0.0403921864926815
1783693615945367300,4.6093671875,0.017123807221651077,-0.015414487570524216,-0.04261299595236778
1783693615955330300,4.619330322265625,0.01743212714791298,-0.013414951972663403,-0.033861998468637466
1783693615965292300,4.629292236328125,0.012608610093593597,-0.0015460420399904251,-0.018997831270098686
1783693615975255300,4.63925537109375,0.008050038479268551,0.008377179503440857,-0.007392384111881256
1783693615985217300,4.64921728515625,0.0003966463264077902,0.004865801893174648,0.004195295739918947
1783693615995180300,4.65918017578125,0.0007080649374984205,-0.0027915979735553265,0.014274151995778084
1783693616005143000,4.66914306640625,0.0007988786674104631,-0.0051386416889727116,0.020256144925951958
1783693616015105300,4.679105224609375,0.0020998804830014706,-0.005583662539720535,0.02560543268918991
1783693616025068300,4.689068359375,0.002813873812556267,-0.010667105205357075,0.02968859113752842
1783693616035030300,4.6990302734375,0.0034772767685353756,-0.017110077664256096,0.032578907907009125
1783693616044993300,4.7089931640625,0.004370501264929771,-0.01984621025621891,0.03472674638032913
1783693616054955300,4.718955322265625,0.0016425387002527714,-0.017693882808089256,0.03368197754025459
1783693616064918300,4.728918212890625,-0.0026454171165823936,-0.014033899642527103,0.02759665623307228
1783693616074880300,4.73888037109375,-0.0064085680060088634,-0.008137392811477184,0.023081956431269646
1783693616084843500,4.748843505859375,-0.007550265174359083,-0.006928849965333939,0.014913775026798248
1783693616094805200,4.75880517578125,-0.006854180712252855,-0.00525980070233345,0.004100111313164234
1783693616104768300,4.768768310546875,-0.006414493080228567,-0.008795146830379963,-0.0008038333617150784
1783693616114730200,4.778730224609375,-0.0022128522396087646,-0.01208551600575447,-0.004060305189341307
1783693616124693500,4.788693603515625,-0.000834133941680193,-0.013357175514101982,-0.007404702715575695
1783693616134655200,4.7986552734375,0.0028100027702748775,-0.012825044803321362,-0.011240119114518166
1783693616144618200,4.8086181640625,0.0008421931997872889,-0.013299886137247086,-0.012882224284112453
1783693616154581200,4.818581298828125,0.0006335912621580064,-0.005842528305947781,-0.011404722929000854
1783693616164543500,4.82854345703125,0.0009331969195045531,0.004235671833157539,-0.008436896838247776
1783693616174506200,4.83850634765625,0.0037490418180823326,0.0021202985662966967,-0.007175753824412823
1783693616184468200,4.84846826171875,0.006496891379356384,-0.003422272391617298,-0.00734033714979887
1783693616194431200,4.85843115234375,0.011053883470594883,-0.007783194072544575,-0.009924620389938354
1783693616204393500,4.8683935546875,0.01121686864644289,-0.008710772730410099,-0.006609517149627209
1783693616214356200,4.878356201171875,0.01082959771156311,-0.0071624042466282845,-0.003261186182498932
1783693616224318200,4.888318115234375,0.012671173550188541,-0.0024960138835012913,0.0011503401910886168
1783693616234281200,4.89828125,0.013437574729323387,0.002727505983784795,0.003060311311855912
1783693616244243500,4.908243408203125,0.012830373831093311,0.004100631922483444,0.008303808979690075
1783693616254206200,4.918206298828125,0.01504190918058157,0.0008907170849852264,0.0039024639409035444
1783693616264168200,4.928168212890625,0.015177730470895767,0.0012726143468171358,-0.0016486288513988256
1783693616274131200,4.938131103515625,0.011629554443061352,-0.0025921582709997892,-0.008133754134178162
1783693616284093400,4.948093505859375,0.0074941981583833694,-0.002437428804114461,-0.0196833498775959
1783693616294056200,4.95805615234375,0.0043617975898087025,0.00537975924089551,-0.023172371089458466
1783693616304018200,4.96801806640625,0.0020453804172575474,0.013896281830966473,-0.02921108901500702
1783693616313981200,4.977981201171875,0.004597459454089403,0.012498949654400349,-0.03462245315313339
1783693616323944400,4.9879443359375,0.009159721434116364,0.006750250235199928,-0.03393775597214699
1783693616333906200,4.99790625,0.013949834741652012,0.0089987488463521,-0.03657517954707146
1783693616343869200,5.007869140625,0.0178750678896904,0.005227446090430021,-0.03437807410955429
1783693616353831200,5.0178310546875,0.01840049959719181,0.0017251120880246162,-0.030935924500226974
1783693616363794400,5.02779443359375,0.016261447221040726,0.002911550458520651,-0.02896731346845627
1783693616373756200,5.037756103515625,0.015721557661890984,0.0024089962244033813,-0.031039820984005928
1783693616383719200,5.04771923828125,0.011728947050869465,0.002672382863238454,-0.04205012694001198
1783693616393681400,5.057681396484375,0.009610935114324093,0.006368318106979132,-0.04693862795829773
1783693616403644400,5.06764453125,0.007038588635623455,0.012600647285580635,-0.042916189879179
1783693616413606100,5.077606201171875,0.004941045306622982,0.0030553629621863365,-0.03827623650431633
1783693616423569200,5.087569091796875,0.001075466861948371,0.007079932373017073,-0.027603352442383766
1783693616433531400,5.097531494140625,-0.0029590700287371874,0.015697646886110306,-0.017067449167370796
1783693616443496000,5.107495849609375,-0.0030043437145650387,0.0031757294200360775,-0.0135129289701581
1783693616453458200,5.117458251953125,0.0019503055373206735,0.0009128390811383724,-0.005616281181573868
1783693616463421200,5.127421142578125,0.006143452599644661,0.00318345008417964,-0.002610903698951006
1783693616473384000,5.137384033203125,0.014783117920160294,-0.005695264786481857,0.002618322381749749
1783693616483346000,5.147345947265625,0.022203484550118446,-0.005031338892877102,0.011337511241436005
1783693616493309000,5.157308837890625,0.02219465747475624,0.002268936252221465,0.022586362436413765
1783693616503271200,5.167271240234375,0.019162915647029877,0.006054352968931198,0.031791578978300095
1783693616513234000,5.17723388671875,0.018721923232078552,0.004541116300970316,0.037369657307863235
1783693616523196000,5.18719580078125,0.017656126990914345,0.005172818433493376,0.04222273454070091
1783693616533159000,5.197158935546875,0.014514557085931301,0.0042284633964300156,0.03933949023485184
1783693616543121200,5.20712109375,0.017146557569503784,-0.0074878474697470665,0.039693690836429596
1783693616553084000,5.217083984375,0.018642665818333626,-0.016565503552556038,0.03815433382987976
1783693616563046000,5.2270458984375,0.01632997766137123,-0.011925743892788887,0.04060763865709305
1783693616573009000,5.2370087890625,0.0064893197268247604,-0.0023405051324516535,0.03798337280750275
1783693616582971100,5.24697119140625,-0.0021736768539994955,0.00091867137234658,0.03517080843448639
1783693616592934000,5.256933837890625,-0.013512455858290195,0.0034529375843703747,0.02227301150560379
1783693616602896000,5.266895751953125,-0.015321275219321251,0.0032800985500216484,0.00403541699051857
1783693616612859100,5.276859130859375,-0.020447734743356705,-0.004621214233338833,-0.010727999731898308
1783693616622821000,5.286821044921875,-0.017627980560064316,-0.012920157052576542,-0.010779931209981441
1783693616632784000,5.296783935546875,-0.01783689670264721,-0.008939815685153008,-0.006655310280621052
1783693616642747000,5.306746826171875,-0.016495995223522186,-0.005770121701061726,-0.0033087823539972305
1783693616652709000,5.316709228515625,-0.020167237147688866,-0.0008437709184363484,-0.002634885720908642
1783693616662672100,5.326672119140625,-0.024330558255314827,0.0038330061361193657,-0.002653261413797736
1783693616672633900,5.3366337890625,-0.021989362314343452,0.0007860945188440382,-0.00720168836414814
1783693616682596900,5.346596923828125,-0.01699167490005493,-0.0004738470306620002,-0.008993729017674923
1783693616692559000,5.35655908203125,-0.01361349318176508,0.0011483019916340709,-0.0006711604073643684
1783693616702522000,5.366522216796875,-0.009666954167187214,0.00020128197502344847,0.0025387476198375225
1783693616712483800,5.37648388671875,-0.004761963151395321,-0.007509389892220497,0.005234427750110626
1783693616722446800,5.38644677734375,-0.004920421168208122,-0.008958149701356888,0.010653694160282612
1783693616732409000,5.3964091796875,-0.0034036561846733093,-0.005497651174664497,0.014333240687847137
1783693616742372000,5.4063720703125,-0.004351475276052952,-0.0033572688698768616,0.016586007550358772
1783693616752333800,5.416333740234375,-0.0010393777629360557,-0.0036059729754924774,0.012487518601119518
1783693616762296800,5.426296875,0.004486148711293936,-0.005572717636823654,0.010733827017247677
1783693616772259000,5.436259033203125,0.0031118339393287897,-0.008108599111437798,0.007997880689799786
1783693616782222000,5.44622216796875,0.003508378751575947,-0.007612985093146563,0.00519197341054678
1783693616792185000,5.45618505859375,-0.0007278738194145262,-0.009108368307352066,-0.006439839489758015
1783693616802146800,5.466146728515625,-0.0036291214637458324,-0.008432457223534584,-0.01649247296154499
1783693616812109800,5.47610986328125,-0.010094515047967434,-0.0078039332292973995,-0.029421662911772728
1783693616822072000,5.486072021484375,-0.015178755857050419,-0.008314462378621101,-0.03298524022102356
1783693616832035000,5.49603515625,-0.020351890474557877,-0.006787134334445,-0.0336267463862896
1783693616841996800,5.505996826171875,-0.022434482350945473,0.0018665414536371827,-0.026114769279956818
1783693616851960000,5.5159599609375,-0.025266630575060844,0.007912673987448215,-0.016065385192632675
1783693616861922000,5.525922119140625,-0.028109021484851837,0.0034050075337290764,-0.010207762010395527
1783693616871885000,5.535885009765625,-0.02590063214302063,-0.0007851616246625781,-0.00687828566879034
1783693616881846800,5.5458466796875,-0.024287289008498192,-0.0041005308739840984,-0.005749104544520378
1783693616891810000,5.55581005859375,-0.02177487313747406,-0.008172515779733658,-0.0075352732092142105
1783693616901772000,5.56577197265625,-0.015316974371671677,-0.006648388225585222,-0.008805867284536362
1783693616911735000,5.575735107421875,-0.011689788661897182,-0.006951766088604927,-0.00023895641788840294
1783693616921697000,5.585697021484375,-0.006771196611225605,-0.005087819881737232,0.007030940614640713
1783693616931660000,5.595659912109375,-0.008016831241548061,-0.007056925445795059,0.017188886180520058
1783693616941623000,5.605623046875,-0.01239906344562769,-0.010625561699271202,0.023298444226384163
1783693616951585000,5.6155849609375,-0.015721917152404785,-0.011629277840256691,0.029659314081072807
1783693616961548000,5.625548095703125,-0.019469784572720528,-0.0038616363890469074,0.03195629268884659
1783693616971510000,5.635510009765625,-0.019777748733758926,0.00401280028745532,0.029686370864510536
1783693616981473000,5.64547314453125,-0.014841048046946526,0.0048088189214468,0.031363628804683685
1783693616991435000,5.65543505859375,-0.012226072140038013,0.005293802358210087,0.024194369092583656
1783693617001398000,5.66539794921875,-0.0040411134250462055,0.004532138351351023,0.012363010086119175
1783693617011360000,5.675360107421875,0.001975700259208679,0.0028441501781344414,-0.0004134067567065358
1783693617021323000,5.685322998046875,0.008045043796300888,0.00016820605378597975,-0.010091600008308887
1783693617031285000,5.695284912109375,0.011863797903060913,0.004032978788018227,-0.01715104654431343
1783693617041248000,5.705248046875,0.013424410484731197,0.00910363718867302,-0.02346060797572136
1783693617051210000,5.7152099609375,0.011604358442127705,0.007705750875174999,-0.028362484648823738
1783693617061173000,5.725173095703125,0.009731091558933258,0.0038737282156944275,-0.028632529079914093
1783693617071135000,5.735135009765625,0.007829624228179455,0.00720564229413867,-0.023969639092683792
1783693617081098000,5.745097900390625,0.0007986124255694449,0.009985716082155704,-0.014369743876159191
1783693617091060000,5.75506005859375,-0.0033582879696041346,0.013322628103196621,-0.00418386235833168
1783693617101023000,5.76502294921875,-0.006237697787582874,0.01834028959274292,0.006879707798361778
1783693617110986000,5.774986083984375,-0.0071368953213095665,0.014673640951514244,0.011091134510934353
1783693617120948000,5.784947998046875,-0.006974442861974239,0.005254572723060846,0.01399051770567894
1783693617130911000,5.794910888671875,-0.004946587141603231,-0.0009431156795471907,0.021335331723093987
1783693617140873000,5.804873046875,0.0001288651255890727,-0.005185530986636877,0.029653450474143028
1783693617150836000,5.8148359375,0.003260343335568905,-0.01001887209713459,0.037133004516363144
1783693617160798000,5.8247978515625,0.005699798930436373,-0.01218562014400959,0.046826910227537155
1783693617170761200,5.83476123046875,0.006215947680175304,-0.008567743003368378,0.050541579723358154
1783693617180723000,5.844722900390625,0.002899779472500086,-0.0023529906757175922,0.05080150440335274
1783693617190686000,5.85468603515625,0.0014646394411101937,-0.0015892140800133348,0.047169558703899384
1783693617200648200,5.864648193359375,-0.002801212016493082,-0.0022089313715696335,0.039837077260017395
1783693617210611200,5.874611083984375,-0.005698245484381914,-0.002354600001126528,0.031160704791545868
1783693617220573000,5.884572998046875,-0.0031871513929218054,-0.00540684862062335,0.022556031122803688
1783693617230536000,5.894535888671875,-0.0017663352191448212,-0.009011414833366871,0.021624162793159485
1783693617240498200,5.904498291015625,0.0028409333899617195,-0.0010142086539417505,0.020546380430459976
1783693617250461200,5.914461181640625,0.004408089444041252,0.002071853494271636,0.0187156293541193
1783693617260423000,5.9244228515625,0.00400249008089304,0.001963995397090912,0.01967330276966095
1783693617270386000,5.934385986328125,0.003281372832134366,0.003147785784676671,0.01645676977932453
1783693617280349000,5.944348876953125,0.0024046602193266153,-0.0011971615022048354,0.00937569048255682
1783693617290311200,5.954311279296875,-0.0008580550784245133,-0.0054609086364507675,0.006355645135045052
1783693617300274000,5.96427392578125,-0.00019625954155344516,-0.00815150048583746,0.008176182396709919
1783693617310236000,5.97423583984375,0.0022404079791158438,-0.00868974532932043,0.009160137735307217
1783693617320199000,5.984198974609375,0.004126725252717733,-0.007214619778096676,0.013923734426498413
1783693617330161200,5.9941611328125,0.00497570401057601,-0.005747467279434204,0.014837922528386116
1783693617340124000,6.0041240234375,0.001845956896431744,-0.0014667020877823234,0.015424351207911968
1783693617350086000,6.0140859375,0.005100483074784279,0.003449534997344017,0.01222195290029049
1783693617360049000,6.024048828125,0.006176133640110493,-0.00023867667187005281,0.003314478788524866
1783693617370011100,6.03401123046875,0.00893887784332037,-0.009747515432536602,-0.003835547948256135
1783693617379974000,6.043973876953125,0.011250501498579979,-0.017602508887648582,-0.003270691493526101
1783693617389935900,6.053935791015625,0.01005270704627037,-0.013391532003879547,0.0013311072252690792
1783693617399899000,6.06389892578125,0.007446537259966135,-0.004162879660725594,0.0058041526935994625
1783693617409861000,6.073861083984375,0.000015918820281513035,0.0036556595005095005,0.010446109808981419
1783693617419823900,6.083823974609375,0.0011424359399825335,0.0005301735363900661,0.011270091868937016
1783693617429785900,6.093785888671875,-0.004442260600626469,-0.0034725512377917767,0.01258962694555521
1783693617439749000,6.1037490234375,-0.007263879757374525,-0.0059114741161465645,0.01298404112458229
1783693617449710600,6.113710693359375,-0.010627909563481808,-0.005715500097721815,0.017427675426006317
1783693617459672600,6.123672607421875,-0.00901083741337061,-0.005005235318094492,0.019239159300923347
1783693617469635800,6.1336357421875,-0.0035961181856691837,-0.0064002214930951595,0.01450461708009243
1783693617479597600,6.14359765625,-0.0004956662305630744,-0.005165579728782177,0.008045652881264687
1783693617489560600,6.153560546875,0.003032110398635268,-0.003771361894905567,0.0018820739351212978
1783693617499522600,6.1635224609375,0.0030329094734042883,-0.002009947318583727,-0.005561727564781904
1783693617509485800,6.17348583984375,0.0040917531587183475,-0.0034238523803651333,-0.01591232791543007
1783693617519447600,6.183447509765625,0.004206269048154354,-0.004777004476636648,-0.020633844658732414
1783693617529410600,6.19341064453125,0.010034492239356041,-0.0048281350173056126,-0.022308817133307457
1783693617539372800,6.203372802734375,0.01653021015226841,-0.005632942076772451,-0.013623449951410294
1783693617549335800,6.213335693359375,0.01833418570458889,-0.004321328829973936,-0.0048348139971494675
1783693617559297500,6.223297607421875,0.020111845806241035,-0.008036172017455101,0.003126706462353468
1783693617569260500,6.233260498046875,0.013601502403616905,-0.005280843935906887,0.014532198198139668
1783693617579222800,6.243222900390625,0.002610103925690055,0.0010817142901942134,0.02498617023229599
1783693617589185800,6.253185791015625,-0.006354934070259333,0.004568014293909073,0.030749838799238205
1783693617599148500,6.2631484375,-0.016592657193541527,0.008301233872771263,0.036462053656578064
1783693617609110500,6.273110595703125,-0.01991988718509674,0.007616288028657436,0.036842431873083115
1783693617619073500,6.283073486328125,-0.021045606583356857,0.005106791853904724,0.03561711311340332
1783693617629035800,6.293035888671875,-0.017027799040079117,0.002837248146533966,0.029964711517095566
1783693617638998500,6.30299853515625,-0.008154945448040962,0.0008726342348381877,0.02036454901099205
1783693617648960500,6.31296044921875,-0.00028683501295745373,0.003363237949088216,0.009151076897978783
1783693617658923500,6.322923583984375,0.006834723986685276,0.005427187774330378,-0.0005486884620040655
1783693617668885800,6.3328857421875,0.01373489759862423,0.0022872942499816418,-0.009299056604504585
1783693617678848500,6.3428486328125,0.015149302780628204,0.004929682705551386,-0.014532968401908875
1783693617688810500,6.352810546875,0.013627050444483757,0.009110590443015099,-0.023116616532206535
1783693617698773500,6.3627734375,0.01611577346920967,0.002715009031817317,-0.0252402201294899
1783693617708735700,6.37273583984375,0.016692839562892914,0.0024425231385976076,-0.020449940115213394
1783693617718698500,6.382698486328125,0.0150480717420578,0.006577612832188606,-0.015172884799540043
1783693617728660500,6.392660400390625,0.01175358984619379,0.006194659974426031,-0.009037665091454983
1783693617738623700,6.402623779296875,0.005175049416720867,0.008021322079002857,-0.00143167725764215
1783693617748586800,6.412586669921875,0.0018541817553341389,0.008977383375167847,0.008620013482868671
1783693617758548500,6.422548583984375,0.001363893854431808,0.007283612620085478,0.015996171161532402
1783693617768511500,6.432511474609375,0.002726626815274358,-0.0022690948098897934,0.01786240004003048
1783693617778473700,6.4424736328125,0.0026416718028485775,-0.004404683597385883,0.02268431894481182
1783693617788436700,6.452436767578125,0.002536739455536008,-0.0031141783110797405,0.02847628854215145
1783693617798398700,6.462398681640625,0.0027260901406407356,-0.001315479283221066,0.031131725758314133
1783693617808361500,6.472361572265625,0.0030847815796732903,0.0024614338763058186,0.03522546589374542
1783693617818323700,6.48232373046875,0.002104471903294325,0.0038055311888456345,0.03789901360869408
1783693617828286700,6.49228662109375,0.0009732656762935221,0.005072128027677536,0.032383181154727936
1783693617838248700,6.502248779296875,0.005036983173340559,0.005178654566407204,0.025114350020885468
1783693617848211500,6.51221142578125,0.0007032888825051486,0.007053003180772066,0.014602355659008026
1783693617858173700,6.522173583984375,-0.004542605951428413,0.006101721897721291,-0.00014516524970531464
1783693617868136700,6.53213671875,-0.0068617709912359715,-0.00014469772577285767,-0.012890391051769257
1783693617878099700,6.542099609375,-0.009670606814324856,0.0003186922986060381,-0.020168811082839966
1783693617888061400,6.5520615234375,-0.011111433617770672,0.002964804880321026,-0.022201647982001305
1783693617898024400,6.5620244140625,-0.014493116177618504,0.00554514117538929,-0.025101032108068466
1783693617907986700,6.571986572265625,-0.01606244407594204,0.008241290226578712,-0.024138683453202248
1783693617917949700,6.58194970703125,-0.015201709233224392,0.00948738306760788,-0.022243844345211983
1783693617927911400,6.591911376953125,-0.014643281698226929,0.011326047591865063,-0.015508518554270267
1783693617937874400,6.60187451171875,-0.014257922768592834,0.008685790002346039,-0.006468418054282665
1783693617947836700,6.611836669921875,-0.013688533566892147,0.010270584374666214,0.00708079244941473
1783693617957799700,6.621799560546875,-0.014454725198447704,0.010420520789921284,0.017487093806266785
1783693617967761400,6.631761474609375,-0.014022944495081902,0.009660277515649796,0.02056400664150715
1783693617977724700,6.641724609375,-0.01016242615878582,0.010914626531302929,0.018446527421474457
1783693617987686700,6.651686767578125,-0.00430146511644125,0.0078122904524207115,0.010004224255681038
1783693617997649700,6.661649658203125,-0.000761857780162245,0.0007226893794722855,-0.002589065581560135
1783693618007612700,6.67161279296875,0.0055199493654072285,-0.001006772043183446,-0.012151991948485374
1783693618017574700,6.68157470703125,0.012806357815861702,0.0020454770419746637,-0.019797926768660545
1783693618027537700,6.69153759765625,0.018528509885072708,-0.0026126825250685215,-0.027150779962539673
1783693618037499600,6.701499755859375,0.021399663761258125,-0.0030965786427259445,-0.030336985364556313
1783693618047462700,6.711462646484375,0.02021893300116062,0.004438311792910099,-0.028406897559762
1783693618057424600,6.721424560546875,0.01434613112360239,0.010141205042600632,-0.029140865430235863
1783693618067387600,6.7313876953125,0.006755484268069267,0.015460072085261345,-0.030066154897212982
1783693618077349600,6.741349609375,0.00044006400275975466,0.022151798009872437,-0.031091738492250443
1783693618087312600,6.751312744140625,-0.006467852275818586,0.01996188424527645,-0.03517192229628563
1783693618097274600,6.761274658203125,-0.011748900637030602,0.015162868425250053,-0.03488882631063461
1783693618107237600,6.771237548828125,-0.01283927634358406,0.009733454324305058,-0.030794769525527954
1783693618117200600,6.78120068359375,-0.012933818623423576,0.0047946227714419365,-0.023200232535600662
1783693618127162600,6.79116259765625,-0.009770876727998257,0.003807668574154377,-0.01970149576663971
1783693618137125600,6.801125732421875,-0.005897841416299343,0.0037408231291919947,-0.016680404543876648
1783693618147087600,6.811087646484375,-0.004365515895187855,-0.0008251710096374154,-0.020630987361073494
1783693618157050600,6.821050537109375,-0.005725592374801636,-0.005472387187182903,-0.020741507411003113
1783693618167012600,6.8310126953125,-0.0034680988173931837,-0.011198731139302254,-0.0204017236828804
1783693618176975600,6.8409755859375,-0.004517383873462677,-0.013001691550016403,-0.016379818320274353
1783693618186937600,6.8509375,-0.007658313028514385,-0.013179262168705463,-0.0060527389869093895
1783693618196900600,6.860900634765625,-0.01081788633018732,-0.00834376085549593,0.0016499218763783574
1783693618206862600,6.870862548828125,-0.01347491517663002,-0.0031562403310090303,0.01228084322065115
1783693618216825600,6.88082568359375,-0.01768590696156025,0.0015852515352889895,0.013977277092635632
1783693618226787600,6.89078759765625,-0.019856572151184082,0.00290886964648962,0.010338354855775833
1783693618236750600,6.90075048828125,-0.021267514675855637,0.003745634574443102,0.004336921498179436
1783693618246713600,6.910713623046875,-0.02155740186572075,0.005641241557896137,-0.002144483383744955
1783693618256675800,6.92067578125,-0.014517067931592464,0.007811184972524643,-0.010968601331114769
1783693618266638600,6.930638671875,-0.008613764308393002,0.008337139151990414,-0.021396292373538017
1783693618276600600,6.9406005859375,-0.0019614549819380045,-0.0005421062232926488,-0.03358478099107742
1783693618286563600,6.9505634765625,0.006453230977058411,-0.008578192442655563,-0.03979991003870964
1783693618296525800,6.96052587890625,0.010886595584452152,-0.0034694508649408817,-0.034102607518434525
1783693618306488600,6.970488525390625,0.01170023251324892,0.004670279566198587,-0.02055995538830757
1783693618316450600,6.980450439453125,0.010408067144453526,0.0032082044053822756,-0.011708671227097511
1783693618326413600,6.99041357421875,0.008788901381194592,0.0020031060557812452,-0.0039627933874726295
1783693618336375800,7.000375732421875,0.007951869629323483,0.0036436133086681366,0.006141239777207375
1783693618346338600,7.010338623046875,0.011196325533092022,0.0037594963796436787,0.009773376397788525
1783693618356301600,7.020301513671875,0.00841412041336298,-0.0017263490008190274,0.01704780012369156
1783693618366263600,7.030263671875,0.011346976272761822,-0.008488470688462257,0.01471923477947712
1783693618376226600,7.0402265625,0.011881472542881966,-0.003821813967078924,0.013679536990821362
1783693618386188500,7.0501884765625,0.009489605203270912,-0.0015266769332811236,0.012685777619481087
1783693618396151600,7.060151611328125,0.005402451381087303,-0.00011413637548685074,0.0008831804734654725
1783693618406113500,7.070113525390625,0.007037559989839792,0.004136038478463888,-0.0077362870797514915
1783693618416076500,7.08007666015625,0.004488116130232811,0.009851980954408646,-0.012298282235860825
1783693618426038500,7.09003857421875,0.004468434490263462,0.0029876541811972857,-0.017854081466794014
1783693618436001500,7.10000146484375,0.007861302234232426,-0.009701775386929512,-0.023328209295868874
1783693618445964000,7.109964111328125,0.010447626933455467,-0.014610012993216515,-0.02084914594888687
1783693618455927000,7.119927001953125,0.012767505832016468,-0.01856374181807041,-0.017807815223932266
1783693618465889300,7.12988916015625,0.013950937427580357,-0.013903388753533363,-0.011213023215532303
1783693618475852000,7.13985205078125,0.016152573749423027,-0.005786340218037367,-0.0062345098704099655
1783693618485815000,7.14981494140625,0.016117596998810768,-0.003912311978638172,-0.0006533314008265734
1783693618495777000,7.159777099609375,0.015540490858256817,-0.006510757841169834,-0.0023138122633099556
1783693618505740300,7.169740234375,0.013903513550758362,-0.008452452719211578,-0.0046778651885688305
1783693618515702000,7.179701904296875,0.013148507103323936,-0.01119843777269125,-0.002682092599570751
1783693618525665000,7.1896650390625,0.012068620882928371,-0.012057071551680565,0.0009265776025131345
1783693618535627000,7.199626953125,0.014700623229146004,-0.005615150555968285,0.008180228993296623
1783693618545590300,7.20959033203125,0.010210476815700531,-0.0021248161792755127,0.015656473115086555
1783693618555552000,7.219552001953125,0.009121510200202465,-0.0024459934793412685,0.020944446325302124
1783693618565515000,7.229514892578125,0.00978824496269226,-0.0014651084784418344,0.015064509585499763
1783693618575477200,7.239477294921875,0.00822044163942337,0.003609278704971075,0.005884593352675438
1783693618585440300,7.249440185546875,0.0087363226339221,0.003382081864401698,-0.006749355234205723
1783693618595403300,7.2594033203125,0.004584987182170153,0.001945306546986103,-0.020280610769987106
1783693618605365000,7.269364990234375,0.0015875054523348808,-0.005257199052721262,-0.031777333468198776
1783693618615328000,7.279327880859375,-0.002806976670399308,-0.01016327366232872,-0.03937959298491478
1783693618625290200,7.289290283203125,-0.002104805549606681,-0.016615845263004303,-0.04320826008915901
1783693618635253200,7.299253173828125,-0.00313731306232512,-0.02190381847321987,-0.041654571890830994
1783693618645215000,7.309215087890625,-0.007132921367883682,-0.018455039709806442,-0.03434343263506889
1783693618655178000,7.319177978515625,-0.00780936423689127,-0.008071108721196651,-0.025924116373062134
1783693618665140200,7.32914013671875,-0.010685207322239876,-0.006100637838244438,-0.015797868371009827
1783693618675103200,7.339103271484375,-0.011213312856853008,-0.006501710508018732,-0.006257626228034496
1783693618685065000,7.34906494140625,-0.009074689820408821,-0.005387978628277779,0.00834619253873825
1783693618695028000,7.359028076171875,-0.005422431044280529,-0.003713649231940508,0.02267000451683998
1783693618704990200,7.368990234375,-0.0020205453038215637,-0.005250274669378996,0.03362058103084564
1783693618714953200,7.378953125,-0.0024589013773947954,-0.009840765967965126,0.034369464963674545
1783693618724916200,7.388916259765625,-0.0008728698594495654,-0.016317350789904594,0.029767727479338646
1783693618734878000,7.3988779296875,0.0010179744567722082,-0.017542937770485878,0.016986684873700142
1783693618744841200,7.40884130859375,0.00551869161427021,-0.01422940194606781,0.006753670517355204
1783693618754803200,7.41880322265625,0.006055318284779787,-0.011964649893343449,-0.0021823004353791475
1783693618764766200,7.42876611328125,0.0050536771304905415,-0.009028485976159573,-0.01004963181912899
1783693618774728000,7.43872802734375,0.006422542035579681,-0.009327825158834457,-0.012164447456598282
1783693618784691200,7.448691162109375,0.004665738437324762,-0.0066870590671896935,-0.013904421590268612
1783693618794653200,7.458653076171875,-0.000508783501572907,0.0013024238869547844,-0.009729650802910328
1783693618804616200,7.4686162109375,-0.008425562642514706,0.005446835421025753,-0.00589363370090723
1783693618814578200,7.478578125,-0.012890884652733803,0.0034542579669505358,-0.005019317381083965
1783693618824541200,7.488541259765625,-0.012233340181410313,0.0064798868261277676,-0.006285397335886955
1783693618834503200,7.498503173828125,-0.012142259627580643,0.0108128497377038,-0.001816080417484045
1783693618844466200,7.508466064453125,-0.010470567271113396,0.009933976456522942,-0.0021369047462940216
1783693618854429000,7.518428955078125,-0.0052046990022063255,0.008736353367567062,-0.0010119857033714652
1783693618864391200,7.52839111328125,0.004350555129349232,0.004716360941529274,-0.0061372434720396996
1783693618874354200,7.538354248046875,0.009572748094797134,0.003952566534280777,-0.017404278740286827
1783693618884316200,7.548316162109375,0.01000973116606474,0.0002888112794607878,-0.03010217845439911
1783693618894279000,7.55827880859375,0.014371455647051334,-0.002099778037518263,-0.04279933124780655
1783693618904241200,7.5682412109375,0.01828577183187008,-0.0028566482942551374,-0.04745373874902725
1783693618914204200,7.5782041015625,0.015300367027521133,-0.0026364049408584833,-0.03871670365333557
1783693618924166100,7.588166259765625,0.010957951657474041,0.004137909039855003,-0.023056980222463608
1783693618934129000,7.59812890625,0.0022337031550705433,0.013041389174759388,-0.011908456683158875
1783693618944091100,7.608091064453125,-0.003198440885171294,0.01543079037219286,-0.0049984753131866455
1783693618954054100,7.61805419921875,-0.009192417375743389,0.016562635079026222,-0.006236845627427101
1783693618964017200,7.62801708984375,-0.012094562873244286,0.016860859468579292,-0.011393253691494465
1783693618973979100,7.637979248046875,-0.011493753641843796,0.019101643934845924,-0.017862604930996895
1783693618983942100,7.647942138671875,-0.00688083516433835,0.012730034068226814,-0.02902945689857006
1783693618993904000,7.657904052734375,-0.0002644777996465564,0.004610056057572365,-0.038495395332574844
1783693619003867100,7.6678671875,0.008421577513217926,-0.0017971891211345792,-0.039418403059244156
1783693619013829000,7.6778291015625,0.01915331929922104,-0.002183081116527319,-0.03631901741027832
1783693619023792000,7.687792236328125,0.022765401750802994,0.00007606064900755882,-0.02663595601916313
1783693619033754000,7.697754150390625,0.022715333849191666,-0.002565262373536825,-0.02030003070831299
1783693619043717000,7.707717041015625,0.01604112796485424,-0.004678485449403524,-0.009264204651117325
1783693619053679000,7.71767919921875,0.008374152705073357,0.004369604401290417,0.002608167938888073
1783693619063642000,7.72764208984375,0.0013888438697904348,0.006478830240666866,0.012471075169742107
1783693619073604000,7.73760400390625,-0.001633577630855143,0.0029293689876794815,0.023906955495476723
1783693619083567000,7.747567138671875,-0.004849455319344997,0.007002080790698528,0.034075986593961716
1783693619093529300,7.757529296875,-0.005548002198338509,0.008581334725022316,0.03615511581301689
1783693619103492000,7.7674921875,-0.005797818768769503,0.003578157164156437,0.031100476160645485
1783693619113455000,7.777455078125,-0.004765843972563744,0.0010867699747905135,0.021299775689840317
1783693619123417000,7.7874169921875,-0.0037637564819306135,-0.0051253861747682095,0.008205093443393707
1783693619133380000,7.797380126953125,-0.0052665784023702145,-0.011827231384813786,-0.002675251569598913
1783693619143342000,7.807342041015625,0.0010556250344961882,-0.01881800778210163,-0.010777836665511131
1783693619153305000,7.81730517578125,-0.00020005536498501897,-0.010741439647972584,-0.0050062332302331924
1783693619163267000,7.82726708984375,-0.0022300684358924627,-0.0005814717151224613,0.006125875748693943
1783693619173230000,7.83722998046875,-0.001909956568852067,0.002244408708065748,0.009910760447382927
1783693619183192000,7.847192138671875,-0.004329020623117685,0.005209030583500862,0.010585242882370949
1783693619193155000,7.857155029296875,-0.008940016850829124,0.004362411797046661,0.005803803913295269
1783693619203117000,7.867116943359375,-0.011118561960756779,0.0016227909363806248,0.002334215445443988
1783693619213080000,7.877080078125,-0.01112761627882719,-0.0027695607859641314,-0.004870434291660786
1783693619223043300,7.887043212890625,-0.011036704294383526,-0.01321682520210743,-0.005287756212055683
1783693619233005000,7.897005126953125,-0.008461694233119488,-0.013846131041646004,0.00539711257442832
1783693619242968000,7.906968017578125,-0.009356468915939331,-0.008734200149774551,0.017149969935417175
1783693619252930000,7.916929931640625,-0.009847022593021393,-0.006655336357653141,0.01844985969364643
1783693619262893300,7.926893310546875,-0.011030939407646656,-0.0036174484994262457,0.022894224151968956
1783693619272855000,7.93685498046875,-0.014146571978926659,0.0021056844852864742,0.021745337173342705
1783693619282818000,7.946818115234375,-0.017518000677227974,0.0005594220710918307,0.0116814486682415
1783693619292780300,7.9567802734375,-0.021257080137729645,-0.010067123919725418,0.0028067303355783224
1783693619302743300,7.966743408203125,-0.02007574960589409,-0.011726798489689827,-0.008551979437470436
1783693619312705000,7.976705078125,-0.01567673869431019,-0.00461189728230238,-0.01011339109390974
1783693619322668000,7.98666796875,-0.012119383551180363,-0.0003492285031825304,-0.007514800410717726
1783693619332630300,7.99663037109375,-0.008450613357126713,-0.001972691621631384,-0.011845898814499378
1783693619342593300,8.00659326171875,-0.0028995773755013943,0.0019299003761261702,-0.013332257978618145
1783693619352556300,8.016556396484376,-0.001823660102672875,0.005145400762557983,-0.016429780051112175
1783693619362518000,8.02651806640625,0.0003162741777487099,0.0008622145978733897,-0.026807449758052826
1783693619372481000,8.03648095703125,-0.0004768152139149606,-0.008796538226306438,-0.03749924153089523
1783693619382443300,8.046443359375,-0.003526913234964013,-0.009450587444007397,-0.03484676033258438
1783693619392406300,8.05640625,-0.007134165149182081,-0.0062089888378977776,-0.01944516785442829
1783693619402368000,8.066367919921875,-0.012957757338881493,-0.006005527451634407,-0.008412006311118603
1783693619412331000,8.0763310546875,-0.015796685591340065,-0.006057192571461201,0.001909074722789228
1783693619422293200,8.086293212890626,-0.015201166272163391,-0.003532799892127514,0.015719769522547722
1783693619432256300,8.09625634765625,-0.015237385407090187,-0.00016576552297919989,0.025835521519184113
1783693619442218000,8.106218017578126,-0.01757797971367836,0.0021834131330251694,0.024875232949852943
1783693619452180700,8.1161806640625,-0.016101257875561714,-0.003238516394048929,0.020496463403105736
1783693619462143000,8.12614306640625,-0.012577703222632408,-0.00515542458742857,0.018246209248900414
1783693619472106000,8.13610595703125,-0.010933468118309975,-0.003321038791909814,0.014474640600383282
1783693619482067700,8.146067626953124,-0.008173178881406784,-0.00585346482694149,0.004868597723543644
1783693619492031000,8.156031005859376,-0.00005027111910749227,-0.006258266046643257,0.0037902838084846735
1783693619501994000,8.165993896484375,0.0030272777657955885,-0.0006965200882405043,0.0017361876089125872
1783693619511956000,8.1759560546875,0.004938628524541855,0.001967439893633127,-0.005888176150619984
1783693619521918700,8.185918701171875,0.004410182125866413,0.0012018163688480854,-0.010427683591842651
1783693619531881000,8.195880859375,0.0014570028288289905,0.002225002972409129,-0.013099899515509605
1783693619541844000,8.205843994140626,0.0003857826814055443,0.005072406027466059,-0.013818681240081787
1783693619551806000,8.215805908203125,-0.0014318247558549047,0.001375139458104968,-0.015497538261115551
1783693619561768700,8.225768798828126,-0.0032723352778702974,0.006296394858509302,-0.00968865118920803
1783693619571731000,8.23573095703125,-0.004662505351006985,0.011214721016585827,-0.002700249897316098
1783693619581694000,8.24569384765625,-0.004042663145810366,0.00583355687558651,-0.0015981514006853104
1783693619591656000,8.255656005859375,-0.0012689807917922735,-0.004147703759372234,0.002663971623405814
1783693619601618700,8.26561865234375,-0.00017622865561861545,-0.005744264926761389,0.014481264166533947
1783693619611581000,8.275580810546876,0.00324886292219162,-0.005112296435981989,0.02380472607910633
1783693619621544000,8.2855439453125,0.006449591368436813,-0.005076896399259567,0.031563229858875275
1783693619631507000,8.2955068359375,0.008184907957911491,-0.0029200026765465736,0.04091758280992508
1783693619641468700,8.30546875,0.00898829847574234,-0.004284315276890993,0.03973367437720299
1783693619651431700,8.315431640625,0.009035969153046608,-0.004826535005122423,0.03783990070223808
1783693619661394000,8.325393798828125,0.010174544528126717,-0.002674736548215151,0.03449911251664162
1783693619671357000,8.33535693359375,0.009636851958930492,-0.0019796513952314854,0.027368230745196342
1783693619681318700,8.345318603515626,0.011565418913960457,-0.0033540953882038593,0.016657941043376923
1783693619691282000,8.355281982421875,0.013367846608161926,-0.00010903365910053253,0.004992496222257614
1783693619701244000,8.365243896484374,0.012144181877374649,0.001353046391159296,-0.006260643247514963
1783693619711207000,8.37520703125,0.014282166957855225,0.001790071139112115,-0.015027769841253757
1783693619721168600,8.385168701171875,0.013047070242464542,0.0007994017214514315,-0.02236795239150524
1783693619731132000,8.3951318359375,0.00915539264678955,0.0019304462475702167,-0.027091069146990776
1783693619741094000,8.405093994140625,0.006575825158506632,0.0033948852214962244,-0.02496209926903248
1783693619751057000,8.415056884765624,-0.000024286724510602653,0.007279638200998306,-0.02502548135817051
1783693619761019000,8.425018798828125,-0.0017695814603939652,0.0074149067513644695,-0.02102309837937355
1783693619770982000,8.43498193359375,-0.006931853014975786,0.005675596185028553,-0.01521288137882948
1783693619780945000,8.44494482421875,-0.004042929504066706,0.007561150006949902,-0.006939386948943138
1783693619790907000,8.454906982421875,-0.002585381269454956,0.007993913255631924,-0.0009597917087376118
1783693619800870000,8.464869873046876,-0.005330901592969894,0.0037687928415834904,0.004191792570054531
1783693619810832000,8.474831787109375,-0.0038216880057007074,0.0014462502440437675,0.0048804860562086105
1783693619820795000,8.484794921875,-0.0008496681111864746,0.0012315837666392326,0.008923130109906197
1783693619830756900,8.4947568359375,0.00034183019306510687,-0.005619931034743786,0.008552949875593185
1783693619840720000,8.504719970703125,-0.0007248871843330562,-0.00890303310006857,0.004773714113980532
1783693619850681900,8.514681884765626,0.0007454440346919,-0.0031402192544192076,0.004313253797590733
1783693619860644900,8.524644775390625,0.0019657989032566547,-0.0013441966148093343,0.004676898010075092
1783693619870606800,8.53460693359375,0.0029658160638064146,-0.0056020584888756275,-0.0006417009280994534
1783693619880569900,8.54456982421875,0.003159124171361327,-0.0036041373386979103,-0.004627728834748268
1783693619890531800,8.55453173828125,0.000338037614710629,-0.004280846565961838,-0.0055686235427856445
1783693619900494800,8.564494873046876,0.002634070347994566,-0.00797336082905531,-0.007584426086395979
1783693619910456800,8.574456787109375,0.002077469602227211,-0.002931199036538601,-0.003062378615140915
1783693619920419800,8.584419921875,-0.0014501430559903383,0.002527227159589529,0.006025112699717283
1783693619930382800,8.5943828125,-0.0013028704561293125,0.0027434760704636574,0.010959682986140251
1783693619940344800,8.6043447265625,-0.004367987159639597,0.001657197019085288,0.014246953651309013
1783693619950307800,8.614307861328125,-0.010201375000178814,0.003644980490207672,0.011872479692101479
1783693619960269800,8.624269775390625,-0.008544518612325191,0.002847095252946019,0.0006004929891787469
1783693619970233000,8.634233154296876,-0.0062499381601810455,-0.004243837669491768,-0.008193531073629856
1783693619980194800,8.64419482421875,-0.0015762625262141228,-0.009242870844900608,-0.009648559615015984
1783693619990157800,8.65415771484375,0.004020903259515762,-0.008764833211898804,-0.007861845195293427
1783693620000119800,8.664119873046875,0.006716412957757711,-0.008113670162856579,-0.00537703325971961
1783693620010083000,8.6740830078125,0.001966665033251047,-0.005390321835875511,0.0002984292805194855
1783693620020044800,8.684044921875,-0.002525554969906807,0.0024345782585442066,0.007388562895357609
1783693620030007800,8.6940078125,-0.00808144174516201,0.0058660609647631645,0.005639931187033653
1783693620039970000,8.703969970703126,-0.013716434128582478,0.004221281968057156,-0.0028020094614475965
1783693620049933000,8.71393310546875,-0.016244573518633842,-0.0003449742216616869,-0.012110555544495583
1783693620059894800,8.723894775390624,-0.018319979310035706,-0.008745445869863033,-0.019506562501192093
1783693620069857800,8.73385791015625,-0.012823747470974922,-0.012196636758744717,-0.019140111282467842
1783693620079820800,8.74382080078125,-0.012406663037836552,-0.011300386860966682,-0.013506626710295677
1783693620089783000,8.753782958984376,-0.008185818791389465,-0.010753639973700047,-0.00654192827641964
1783693620099745800,8.763745849609375,-0.005670909769833088,-0.010399463586509228,0.0023670154623687267
1783693620109707800,8.773707763671876,-0.007178259082138538,-0.007013787515461445,0.010140249505639076
1783693620119670800,8.7836708984375,-0.008978670462965965,-0.007117659319192171,0.020380008965730667
1783693620129633000,8.793633056640624,-0.009609839878976345,-0.007618067320436239,0.02634868398308754
1783693620139596000,8.803595947265626,-0.009924368932843208,-0.008817299269139767,0.030391909182071686
1783693620149557800,8.813557861328125,-0.0037405090406537056,-0.006291557103395462,0.02980654686689377
1783693620159520800,8.823520751953126,-0.004072318784892559,-0.003535696305334568,0.03184330835938454
1783693620169483000,8.83348291015625,-0.0017319329781457782,-0.00348829198628664,0.02871968410909176
1783693620179446000,8.843446044921874,0.0029628865886479616,-0.0023889546282589436,0.019517363980412483
1783693620189407700,8.85340771484375,0.005372248589992523,-0.004346111789345741,0.0009588588727638125
1783693620199370800,8.863370849609375,0.006126017309725285,-0.0042092385701835155,-0.012231122702360153
1783693620209333000,8.8733330078125,0.0024841446429491043,-0.005662525538355112,-0.027158673852682114
1783693620219296000,8.8832958984375,0.005095065571367741,-0.008984598331153393,-0.037749480456113815
1783693620229258800,8.8932587890625,0.003924606367945671,-0.005969899240881205,-0.03957534208893776
1783693620239220700,8.903220703125,0.0018476120894774795,-0.003914675209671259,-0.03827238455414772
1783693620249184000,8.91318408203125,-0.004359417594969273,-0.006165046710520983,-0.037390876561403275
1783693620259146000,8.92314599609375,-0.00949404388666153,-0.003953346982598305,-0.03094223514199257
1783693620269108700,8.933108642578125,-0.010273017920553684,0.00027735065668821335,-0.01645304076373577
1783693620279071000,8.943071044921876,-0.008057748898863792,-0.0019495288142934442,-0.010449277237057686
1783693620289034000,8.953033935546875,-0.006897143553942442,-0.0007966462289914489,-0.004896053113043308
1783693620298996000,8.962995849609374,-0.004714055452495813,0.0011381885269656777,0.007549423724412918
1783693620308958700,8.972958740234375,0.0028599747456610203,-0.0014703776687383652,0.014748746529221535
1783693620318921000,8.9829208984375,0.0073802717961370945,-0.005829758942127228,0.021771995350718498
1783693620328884000,8.992884033203126,0.012265574187040329,-0.006673980504274368,0.02358986996114254
1783693620338846000,9.002845947265625,0.017457369714975357,-0.008827661164104939,0.019703175872564316
1783693620348808700,9.01280859375,0.017671221867203712,-0.013605372048914433,0.008445462211966515
1783693620358771700,9.022771728515625,0.013414603658020496,-0.01106768473982811,0.0007979210931807756
1783693620368734000,9.03273388671875,0.007447258569300175,-0.00499061681330204,-0.003189629875123501
1783693620378697000,9.042697021484376,0.0007252040086314082,-0.005228137597441673,-0.00963159091770649
1783693620388658700,9.05265869140625,-0.0058341617695987225,-0.0012597611639648676,-0.012752815149724483
1783693620398621700,9.06262158203125,-0.008787236176431179,0.0023253841791301966,-0.01748727448284626
1783693620408584000,9.072583984375,-0.010143584571778774,0.00037861336022615433,-0.0213461946696043
1783693620418547000,9.082546875,-0.004788321442902088,0.0013250629417598248,-0.019923008978366852
1783693620428508700,9.0925087890625,-0.003303609322756529,-0.00007762399036437273,-0.019144034013152122
1783693620438471700,9.1024716796875,0.0005495593650266528,-0.005800963379442692,-0.017588766291737556
1783693620448433700,9.11243359375,0.002355715027078986,-0.011220762506127357,-0.015570624731481075
1783693620458396700,9.122396728515625,0.0010865377262234688,-0.01123863086104393,-0.0046153077855706215
1783693620468358400,9.1323583984375,-0.0017127108294516802,-0.008608492091298103,0.006196060683578253
1783693620478321700,9.14232177734375,0.0013432465493679047,-0.010564605705440044,0.012428950518369675
1783693620488283600,9.15228369140625,0.0017563027795404196,-0.009552870877087116,0.020492201671004295
1783693620498246700,9.16224658203125,0.0030931050423532724,-0.003109084442257881,0.025575801730155945
1783693620508209700,9.172209716796875,0.0020827017724514008,-0.003437186125665903,0.02500934712588787
1783693620518171600,9.182171630859376,0.0023648077622056007,-0.004076317884027958,0.017737073823809624
1783693620528134700,9.192134765625,0.0008707742672413588,-0.0012791998451575637,0.005167752970010042
1783693620538096600,9.2020966796875,0.0009249109425581992,-0.004412977024912834,-0.011609746143221855
1783693620548059600,9.2120595703125,0.0019049542024731636,-0.008856726810336113,-0.02156996913254261
1783693620558021600,9.222021728515625,0.0053226761519908905,-0.008222324773669243,-0.03273819014430046
1783693620567984600,9.231984619140626,0.006624695844948292,-0.011509198695421219,-0.03768368065357208
1783693620577946600,9.241946533203125,0.004495137371122837,-0.018256569281220436,-0.035250209271907806
1783693620587909600,9.25190966796875,0.0019891024567186832,-0.019220367074012756,-0.025070011615753174
1783693620597871600,9.26187158203125,-0.004022720269858837,-0.01682225428521633,-0.012788182124495506
1783693620607834600,9.271834716796874,-0.008478720672428608,-0.010256496258080006,0.00002188899088650942
1783693620617796600,9.281796630859375,-0.01595456339418888,-0.0037993714213371277,0.013417987152934074
1783693620627759600,9.291759521484375,-0.022663332521915436,0.004715020768344402,0.030867017805576324
1783693620637721600,9.3017216796875,-0.023062121123075485,0.00438297726213932,0.04208322614431381
1783693620647684600,9.3116845703125,-0.0226136464625597,-0.0007851528935134411,0.045898739248514175
1783693620657646600,9.321646484375,-0.018283354118466377,-0.0019412420224398375,0.047012753784656525
1783693620667609600,9.331609619140625,-0.014475833624601364,-0.005538639612495899,0.04509421065449715
1783693620677572600,9.341572509765625,-0.009324520826339722,-0.00845111720263958,0.036927416920661926
1783693620687534600,9.35153466796875,-0.005334040150046349,-0.012280742637813091,0.023270459845662117
1783693620697497600,9.36149755859375,0.001278218231163919,-0.016230475157499313,0.010119395330548286
1783693620707459600,9.37145947265625,0.006583234760910273,-0.01286423858255148,-0.0012776023941114545
1783693620717422800,9.3814228515625,0.007976041175425053,-0.00840075220912695,-0.015096301212906837
1783693620727384600,9.391384521484374,0.008059398271143436,-0.003330093575641513,-0.023802440613508224
1783693620737347600,9.40134765625,0.006362222135066986,-0.0033213007263839245,-0.03130931407213211
1783693620747309600,9.4113095703125,0.004609329625964165,-0.00344433868303895,-0.039874304085969925
1783693620757272800,9.42127294921875,0.0010359378065913916,-0.0023252961691468954,-0.04276455566287041
1783693620767234600,9.431234619140625,-0.002805938245728612,-0.008182918652892113,-0.040890756994485855
1783693620777197600,9.441197509765624,-0.001691871089860797,-0.008374917320907116,-0.027852952480316162
1783693620787159800,9.451159912109375,-0.0017174375243484974,-0.0010690676281228662,-0.009425741620361805
1783693620797122800,9.461122802734375,-0.0018392109777778387,0.0053030624985694885,0.009861635975539684
1783693620807084500,9.47108447265625,-0.002149202860891819,0.002608209615573287,0.02328689768910408
1783693620817047600,9.481047607421875,-0.002863766858354211,-0.0011774561135098338,0.029552174732089043
1783693620827010600,9.491010498046874,-0.0021543006878346205,-0.0005345690296962857,0.03657013550400734
1783693620836972800,9.500972900390625,-0.0013812144752591848,-0.0007109035504981875,0.0346689447760582
1783693620846935600,9.510935546875,-0.002281362656503916,-0.007284650579094887,0.02561073563992977
1783693620856897500,9.5208974609375,-0.0002547547046560794,-0.00758532527834177,0.013152421452105045
1783693620866860500,9.530860595703125,0.006749358959496021,-0.0027852440252900124,-0.0010536788031458855
1783693620876822800,9.54082275390625,0.010909435339272022,0.0003932453691959381,-0.010612623766064644
1783693620886785500,9.55078564453125,0.01330015528947115,-0.002666194224730134,-0.01914379373192787
1783693620896747500,9.56074755859375,0.014314897358417511,-0.0031183722894638777,-0.02581259422004223
1783693620906710500,9.57071044921875,0.012713272124528885,0.0023586847819387913,-0.024571828544139862
1783693620916672800,9.5806728515625,0.008306519128382206,0.009902332909405231,-0.027529506012797356
1783693620926635500,9.590635498046876,0.0032089625019580126,0.004935803357511759,-0.02947654388844967
1783693620936597500,9.600597412109375,0.000829084194265306,-0.0032164258882403374,-0.03025607392191887
1783693620946560500,9.610560546875,0.0020120604895055294,-0.002261948771774769,-0.020291056483983994
1783693620956522800,9.620522705078125,0.005803670268505812,-0.005871847737580538,-0.013134043663740158
1783693620966485500,9.630485595703124,0.006851624231785536,-0.011076729744672775,-0.00727908406406641
1783693620976448500,9.640448486328125,0.007490536663681269,-0.006800203584134579,0.00009704637341201305
1783693620986410500,9.650410400390625,0.007059636991471052,0.0015370885375887156,0.010056470520794392
1783693620996373800,9.660373779296876,0.006274763029068708,0.002756771631538868,0.015659812837839127
1783693621006335700,9.670335693359375,0.010060979053378105,0.0006563365459442139,0.014588157646358013
1783693621016298500,9.680298583984374,0.012035012245178223,0.005954744294285774,0.013718630187213421
1783693621026260700,9.6902607421875,0.012894947081804276,0.0025648067239671946,0.0037703923881053925
1783693621036223700,9.7002236328125,0.004901145119220018,-0.0017804113449528813,0.003215075470507145
1783693621046185700,9.710185791015626,0.002029991243034601,0.004253779072314501,-0.0012848678743466735
1783693621056148500,9.7201484375,-0.001392018748447299,0.004353638738393784,-0.012810058891773224
1783693621066110700,9.73011083984375,0.0013238727115094662,0.008280736394226551,-0.02042829804122448
1783693621076073700,9.74007373046875,0.0038517743814736605,0.016955217346549034,-0.021761517971754074
1783693621086035700,9.75003564453125,0.0033889170736074448,0.014113358221948147,-0.02661486156284809
1783693621095998500,9.75999853515625,0.0031701666302978992,0.008112459443509579,-0.029370810836553574
1783693621105960700,9.769960693359375,0.0009560146718285978,0.011671241372823715,-0.0308587197214365
1783693621115923700,9.779923828125,0.00188417115714401,0.0040502711199223995,-0.03050725720822811
1783693621125885700,9.7898857421875,0.006294898688793182,-0.004125100560486317,-0.02256890758872032
1783693621135848400,9.799848388671874,0.009228448383510113,-0.004869693890213966,-0.014092575758695602
1783693621145811500,9.8098115234375,0.008092876523733139,0.002740022726356983,0.002990003675222397
1783693621155773700,9.819773681640624,0.00920355785638094,-0.003909049555659294,0.01183867733925581
1783693621165736700,9.82973681640625,0.008829384110867977,-0.0038139750249683857,0.022119278088212013
1783693621175698400,9.839698486328125,0.0002647336514201015,0.0035203355364501476,0.036633122712373734
1783693621185661400,9.849661376953126,-0.0017803078517317772,0.00016741582658141851,0.04111495614051819
1783693621195623700,9.859623779296875,0.0004585340211633593,-0.002368472982198,0.03770050033926964
1783693621205586700,9.869586669921874,0.003419170156121254,-0.002634256612509489,0.028400471433997154
1783693621215548400,9.87954833984375,0.011708363890647888,-0.005942970048636198,0.013250390999019146
1783693621225511400,9.889511474609375,0.017332693561911583,-0.009523323737084866,-0.0010457240277901292
1783693621235473700,9.8994736328125,0.023231396451592445,-0.005261717829853296,-0.01229914277791977
1783693621245436700,9.909436767578125,0.0218095351010561,0.005285465158522129,-0.020383967086672783
1783693621255398400,9.9193984375,0.01889999397099018,0.007899375632405281,-0.023278631269931793
1783693621265361700,9.929361572265625,0.01161758042871952,0.012482143007218838,-0.01963995397090912
1783693621275323600,9.93932373046875,0.0038490346632897854,0.01439908891916275,-0.019277075305581093
1783693621285286700,9.94928662109375,-0.006619851104915142,0.013343678787350655,-0.0166661124676466
1783693621295249700,9.959249755859375,-0.01126104686409235,0.003426867537200451,-0.023420264944434166
1783693621305211600,9.969211669921876,-0.010453309863805771,-0.003438228741288185,-0.028587862849235535
1783693621315174700,9.979174560546875,-0.010541336610913277,0.00035040383227169514,-0.030363043770194054
1783693621325136600,9.98913671875,-0.009271541610360146,0.0003472079988569021,-0.023646285757422447
1783693621335099600,9.999099609375,-0.007159627042710781,0.0025458848103880882,-0.00896898191422224
1783693621345061600,10.0090615234375,-0.015076938085258007,0.011999839916825294,0.01245242077857256
1783693621355024600,10.019024658203126,-0.013099683448672295,0.010863489471375942,0.028913235291838646
1783693621364986600,10.028986572265625,-0.008161916397511959,0.008542012423276901,0.03416844829916954
1783693621374949600,10.03894970703125,-0.00620605330914259,0.005650866311043501,0.03839389979839325
1783693621384911600,10.04891162109375,-0.0034147941041737795,-0.005468363407999277,0.030835578218102455
1783693621394874600,10.05887451171875,-0.0017038080841302872,-0.01585148274898529,0.022358613088726997
1783693621404836600,10.068836669921875,0.00010021732305176556,-0.017064552754163742,0.02124141715466976
1783693621414799600,10.078799560546875,0.0026580216363072395,-0.015532170422375202,0.02360455133020878
1783693621424761600,10.08876171875,0.004923040047287941,-0.002194794826209545,0.023639705032110214
1783693621434724600,10.098724609375,0.0024193928111344576,0.009546538814902306,0.02561924420297146
1783693621444686600,10.1086865234375,0.0026292498223483562,0.005407453514635563,0.020349647849798203
1783693621454649900,10.11864990234375,0.0070840236730873585,-0.003690173150971532,0.010205511003732681
1783693621464612900,10.12861279296875,0.004919406492263079,-0.007227916270494461,0.0040480163879692554
1783693621474574800,10.138574951171876,0.006729462184011936,-0.013614162802696228,-0.00987617764621973
1783693621484537900,10.148537841796875,0.005705210380256176,-0.009978681802749634,-0.015444047749042511
1783693621494499800,10.158499755859374,0.0022667557932436466,-0.0013292606454342604,-0.012347386218607426
1783693621504462800,10.168462890625,-0.00000492046819999814,0.005140889436006546,-0.009594210423529148
1783693621514424800,10.1784248046875,-0.005440118256956339,0.009499678388237953,-0.005518979858607054
1783693621524387800,10.188387939453126,-0.008641237393021584,0.009347345679998398,-0.005925111938267946
1783693621534349800,10.198349853515625,-0.004674708936363459,0.005304626654833555,-0.010578883811831474
1783693621544312800,10.208312744140626,-0.0010386951034888625,-0.001091753481887281,-0.008112797513604164
1783693621554274800,10.21827490234375,-0.0032193756196647882,-0.004678474273532629,0.00022515800083056092
1783693621564237800,10.22823779296875,0.002496567089110613,-0.007340303622186184,0.005845759529620409
1783693621574199800,10.23819970703125,0.0069286939688026905,-0.00016576109919697046,0.013581832870841026
1783693621584163000,10.2481630859375,0.008634715341031551,-0.00243184482678771,0.016868971288204193
1783693621594124800,10.258124755859376,0.014736846089363098,-0.0036728447303175926,0.01873554103076458
1783693621604087800,10.268087890625,0.013846284709870815,0.0034077016171067953,0.02210763655602932
1783693621614050800,10.27805078125,0.00599517161026597,0.00025264592841267586,0.018514402210712433
1783693621624013000,10.288012939453125,-0.004072376061230898,0.0027040857821702957,0.016786010935902596
1783693621633976000,10.29797607421875,-0.010872110724449158,0.003829812631011009,0.01397727057337761
1783693621643937800,10.307937744140625,-0.01326522696763277,0.0029602907598018646,0.017284385859966278
1783693621653900800,10.31790087890625,-0.010712377727031708,0.003370413091033697,0.01951286941766739
1783693621663863000,10.327863037109376,-0.0069522615522146225,0.007926282472908497,0.007081233896315098
1783693621673826000,10.337825927734375,-0.004344075918197632,0.009202993474900723,0.00005438784137368202
1783693621683787800,10.347787841796874,-0.004295872524380684,0.011395839974284172,0.003737006802111864
1783693621693750800,10.357750732421875,0.0007811575196683407,-0.0031146814581006765,-0.016557585448026657
1783693621703713000,10.367713134765625,0.012692146003246307,-0.014651761390268803,-0.034776803106069565
1783693621713676000,10.377676025390626,0.01521618664264679,-0.008011105470359325,-0.03509236127138138
1783693621723637800,10.3876376953125,0.014661183580756187,-0.004947404842823744,-0.0253574401140213
1783693621733600800,10.397600830078124,0.012547717429697514,-0.003353542648255825,-0.010212207213044167
1783693621743563000,10.40756298828125,0.005787283647805452,0.0009389402694068849,0.007822985760867596
1783693621753526000,10.417526123046875,-0.0008756695315241814,0.005942498333752155,0.02253906801342964
1783693621763487700,10.42748779296875,-0.0089256064966321,0.007007762789726257,0.03124414198100567
1783693621773450800,10.43745068359375,-0.012546887621283531,0.00852467492222786,0.028059937059879303
1783693621783413800,10.447413818359376,-0.012997228652238846,0.010095140896737576,0.025379732251167297
1783693621793376000,10.4573759765625,-0.012424295768141747,0.004116381984204054,0.020644372329115868
1783693621803339000,10.467339111328124,-0.0065629449672997,-0.013235710561275482,0.013789927586913109
1783693621813300700,10.47730078125,0.0028828971553593874,-0.014447202906012535,0.013726728968322277
1783693621823264000,10.487263916015625,0.010666784830391407,-0.0046148113906383514,0.02388083003461361
1783693621833226000,10.49722607421875,0.01670033670961857,0.004722499754279852,0.030101066455245018
1783693621843189000,10.50718896484375,0.016316842287778854,0.008204583078622818,0.037910252809524536
1783693621853150700,10.517150634765626,0.01189812459051609,0.01246111374348402,0.040913499891757965
1783693621863114000,10.527114013671875,0.0010691798524931073,0.0182042196393013,0.037367235869169235
1783693621873076000,10.537075927734374,-0.0010895687155425549,0.014938130043447018,0.02376699075102806
1783693621883039000,10.5470390625,-0.0038390164263546467,0.012889626435935497,0.008171518333256245
1783693621893001000,10.5570009765625,-0.0006201203796081245,0.01334740873426199,-0.009652253240346909
1783693621902964000,10.5669638671875,0.007463905028998852,0.012241397984325886,-0.03437970206141472
1783693621912926000,10.576926025390625,0.011449192650616169,0.014737343415617943,-0.05455867201089859
1783693621922889000,10.586888916015624,0.009016661904752254,0.022675426676869392,-0.06172763556241989
1783693621932851000,10.596850830078125,0.016640758141875267,0.02440248616039753,-0.07229985296726227
1783693621942814000,10.60681396484375,0.01494752150028944,0.06896329671144485,-0.05840614438056946
1783693621952777000,10.61677685546875,0.014533845707774162,0.16671645641326904,-0.052140261977910995
1783693621962739000,10.626739013671875,0.029547950252890587,0.1078597903251648,-0.07515237480401993
1783693621972702000,10.636701904296874,0.021140674129128456,0.05464664474129677,-0.05547316372394562
1783693621982664000,10.646663818359375,0.0031896361615508795,0.03391420096158981,-0.010810086503624916
1783693621992627000,10.656626953125,-0.015428989194333553,0.0192407313734293,0.02722894214093685
1783693622002589000,10.6665888671875,-0.0394003689289093,-0.03778021037578583,0.06315578520298004
1783693622012552000,10.676552001953125,-0.06159217655658722,-0.04352651908993721,0.12988054752349854
1783693622022514000,10.686513916015626,-0.07444538921117783,-0.044469013810157776,0.20445092022418976
1783693622032477000,10.696476806640625,-0.09391167014837265,-0.055740054696798325,0.27870795130729675
1783693622042439000,10.70643896484375,-0.08708732575178146,-0.04631486162543297,0.34654319286346436
1783693622052402000,10.71640185546875,-0.062134385108947754,0.017716074362397194,0.3791598677635193
