time,seconds_elapsed,z,y,x
1783693635700228400,0.057228271484375,-0.33040216718912124,-0.0027142273947596547,-0.0054151569165289395
1783693635710190600,0.067190673828125,-0.2347574349015951,-0.03139821435902267,0.054156683731824154
1783693635720153600,0.077153564453125,-0.15913374637961386,-0.02870327618662268,0.11165398312844335
1783693635730115600,0.087115478515625,-0.10008885221481323,-0.01944810271579772,0.15149550658613442
1783693635740078600,0.09707861328125,-0.07407236742675304,0.02273746311739087,0.1889081954617053
1783693635750040600,0.10704052734375,-0.015330840122699736,0.03859795313738286,0.21193843098059295
1783693635760003600,0.117003662109375,0.021688684716820717,0.035127683210931716,0.1973616240955889
1783693635769965600,0.126965576171875,0.07371931620538234,0.02104691621456295,0.15736607911996542
1783693635779928600,0.136928466796875,0.10040683212280273,-0.020656528657488522,0.09626505614295601
1783693635789890600,0.146890625,0.10231529609262943,-0.03931150823421776,0.03350004547648132
1783693635799853600,0.156853515625,0.033797640183568,-0.03679536069482565,0.011077420461922883
1783693635809815600,0.166815673828125,-0.07322364164292812,-0.042652744953520595,-0.03843830559626221
1783693635819778600,0.176778564453125,-0.11333061110377311,-0.026928959990479052,-0.09280483268648386
1783693635829740500,0.186740478515625,-0.12863397869765758,0.0009099544517695903,-0.09133819420002401
1783693635839703600,0.19670361328125,-0.11627952403724193,0.022823899291828275,-0.0819213273614645
1783693635849665500,0.20666552734375,-0.03192015587389469,0.012433438180759548,-0.04938640059009194
1783693635859628800,0.21662890625,0.05111702377498149,0.0027301190836355087,-0.040606589546054596
1783693635869590500,0.226590576171875,0.05723813700377941,0.005699088424444198,-0.020378186640143393
1783693635879553500,0.236553466796875,0.034788989308476445,0.040639395837113255,0.009305150092393159
1783693635889515500,0.246515625,-0.0034913492470979688,0.008988010434620082,-0.009022460693493484
1783693635899478800,0.256478759765625,-0.021397592815756795,-0.0021257234496995805,-0.043984906872734424
1783693635909441500,0.266441650390625,-0.0017114800930023192,-0.022008783516660333,-0.05400448884479701
1783693635919403500,0.276403564453125,0.01589841087758541,-0.04805394640993327,-0.02596270877420902
1783693635929366500,0.286366455078125,0.013435820156335829,-0.032661987217143175,-0.02075439954139292
1783693635939328800,0.296328857421875,0.0123129536062479,-0.027361067797429858,0.011029343536496162
1783693635949291500,0.30629150390625,-0.05022562789320945,-0.004422967541404068,0.05966551028117537
1783693635959253500,0.31625341796875,-0.17119418652951715,0.03126848703213036,0.05493110217042267
1783693635969216500,0.326216552734375,-0.2258084047704935,0.031190672555565832,0.06939684989638627
1783693635979178800,0.3361787109375,-0.2849894925355911,0.040416912192851304,0.05554506935030221
1783693635989141500,0.3461416015625,-0.26895254997015,0.02533906045053154,0.04286101740933954
1783693635999103500,0.356103515625,-0.18052724754214286,-0.006309804201312363,0.055255438753962514
1783693636009066500,0.36606640625,-0.0893278042256832,-0.017627865018695593,0.0207252465121448
1783693636019028700,0.37602880859375,-0.0036935938209295273,-0.026659641529805957,0.029302374590933322
1783693636028991500,0.385991455078125,0.10556816040873528,-0.03455861461870372,0.05286057950668037
1783693636038953500,0.395953369140625,0.13838731094896792,-0.031106830197013914,0.09135258805155753
1783693636048916500,0.40591650390625,0.08058744840919971,0.01741553744226694,0.0839236801598221
1783693636058878700,0.415878662109375,0.007737900775671005,0.0700066888904199,0.0834375771433115
1783693636068841500,0.425841552734375,-0.038328853872418404,0.05356938536316156,0.048431511018052695
1783693636078803500,0.435803466796875,-0.01717208407521248,-0.0016063757507130503,-0.010274287385493516
1783693636088766500,0.445766357421875,-0.007921440649032592,-0.007867226243764161,-0.023410467008128762
1783693636098728700,0.455728759765625,-0.018393734824657438,-0.012131130765937269,-0.0567540798138827
1783693636108691500,0.46569140625,-0.02478840429782867,-0.01707158284280449,-0.04723769812360406
1783693636118653400,0.4756533203125,-0.008771335476636886,-0.009424319492653013,-0.027543986616283652
1783693636128616400,0.485616455078125,-0.028855507606267927,0.011552125301584601,0.0050832946136593815
1783693636138579700,0.495579833984375,-0.08874269781410693,0.051046004365384576,0.04751549215167761
1783693636148541700,0.505541748046875,-0.10301847592592239,0.05064009044561535,0.05554097769707441
1783693636158504400,0.51550439453125,-0.05810322940051555,0.026814832091517745,0.04349690416008234
1783693636168466700,0.525466796875,-0.04482230754494667,0.036363947007618844,0.047497518103569746
1783693636178429700,0.5354296875,-0.08208031731545924,0.049850291774794456,0.043408641354739666
1783693636188391700,0.5453916015625,-0.1425800864636898,0.07028696713652462,-0.01141885431073606
1783693636198354400,0.5553544921875,-0.16059329753816126,0.0667345353519544,-0.015848507321253417
1783693636208316700,0.565316650390625,-0.15867723478376863,0.02416588848531246,0.002169452993571758
1783693636218279700,0.57527978515625,-0.11988310148715972,-0.025118403437174856,0.006580912760272621
1783693636228241700,0.58524169921875,-0.06627776802778243,-0.04313523124083876,-0.01681625637486577
1783693636238204400,0.595204345703125,-0.01834580402970314,-0.057073849820159374,0.009989844420924782
1783693636248166700,0.605166748046875,-0.000796118813753128,-0.012265497735328972,0.03583484509959817
1783693636258129700,0.615129638671875,0.004240121787786483,0.032753428360261023,0.03224113145656884
1783693636268091600,0.625091552734375,0.04978139125704765,0.06966346494331956,0.05007116798385977
1783693636278054400,0.635054443359375,0.08351941020786761,0.06862714416552335,0.10205744887404143
1783693636288016600,0.6450166015625,0.12636428020000456,0.07403451963439583,0.11024893863610923
1783693636297979600,0.654979736328125,0.155625445997715,0.07742986116111278,0.06945552128106355
1783693636307941600,0.664941650390625,0.14812836824059486,0.015873934023454786,0.04373385472111404
1783693636317904400,0.674904296875,0.11570318545401095,-0.04585534038711339,0.010481646525859832
1783693636327867400,0.684867431640625,0.010917699855566024,-0.059781136017478996,-0.05321567655466496
1783693636337829600,0.69482958984375,-0.08223229300677776,-0.05503759475219994,-0.08578509011752904
1783693636347792600,0.704792724609375,-0.12743687786757946,-0.07550926836207508,-0.05880407114624977
1783693636357754400,0.71475439453125,-0.12597265053391457,-0.059263468818925316,-0.003774257841706276
1783693636367717600,0.724717529296875,-0.16600070953965185,0.002075856425985694,0.024020415600016713
1783693636377679600,0.7346796875,-0.17987024493813514,0.04179872194007039,0.0831081259932369
1783693636387642600,0.744642578125,-0.1626613359838724,0.04683145541027188,0.1382169958833605
1783693636397604400,0.754604248046875,-0.12261340323388575,0.05041585323568433,0.12918174877353011
1783693636407567600,0.764567626953125,-0.0522147558838129,0.0607586758127436,0.10360847770832478
1783693636417529600,0.774529541015625,-0.039081718066334724,0.06370981723591684,0.08100377412512898
1783693636427492600,0.78449267578125,0.0007177928805351257,0.03797266084589064,0.04679075807370245
1783693636437454300,0.794454345703125,0.05070493584275245,0.004831548342294991,0.04996858439221978
1783693636447417600,0.80441748046875,0.047096682217717165,-0.013058365146070719,0.03427702119834721
1783693636457379600,0.814379638671875,-0.029107436540722845,0.0031354119488969444,0.02992985883951187
1783693636467343000,0.824343017578125,-0.07565817531347274,-0.01528725670929998,0.02956679768078029
1783693636477305000,0.83430517578125,-0.10314940882921218,-0.0340089813793078,0.0096274408493191
1783693636487268000,0.84426806640625,-0.09948504110276699,-0.03466744528803974,-0.007202697920426726
1783693636497230000,0.85422998046875,-0.06273790346384048,-0.023898908112198112,-0.015029811349511146
1783693636507193000,0.864193115234375,-0.02448796004652977,-0.018919658394902943,0.026222017297521234
1783693636517155000,0.874155029296875,-0.046614451658725735,0.015072298784367739,0.04630465505719185
1783693636527118000,0.8841181640625,-0.07000117246508598,0.03520082151237875,0.04683445108495653
1783693636537081000,0.8940810546875,-0.0820908387094736,0.02875244909059256,0.06495784453563391
1783693636547043000,0.90404296875,-0.0992138229459524,0.03464684089142829,0.07249649641215801
1783693636557006000,0.914006103515625,-0.10466741217672824,-0.001729929065145552,0.030417423160746693
1783693636566968000,0.923968017578125,-0.06531622951924801,-0.019638254993036387,0.008669774798303841
1783693636576931000,0.93393115234375,-0.028770167410373686,-0.011911460133269429,0.03240859697796404
1783693636586893000,0.94389306640625,-0.016137480330467222,-0.004038753996789455,0.06649374886602163
1783693636596856000,0.95385595703125,-0.01668693090677261,0.018190796131081877,0.06973726083189248
1783693636606818000,0.963818115234375,0.008774842607975005,0.013994878811202942,0.09121960932165384
1783693636616781000,0.973781005859375,-0.03749941731095314,0.03251991186533123,0.08924714020490646
1783693636626743000,0.983742919921875,-0.12121990304887294,0.0777081301132217,0.08537146781533957
1783693636636706000,0.9937060546875,-0.16857319037616253,0.060440732437372205,0.02906608161702752
1783693636646668000,1.00366796875,-0.16097265224456786,0.026194215975143015,0.005173457115143537
1783693636656631000,1.013631103515625,-0.12045067224204539,0.0023228899896144866,-0.03638809506818652
1783693636666593000,1.023593017578125,-0.04088438357412815,-0.0053092853892594575,-0.04003200452849269
1783693636676556000,1.03355615234375,0.04554828373193741,-0.028563100530952214,-0.011929068855196236
1783693636686518000,1.04351806640625,0.10938041217327117,-0.0021188918501138685,-0.014646511120349167
1783693636696481000,1.05348095703125,0.09706044430434703,0.021960377797670662,-0.014840718518197536
1783693636706443000,1.063443115234375,0.07176409048438072,0.04943776545114815,0.04023804849460721
1783693636716406000,1.073406005859375,0.017614567145705223,0.0549056389356032,0.0548874091591686
1783693636726368300,1.0833681640625,-0.03234393424391746,0.03040134880878031,0.003099792646244168
1783693636736331000,1.0933310546875,-0.03455693411827087,0.019047266829945148,-0.012041443188488482
1783693636746293000,1.10329296875,-0.054421326017379756,-0.010789141572453082,-0.02367956627309322
1783693636756256000,1.113256103515625,-0.037906244546175,-0.012610036856681108,-0.038723625343665476
1783693636766218200,1.12321826171875,-0.06244447347521782,-0.01494991451371461,-0.029674715034663676
1783693636776181000,1.133180908203125,-0.09559212531745433,0.01627213956080377,0.02304981700219214
1783693636786144000,1.14314404296875,-0.1319002870172262,0.01931340695284307,0.021671660516783594
1783693636796106000,1.15310595703125,-0.14982757337391375,0.028417846841365096,0.027532442308962343
1783693636806069200,1.1630693359375,-0.16116905159950257,0.040338878520578145,0.029825667812675236
1783693636816031000,1.173031005859375,-0.08209025418758392,0.04408493318110704,0.05463920655176043
1783693636825994000,1.182993896484375,0.00566109450161457,0.019591529774479567,0.07147431375756859
1783693636835956200,1.192956298828125,0.03142565035521984,0.019550905503146348,0.05269457529000938
1783693636845919200,1.202919189453125,0.022159809359908102,0.019905308431386947,0.007958119397610425
1783693636855881000,1.212880859375,0.020358897417783735,-0.007544643225893378,-0.003798807761073112
1783693636865844000,1.222843994140625,-0.033843232890963554,-0.027016163349896666,-0.051166562005132435
1783693636875806200,1.23280615234375,-0.04749941779971122,-0.040361492211185394,-0.07901632663495838
1783693636885769200,1.242769287109375,-0.043618192452192305,-0.0343066856842488,-0.04359203509762883
1783693636895731000,1.25273095703125,-0.048834465795755386,-0.013859598526358603,-0.028812983638793227
1783693636905694000,1.26269384765625,-0.0032949498921632766,-0.022909129889868197,-0.014148352339863775
1783693636915656200,1.27265625,0.01680558885037899,-0.022225129681080577,-0.009816314484924078
1783693636925619200,1.282619140625,-0.025211013624072073,0.03148574651200324,-0.003942015624046325
1783693636935581000,1.292580810546875,-0.06769348004460335,0.05637888982594013,0.0009483867660164833
1783693636945544000,1.3025439453125,-0.0912017814040184,0.0835962383037433,0.01363375388123095
1783693636955506200,1.312506103515625,-0.11667933700978755,0.09662661946434527,0.01965082221366465
1783693636965469200,1.32246923828125,-0.10713877072632312,0.07940583740919828,0.013391761818900703
1783693636975431000,1.332430908203125,-0.06979366719424725,0.0470597842734307,0.02341134379096329
1783693636985394000,1.342393798828125,-0.03560498186647892,0.014328129353560506,0.005621712339296937
1783693636995356200,1.352356201171875,0.003543371695280075,-0.008864347522333263,-0.017975217151641843
1783693637005319200,1.362319091796875,0.046184828069806096,-0.039994266333989795,-0.021102920718118548
1783693637015281000,1.372281005859375,0.014319617253541946,-0.026224282319843768,-0.0039393852755427354
1783693637025244000,1.382243896484375,-0.01872515873610973,0.017340901303477586,0.04732245379760861
1783693637035207000,1.39220703125,-0.05741232452690601,0.031218437345325947,0.08706563144735992
1783693637045169200,1.402169189453125,-0.041756490233540534,0.02428071050401777,0.0900170285988599
1783693637055132200,1.412132080078125,0.016976853764057158,-0.0017899886893108486,0.094381434353441
1783693637065094000,1.422093994140625,0.01777414162158966,-0.02120616189688444,0.0745521137677133
1783693637075057200,1.43205712890625,0.03263736423254013,-0.023713030151277778,0.053438963916525244
1783693637085019100,1.44201904296875,0.041403439012169835,-0.03137169167827815,0.03604293489232659
1783693637094982100,1.451982177734375,0.06790098531544209,-0.04481869081575423,0.02727444895990193
1783693637104943900,1.46194384765625,0.06259820273220539,-0.025783443217165768,0.02949555907547474
1783693637114907100,1.4719072265625,0.03234627233147621,0.0041661797687411305,0.013449775616452097
1783693637124869000,1.481869140625,-0.02870587000250816,0.031124475451558827,0.0221523567058146
1783693637134832000,1.49183203125,-0.10369593679606914,0.0405566494571045,0.014609540110826491
1783693637144794000,1.501794189453125,-0.18993921900987623,0.0655444122519344,0.0001746989797800779
1783693637154757000,1.511757080078125,-0.23238135342001914,0.06726407565139234,-0.013795154988020657
1783693637164719000,1.521718994140625,-0.26289456510543824,0.03998677714727819,-0.031002602637559173
1783693637174682000,1.53168212890625,-0.2580225751549005,0.011049801802635192,-0.027315146296471356
1783693637184644000,1.54164404296875,-0.18448329169154165,-0.007091529163531959,-0.02045432061627507
1783693637194607000,1.551607177734375,-0.06518354305028914,-0.030159429811686275,0.021384002681821584
1783693637204569000,1.561569091796875,0.04436988760232925,-0.02845288162212819,0.08100421251654624
1783693637214532000,1.571531982421875,0.13297580729424952,-0.010627850063517689,0.10153927021883427
1783693637224494000,1.581494140625,0.19591303272247312,0.0001543137788772583,0.13457527838014066
1783693637234457000,1.59145703125,0.1631669474184513,0.03170391930732876,0.14893793105781078
1783693637244419000,1.601419189453125,0.07812894934117794,0.04774312689509243,0.11926160858795046
1783693637254382000,1.611382080078125,0.03850713304877281,0.0324872882373631,0.09173588828071952
1783693637264344000,1.621343994140625,-0.005286415970325469,-0.00596285392716527,0.02115750044956803
1783693637274307000,1.63130712890625,-0.034715924072265626,-0.03265435189995915,-0.030898046284541486
1783693637284270000,1.64127001953125,-0.02508826402723789,-0.056376588270999485,-0.06238587515577673
1783693637294232000,1.651232177734375,-0.029528876823186872,-0.06394680432956665,-0.07044109825231135
1783693637304195000,1.661195068359375,-0.045211014601588245,-0.04890449882466346,-0.07288790688253939
1783693637314157000,1.671156982421875,-0.08993570699095725,-0.008028992676734924,-0.03582710018455982
1783693637324120000,1.6811201171875,-0.14183248296678067,0.03382693934328854,-0.006955152900144457
1783693637334082000,1.69108203125,-0.18146423613131046,0.04366352943126112,0.006443842377141118
1783693637344045000,1.701045166015625,-0.16348142019510267,0.02492003132086247,0.01289338384270668
1783693637354007000,1.711007080078125,-0.08808569521009922,0.002096132029034197,0.061653250032290816
1783693637363970000,1.720969970703125,-0.03161445092558861,-0.00830704243313521,0.07948058314584196
1783693637373932000,1.73093212890625,0.03522796524763107,-0.056663442388363176,0.05826484970301389
1783693637383895000,1.74089501953125,0.08347031036913394,-0.0820853953493759,0.013315847038477659
1783693637393857000,1.75085693359375,0.08610884217917919,-0.09511453440096229,0.005059329216182231
1783693637403820000,1.760820068359375,0.08360124327242374,-0.09151124921198933,-0.0077406041894108055
1783693637413782000,1.770781982421875,0.049909401550889014,-0.05586739663984626,-0.01263590195029974
1783693637423745300,1.780745361328125,-0.02176116543114185,-0.04014207730684429,-0.009133446787297725
1783693637433707000,1.79070703125,-0.08906769198477267,-0.012548881253972648,0.013586480673402547
1783693637443670000,1.800669921875,-0.1069827033817768,-0.0027636560270562767,0.03434942884743213
1783693637453632000,1.810632080078125,-0.10891630179286002,-0.006433065254800021,0.06757555275335908
1783693637463595300,1.82059521484375,-0.1287590663820505,0.016987850082106886,0.0857484113689512
1783693637473556000,1.830555908203125,-0.12474164743423462,0.0342857524940744,0.0862034616600722
1783693637483519000,1.84051904296875,-0.09940729969143867,0.04754197829980403,0.08010134539268911
1783693637493481000,1.85048095703125,-0.04028992481231689,0.021133900378271935,0.06931961994171142
1783693637503444000,1.86044384765625,-0.004655716851353645,0.009979834483563899,0.004869286536797881
1783693637513406000,1.870406005859375,0.02563946816921234,-0.00777830585129559,-0.014242241168394685
1783693637523369000,1.880368896484375,0.06529927838444709,-0.021835034384950994,-0.020908055733144283
1783693637533331000,1.8903310546875,0.10639701244831085,-0.05120839185286313,-0.05528451871797442
1783693637543294000,1.9002939453125,0.10146540126502514,-0.06242975083012133,-0.06616977760866284
1783693637553257000,1.910257080078125,0.038514731833338735,-0.0603374181933701,-0.07185491057299077
1783693637563219000,1.920218994140625,-0.019085808742046354,-0.05010974642857909,-0.05862783779650926
1783693637573182200,1.93018212890625,-0.11056056186854839,-0.03476652174834162,-0.029640155177935956
1783693637583144000,1.94014404296875,-0.23193360965251922,0.02121898484583944,0.009729001527652143
1783693637593107000,1.95010693359375,-0.3288753960132599,0.05175345851499587,0.03884425604864955
1783693637603069200,1.960069091796875,-0.33804888255000115,0.05859335100501775,0.06383388200700282
1783693637613032200,1.9700322265625,-0.21724165195524692,0.01365596571303904,0.0887478123806417
1783693637622994000,1.979993896484375,-0.12337912690937518,-0.01621043596882373,0.09477481758520007
1783693637632957000,1.98995703125,-0.005403904870152473,-0.024533845014870166,0.09677322486080228
1783693637642919200,1.999919189453125,0.10451134483218193,-0.023167525097727775,0.07789462912864982
1783693637652882200,2.009882080078125,0.1524579218775034,-0.001070259580016136,0.08937149723693728
1783693637662844000,2.019843994140625,0.13879413818418979,0.025011472463980316,0.0720981447443366
1783693637672807000,2.029806884765625,0.0777647922039032,0.03320387554150075,0.050148471003770824
1783693637682769200,2.03976904296875,0.03309796748161316,0.04053421842958778,0.026335852935537696
1783693637692732200,2.049732177734375,-0.0271095407217741,0.021395912315323947,0.0031300416540354487
1783693637702694000,2.05969384765625,-0.046265492090582845,0.004560184055007994,-0.03402604211196303
1783693637712657000,2.069656982421875,-0.027037060007452964,0.006990918333269655,-0.05854205920919776
1783693637722619100,2.079619140625,0.042967619588971134,-0.03280475668869912,-0.0757929076090455
1783693637732582100,2.08958203125,0.08097264833450317,-0.04976597449220717,-0.06227788473665714
1783693637742544000,2.0995439453125,0.03579787409007549,-0.017291947595216333,-0.03559599484242499
1783693637752507000,2.1095068359375,-0.008780687826871872,0.02694401142913848,0.010033610497415066
1783693637762469000,2.11946923828125,-0.07760521772801876,0.0499160870200023,0.04216938188336789
1783693637772432100,2.12943212890625,-0.08886486288905143,0.049211847740784284,0.06982742333337665
1783693637782393900,2.139393798828125,-0.08956453559100627,0.03693316173031926,0.10483670432902872
1783693637792356900,2.14935693359375,-0.10527297685444355,0.013836802172660827,0.06442885222546756
1783693637802319000,2.159319091796875,-0.08030220172703266,-0.003941065775975585,0.04448233500085771
1783693637812282000,2.1692822265625,-0.029124387675523757,-0.017587861801870167,0.02035414817743003
1783693637822243800,2.179243896484375,0.042240474358201024,-0.026062808147817848,0.003464534305408597
1783693637832206800,2.189206787109375,0.018260463833808898,0.0018907456500455737,-0.019326047238707542
1783693637842169000,2.199169189453125,-0.052830257433652876,0.03220679079554975,-0.045844709395244716
1783693637852132000,2.209132080078125,-0.0786269619911909,0.035961795947514474,-0.06447144925817846
1783693637862094800,2.2190947265625,-0.08520809394717216,0.01693688707984984,-0.06543832152895629
1783693637872057000,2.22905712890625,-0.09898936654031276,0.029598434928059577,-0.038895547844469545
1783693637882020000,2.23902001953125,-0.08597615571022033,0.04034267791286111,0.011296031648665666
1783693637891982000,2.248982177734375,-0.005198153164982795,0.020021957080997525,0.023344342969357966
1783693637901944800,2.25894482421875,0.03476970008611679,0.016567213517241178,0.027598054891079662
1783693637911907000,2.268906982421875,0.017969956454634665,0.024038645376451312,0.032470264037325974
1783693637921870000,2.2788701171875,0.000436053329706192,0.02439282910898328,0.04913374100327492
1783693637931832000,2.28883203125,-0.004946224230527877,0.013289470488205552,0.04571721055805683
1783693637941794800,2.298794921875,-0.029147184029221535,0.01043404452446848,0.05211670233681798
1783693637951757000,2.308757080078125,-0.05675707548856735,-0.008554916246980428,0.06074731416851282
1783693637961720000,2.318719970703125,-0.06413491078019141,-0.022133578940108416,0.05129639892987907
1783693637971682000,2.32868212890625,-0.09996727166175842,-0.01566639221999794,0.041123891418427226
1783693637981644800,2.338644775390625,-0.10726327388882637,-0.013128434707596897,0.04038395977132022
1783693637991607000,2.34860693359375,-0.06415361548066138,-0.015522928628697991,0.0463110847979784
1783693638001570000,2.358570068359375,-0.060467035922408104,0.03152041596658528,0.04646247596740723
1783693638011532000,2.368531982421875,-0.11743044763803481,0.064019358109124,0.030012203360721468
1783693638021495000,2.3784951171875,-0.09760931035876273,0.05335066457856446,0.014282353983074425
1783693638031457000,2.38845703125,-0.05262216764092445,0.020468276076391338,0.005162643460184336
1783693638041420000,2.398419921875,-0.05711304931938648,0.013668752129375935,-0.013972557381540535
1783693638051382000,2.408382080078125,-0.05704641382396221,0.0060153878320008515,-0.02406469313316047
1783693638061345000,2.418344970703125,0.00021218144595623015,-0.03615742811746895,0.01097505606599152
1783693638071307000,2.42830712890625,0.07387655259370804,-0.06294321677759289,0.01992532830610871
1783693638081270000,2.43827001953125,0.07566811218559742,-0.049148061789572234,0.02345576745457947
1783693638091232000,2.44823193359375,-0.0002478372812271118,-0.01485492970664054,0.0451668101336807
1783693638101195000,2.458195068359375,-0.04057809410393238,0.01602667689975351,0.06488207588568329
1783693638111157000,2.468156982421875,-0.07941782010793685,0.06118965110853314,0.0645675300437957
1783693638121120000,2.4781201171875,-0.11933131282329558,0.0852556228833273,0.0511265222556889
1783693638131082000,2.48808203125,-0.1336748954743147,0.04674436164870858,0.03927446415945887
1783693638141045000,2.498044921875,-0.1293131931334734,0.02548215871565044,-0.0006890782427042722
1783693638151007000,2.508007080078125,-0.11593114899098872,-0.018299480669945477,-0.0592268996682018
1783693638160970000,2.517969970703125,-0.054610126587748525,-0.012003266602568327,-0.05605798730850219
1783693638170933000,2.52793310546875,0.04459259044229984,-0.0322463190883398,-0.02407104980871081
1783693638180895000,2.53789501953125,0.04891805242598057,-0.025551059233397243,-0.020342676935344934
1783693638190858000,2.54785791015625,0.037246903854608535,-0.00569254908580333,-0.02448642567656934
1783693638200820000,2.557820068359375,0.0429559291511774,-0.007321209733560681,0.024253493703529236
1783693638210783000,2.567782958984375,0.06677402711212635,0.014685308760777114,0.05482303868606686
1783693638220745000,2.577744873046875,0.011411036330461501,0.045887233362719416,0.07997377349026501
1783693638230708000,2.5877080078125,-0.11321721385717391,0.08234086794778704,0.1031043275784701
1783693638240670000,2.597669921875,-0.14622925662100314,0.08141472954619676,0.09038710402026771
1783693638250633000,2.607633056640625,-0.06865326498746871,0.04877334672566503,0.06462795499414205
1783693638260595200,2.61759521484375,-0.01742693561911583,0.039462424479611215,0.0332953897498548
1783693638270558000,2.627557861328125,0.010181202274560928,0.03378894542045891,0.01417969732619822
1783693638280520000,2.63752001953125,0.04546761971116066,0.019336605165340005,0.02974609977044165
1783693638290483000,2.64748291015625,0.08242343166470527,-0.015375373384170233,0.0003268208015710115
1783693638300445200,2.657445068359375,0.056979778328537935,-0.016018566658534107,-0.020154607017338275
1783693638310408000,2.667407958984375,-0.04926876555979252,0.007271342709846794,-0.025543898840248585
1783693638320370000,2.677369873046875,-0.1266203007876873,0.013306458155624567,-0.0015313012205064296
1783693638330333000,2.6873330078125,-0.1031271969974041,0.004710844572074711,0.010662190724536776
1783693638340295200,2.697295166015625,-0.07371288646459578,0.003909830387495458,0.0031008155595511197
1783693638350258000,2.7072578125,-0.11447452044188976,0.017925386660546064,0.0029453327368944883
1783693638360220000,2.717219970703125,-0.0713987643033266,-0.0004244724897667765,0.012505918895080684
1783693638370183000,2.727182861328125,-0.009006313276290893,-0.007577851375751197,0.025158991175889968
1783693638380145200,2.737145263671875,0.011963409516215323,0.013126644609309733,0.01970679018460214
1783693638390108000,2.74710791015625,-0.008631634745001792,0.038695787488669156,0.08382095043770968
1783693638400070000,2.75706982421875,-0.011778116077184677,0.05941281416174024,0.11310483952388167
1783693638410033000,2.767032958984375,-0.02965630259513855,0.04779208060335367,0.09375380397439002
1783693638419995100,2.7769951171875,-0.062252750295400616,0.006538133064471185,0.07616196011714636
1783693638429958100,2.786958251953125,-0.11375497399568557,-0.045142296746931966,0.0050264498598873615
1783693638439919900,2.796919921875,-0.15673311497867107,-0.07670067010372876,-0.04028444491960108
1783693638449883000,2.8068828125,-0.12486439703106879,-0.0818687203913927,-0.04384169900976121
1783693638459846100,2.81684619140625,-0.10316519092023373,-0.0745203303899616,-0.04738565522693097
1783693638469808600,2.82680859375,-0.11692775881290435,-0.03276376709118485,-0.010049684849381447
1783693638479771600,2.836771728515625,-0.08491407943665981,0.01888754622358829,0.031089184942468998
1783693638489733400,2.8467333984375,-0.026447861942648886,0.04615673448648303,0.0965397083658725
1783693638499696400,2.8566962890625,-0.017730302479863166,0.061054005497507745,0.10876951373331248
1783693638509658600,2.86665869140625,-0.021769348737597463,0.10257131668031215,0.08206183181069791
1783693638519621600,2.87662158203125,0.005602057790756225,0.08322930468749254,0.06046067924685776
1783693638529583400,2.886583251953125,0.009063596421480179,0.05399908201731741,0.010092062686383723
1783693638539546400,2.89654638671875,-0.012572481325268744,0.019238734281435608,-0.06394084951281548
1783693638549508600,2.906508544921875,-0.03623685002923011,-0.00014459610246121883,-0.10340776750445366
1783693638559471600,2.9164716796875,-0.009734627550840378,-0.03346110170558095,-0.12899784357398747
1783693638569433600,2.92643359375,0.005434884530305862,-0.05480634327959269,-0.14695669411271808
1783693638579396600,2.936396728515625,0.0025561142235994336,-0.04318688836283981,-0.11999774084277451
1783693638589358600,2.946358642578125,0.0021077859342098237,-0.04470679140649736,-0.08150317501462996
1783693638599321600,2.956321533203125,0.021252631387114522,-0.05769698668718338,-0.0025656857695430515
1783693638609283600,2.96628369140625,0.01250292322039604,-0.026036175869219004,0.08115231575034558
1783693638619246600,2.97624658203125,-0.01784428424835205,0.0016967574479058384,0.12979761564955114
1783693638629208600,2.98620849609375,-0.029242461097240446,0.028326186502538618,0.14095876887217162
1783693638639171600,2.996171630859375,-0.04215396511852741,0.020466559043340382,0.11490290192179381
1783693638649133600,3.006133544921875,-0.10312602795362472,0.0037807241151109334,0.0802802821561694
1783693638659096600,3.0160966796875,-0.13106091358363628,0.017512239282391963,0.0396162633344531
1783693638669058600,3.02605859375,-0.16216683046519756,0.006637611383572221,0.018909940718486905
1783693638679021600,3.036021484375,-0.19520166958272456,-0.010086875054612756,-0.003523571016266942
1783693638688983600,3.045983642578125,-0.17829495844542978,-0.002913293630816042,-0.01698211446106434
1783693638698946600,3.055946533203125,-0.13106675880253313,-0.020062033363059163,0.003224076613038778
1783693638708908500,3.065908447265625,-0.07896013946831226,-0.006135616678185761,0.00724924047589302
1783693638718871600,3.07587158203125,-0.06191080498993396,0.029140644690580666,0.021472411617636678
1783693638728833800,3.085833740234375,-0.024201544320583343,0.04135360852107405,0.031794775928556916
1783693638738796500,3.095796630859375,0.054091655671596524,0.005071823371574282,0.03476261275820434
1783693638748758500,3.105758544921875,0.09711655840575695,0.01751395631544292,0.01573335650898516
1783693638758721500,3.115721435546875,0.08151917630136013,0.020614114287868142,0.002266995083913207
1783693638768683800,3.125683837890625,0.09173837249875068,0.006981858243979513,-0.009285203282907604
1783693638778646500,3.135646484375,0.1257008478552103,-0.025570896445028482,-0.023052228154987097
1783693638788609500,3.145609619140625,0.11275251895487308,-0.049644393939152355,-0.04779796235486865
1783693638798571500,3.155571533203125,0.08713876974880695,-0.03707717331089079,-0.021692045717686414
1783693638808534500,3.165534423828125,0.022198972326517102,0.0049593394404277204,0.00853906109072268
1783693638818496500,3.17549658203125,-0.031655367457866665,0.03131470079403371,0.04244271893203258
1783693638828459500,3.18545947265625,-0.11382920827567576,0.036069274909980596,0.020035729878023267
1783693638838421500,3.19542138671875,-0.18531857347190378,0.01712006162703037,0.02951265634074807
1783693638848384500,3.205384521484375,-0.2190156758904457,0.002491341891698539,0.03638926411196589
1783693638858346500,3.215346435546875,-0.2204395712137222,-0.013406155670434235,0.010762582359090446
1783693638868309500,3.2253095703125,-0.19689327593147754,-0.0326931860730052,0.00011595452986657619
1783693638878271500,3.235271484375,-0.1256219374001026,-0.0023686288274824617,0.04970620712898671
1783693638888234500,3.245234375,-0.05931961945295334,0.02002831375654787,0.11132131710797548
1783693638898196500,3.255196533203125,0.006179565417766571,0.04933839672990143,0.13036964338384568
1783693638908159500,3.265159423828125,0.037676527443528174,0.06236998346690088,0.13343158823773263
1783693638918121500,3.27512158203125,0.021434417694807053,0.04499437617622316,0.08796820631027222
1783693638928084700,3.285084716796875,0.003251110750436783,0.009220942407660186,0.02591455878354609
1783693638938046500,3.29504638671875,0.01070785649716854,-0.017909823765233156,-0.02806640305519104
1783693638948009500,3.305009521484375,0.035298692396283145,-0.056940944155491884,-0.054357320870459074
1783693638957971500,3.314971435546875,0.04503507351279259,-0.05493994306400418,-0.07590659711658954
1783693638967934700,3.324934814453125,0.06058452482223511,-0.046131709643080825,-0.0706169662758708
1783693638977896400,3.334896484375,0.07902092974483967,-0.0018387962670996785,-0.0007628741312772035
1783693638987859500,3.344859375,0.05539630852937698,0.012778379160910845,0.05445617813505232
1783693638997821700,3.35482177734375,-0.005046177473664284,0.03190568895712494,0.07288483814261854
1783693639007784700,3.36478466796875,-0.04736673133075237,0.04616674442384392,0.07421272574551403
1783693639017746700,3.37474658203125,-0.07205752047300339,0.04713208232466131,0.07450929753929376
1783693639027709400,3.38470947265625,-0.1503700096875429,0.05007146024480462,0.05979322831407189
1783693639037671700,3.394671630859375,-0.16286942577660082,0.048241139545105394,0.03138867934569716
1783693639047634700,3.404634765625,-0.1765823093086481,0.0012580372370779513,0.023148235875368118
1783693639057596700,3.4145966796875,-0.17205752536058425,-0.009966500077955425,-0.013537819226086139
1783693639067559400,3.424559326171875,-0.1730839457988739,-0.008623561036400497,-0.026108473920449612
1783693639077522400,3.4345224609375,-0.1367149938225746,-0.01642309233881533,-0.00776237762980163
1783693639087484700,3.444484619140625,-0.1120896711319685,-0.008503259124979377,0.04065612777620554
1783693639097447700,3.45444775390625,-0.0703098000228405,-0.009345153309218585,0.05915244619250297
1783693639107409400,3.464409423828125,-0.009284545695781707,0.00986676603052765,0.09792261409163475
1783693639117372400,3.474372314453125,0.018481997630000115,0.027422844454646107,0.12714381320513785
1783693639127334700,3.484334716796875,0.03501403023600578,0.04197937573660165,0.1117872541192919
1783693639137297700,3.494297607421875,0.017003741770982742,0.06157762751281261,0.0817809690427035
1783693639147259400,3.50425927734375,0.0005582184046506881,0.03240384773761034,0.034217253835126756
1783693639157222400,3.514222412109375,0.035328503012657164,0.003646649406664073,0.0005133563496172428
1783693639167184600,3.5241845703125,0.06056114394664764,-0.038540377731248736,-0.04570931951254606
1783693639177147600,3.534147705078125,0.04334288264214992,-0.043516741371713574,-0.05134425665959715
1783693639187109400,3.544109375,0.04504442586302757,-0.034313042359799144,-0.03857216110900044
1783693639197072400,3.554072265625,0.06476677894294261,-0.009712086925469338,0.012813085148110985
1783693639207034600,3.56403466796875,0.05324234536588192,0.0324177666651085,0.05725282311625778
1783693639216997600,3.57399755859375,0.01224631811082363,0.058006491027772424,0.054000908648222684
1783693639226959400,3.58395947265625,-0.02215688675045967,0.09032927288580685,0.04894684012904763
1783693639236922600,3.593922607421875,-0.005799626189470291,0.06825410960204899,0.04308868868537247
1783693639246884600,3.603884521484375,0.0011135141998529433,0.03929302272945642,0.006694529202580452
1783693639256847600,3.61384765625,-0.034904140120744706,0.0061577189121395344,-0.03285502557121217
1783693639266809300,3.623809326171875,-0.05983925941288471,-0.013131466914899647,-0.07126154778972267
1783693639276772600,3.633772705078125,-0.07613280708789825,-0.029529644008167086,-0.06594327537640929
1783693639286734600,3.643734619140625,-0.07676876690387725,-0.032725955831445754,-0.053633682771027084
1783693639296697600,3.653697509765625,-0.06845452754497527,-0.025735622020065782,-0.04330255063176155
1783693639306659600,3.66365966796875,-0.04739537290334701,-0.02335084577538073,-0.021775120891258118
1783693639316622600,3.67362255859375,-0.04487023833990097,-0.01030643608942628,0.015402370988950132
1783693639326584600,3.68358447265625,-0.026827801170945166,0.005804338897205889,0.08923815318085253
1783693639336547600,3.693547607421875,-0.07153904955685138,0.020582696236297486,0.11449337127283214
1783693639346509600,3.703509521484375,-0.10982874046266078,0.03611563480235636,0.11497085259146987
1783693639356472600,3.71347265625,-0.13590309291779995,0.03478518991619348,0.1082484124686569
1783693639366434600,3.7234345703125,-0.13761515753269193,0.03889368468094617,0.06273483472391962
1783693639376397600,3.7333974609375,-0.12138064656853675,0.001997640090622008,0.029915976444631814
1783693639386359600,3.743359619140625,-0.07346271109580993,-0.014647716696746646,0.017120573083683848
1783693639396322600,3.753322509765625,-0.025007600006461142,-0.0014137757880613208,-0.02037709066160023
1783693639406284500,3.763284423828125,-0.012230536019802092,0.0008733122358098625,-0.014115472983568906
1783693639416247600,3.77324755859375,-0.01186111818552017,0.0041822541207075115,-0.01964563458189368
1783693639426210600,3.78321044921875,0.008460369831323623,-0.006942439549043774,-0.07131357023790479
1783693639436172500,3.793172607421875,0.057119479060173034,-0.009053732614591718,-0.07144698735922575
1783693639446135600,3.803135498046875,0.041917233753204344,-0.017467231096886096,-0.052231195561960334
1783693639456097500,3.81309765625,0.010613748472929,-0.022884653035737574,-0.05414353198930621
1783693639466060500,3.823060546875,0.024835750570893288,-0.006944156582094728,-0.008178557215258479
1783693639476022300,3.833022216796875,0.035762218254804606,-0.02221628878749907,0.03431837612204253
1783693639485985300,3.8429853515625,0.001308159989118576,-0.009124605893716215,0.051972836886718866
1783693639495947300,3.852947265625,-0.03525602229833603,0.008035824276320635,0.047972953595593566
1783693639505910300,3.86291015625,-0.08767126919031143,0.007121084051579236,0.025615721967443824
1783693639515872500,3.87287255859375,-0.09427695106565952,0.012233495161868632,0.004866875384002924
1783693639525835300,3.882835205078125,-0.09622048634886742,-0.005438391661643982,-0.007216580315306783
1783693639535797200,3.89279736328125,-0.08883037609755992,0.001750350798666477,0.0065425535112619395
1783693639545760500,3.902760498046875,-0.08309563183784484,0.015582622926682234,0.030309359676390885
1783693639555722500,3.912722412109375,-0.08875438825190067,0.006504048131778836,0.02684862476326525
1783693639565685200,3.922685302734375,-0.08802315136790274,0.005258212789148092,0.06689582686088978
1783693639575647200,3.932647216796875,-0.07226736383140087,0.015884930341504514,0.08925590803325176
1783693639585610500,3.942610595703125,-0.04940671272575855,-0.0023204788368195294,0.07255377955734729
1783693639595572500,3.952572509765625,-0.014341829085350036,-0.011423493953235447,0.07485869549885392
1783693639605535200,3.96253515625,-0.008359832066297531,-0.014615348797105252,0.07053089542761444
1783693639615497500,3.97249755859375,-0.00840600929558277,-0.009717530285567044,0.06992628059796989
1783693639625460500,3.98246044921875,-0.0736953508079052,-0.0003502016771584749,0.059306102384254336
1783693639635422500,3.99242236328125,-0.1486748962074518,0.006178907830640673,0.0000478577297180891
1783693639645385200,4.00238525390625,-0.1988940943598747,-0.0013879472270607947,0.008555500768870114
1783693639655347500,4.012347412109375,-0.2198427743643522,-0.01814355945587158,-0.011244374526664614
1783693639665310500,4.022310546875,-0.14290917228758335,-0.02505786888897419,0.017860796991735695
1783693639675272400,4.0322724609375,-0.06762626002728939,-0.03692410164102912,0.05164002473577857
1783693639685235200,4.042235107421875,0.0405816012352705,-0.033079993433505296,0.07501965821422636
1783693639695197400,4.052197509765625,0.10290040250420569,-0.02878525538165122,0.09602211423255502
1783693639705160400,4.062160400390625,0.14341127659082412,-0.009268106017634272,0.10054930933341383
1783693639715122400,4.072122314453125,0.13245149115920066,0.03536806783806532,0.12954575978033245
1783693639725085200,4.082085205078125,0.08036883722245693,0.06717416887823492,0.12434884872436523
1783693639735047400,4.09204736328125,0.04867898297309875,0.055767589527182276,0.10459405467957257
1783693639745010400,4.102010498046875,0.0061035775721073144,0.03476538923718035,0.06787709298320115
1783693639754973400,4.111973388671875,-0.051398178803920745,0.032640359907224775,0.022349925104528663
1783693639764935200,4.12193505859375,-0.12950082466006277,0.005582184046506881,-0.027377909334376452
1783693639774898200,4.131898193359375,-0.16205810939371584,-0.013807612610794603,-0.06623137160278857
1783693639784860400,4.1418603515625,-0.15822832197248934,-0.004658054938912391,-0.07585311336368322
1783693639794823400,4.151823486328125,-0.1187993979036808,0.017929514846391974,-0.021492431492358445
1783693639804785200,4.16178515625,-0.03898819456398487,0.04255805240739137,0.012421455482020973
1783693639814748200,4.171748046875,0.026278935116529463,0.03903097425978631,0.03237608294785022
1783693639824710400,4.18171044921875,0.06186462776064872,0.026976269730925557,0.04599778106510639
1783693639834673400,4.19167333984375,0.0757686499506235,0.007151515722461045,0.011862360294535756
1783693639844635100,4.20163525390625,0.1386415779709816,-0.005071823371574282,-0.0028049013528972863
1783693639854598400,4.211598388671875,0.13543313731849194,0.005957410567067563,-0.029973259589821097
1783693639864560400,4.221560302734375,0.0911491744339466,0.03743658120781183,-0.01975464791432023
1783693639874523400,4.2315234375,0.028614684587717053,0.056557242067530746,0.005911781327053904
1783693639884485000,4.241485107421875,-0.07333586984574794,0.06962152549773454,-0.018193609142675995
1783693639894448400,4.251448486328125,-0.13490999022722244,0.06498243098761886,-0.04719100943766534
1783693639904410400,4.261410400390625,-0.18182488613724707,0.015388963518105446,-0.05908274195715785
1783693639914373400,4.271373291015625,-0.17787059555351734,-0.005281118740700185,-0.04686418863609433
1783693639924335400,4.28133544921875,-0.144288059425354,-0.005589052178710699,-0.010528773603215812
1783693639934298400,4.29129833984375,-0.1005477018982172,-0.013366115920990705,0.03570990354567766
1783693639944260400,4.30126025390625,-0.0508726936250925,-0.0008715952027589083,0.08134126245118677
1783693639954223400,4.311223388671875,-0.013481412863731383,0.03436729329768568,0.13006956445872783
1783693639964185600,4.321185546875,0.033031331986188885,0.06176018100548535,0.12941511913798748
1783693639974148400,4.3311484375,0.060820087143778796,0.07411441647019237,0.11892075926102696
1783693639984110300,4.3411103515625,0.061253217864036556,0.06242156752366572,0.08252470008209348
1783693639994073300,4.3510732421875,0.05472761548757553,0.029734920789301393,0.011909998828545211
1783693640004035600,4.36103564453125,0.034173487758636475,-0.0012999766826629637,-0.030060499481856823
1783693640013998300,4.370998291015625,-0.010285831692814827,-0.01756122952327132,-0.08277721353843807
1783693640023960300,4.380960205078125,-0.031212299865484235,-0.03741575761549175,-0.10085282232463359
1783693640033923300,4.39092333984375,-0.053474985077977176,-0.0340217677956447,-0.10386793236210942
1783693640043885600,4.400885498046875,-0.0674994187772274,-0.03889207724574953,-0.09227605957202613
1783693640053848300,4.410848388671875,-0.03304419146776199,-0.05499518038257956,-0.08273965800702571
1783693640063810300,4.420810302734375,-0.0236065010368824,-0.05516874685119837,-0.03454655885472894
1783693640073773300,4.430773193359375,-0.004784311667084693,-0.03441157083082944,0.011800400974228978
1783693640083735600,4.440735595703125,-0.00019172317981719968,0.004262224021740257,0.06808006820939481
1783693640093698300,4.4506982421875,0.01061199490725994,0.003937631709873676,0.11369060352258384
1783693640103660300,4.460660400390625,-0.026695114701986312,0.034536914243549106,0.11490253659561275
1783693640113623300,4.470623291015625,-0.12446283049285412,0.05434548430219292,0.08432714639417827
1783693640123586300,4.48058642578125,-0.2011345667630434,0.03918722426742315,0.07991466371417046
1783693640133548300,4.49054833984375,-0.22516250808238983,-0.006997713400237262,0.05008884977102279
1783693640143511300,4.50051123046875,-0.17828034539818763,-0.031042021332494913,-0.01059782025143504
1783693640153473300,4.510473388671875,-0.14445640172958374,-0.03207136438023299,-0.004243994245305657
1783693640163436300,4.520436279296875,-0.05921732812225818,-0.02801807040143758,0.0008422960430383682
1783693640173398300,4.530398193359375,0.006973930665850639,-0.013542130075022578,0.008453574764356016
1783693640183361300,4.540361328125,0.04861819269657135,0.0035526509802788495,-0.014922989974170922
1783693640193323300,4.5503232421875,0.06815817494690418,0.01132657291740179,-0.009866875628381967
1783693640203286500,4.56028662109375,0.06365735639631748,0.02318221121020615,0.0004592880748212337
1783693640213248300,4.570248291015625,0.022391864550113678,0.03761811178717762,-0.012840411546453833
1783693640223211300,4.580211181640625,-0.04548457084596157,0.028715295417979358,-0.025712606470659375
1783693640233173200,4.59017333984375,-0.08535422441959381,0.005412709231115877,-0.043784561995044345
1783693640243136500,4.600136474609375,-0.08194879989027977,-0.020093524479866027,-0.05710040903352201
1783693640253098200,4.61009814453125,-0.0538444029122591,-0.06717219611685722,-0.027282997592538594
1783693640263061200,4.620061279296875,-0.009753916773200035,-0.07350191059503704,-0.0005392214432358741
1783693640273023500,4.6300234375,0.0347866512209177,-0.06978464363757521,0.019871625357493757
1783693640282986500,4.639986572265625,0.0748491970181465,-0.0495137167641893,0.08315415709204971
1783693640292948200,4.6499482421875,0.02222352224588394,-0.00320694281514734,0.12413995521403848
1783693640302911200,4.6599111328125,-0.0987216555148363,0.04262910834960639,0.1429608294095844
1783693640312873500,4.66987353515625,-0.19742168371975422,0.06180924431160092,0.12487491842508315
1783693640322836500,4.67983642578125,-0.24374504347741602,0.0348946781726554,0.07068908166401087
1783693640332798500,4.689798583984375,-0.22404081057608127,-0.006626249739341438,0.03838226456008851
1783693640342761200,4.69976123046875,-0.1440127496153116,-0.024460706713423132,0.044023850643634795
1783693640352723500,4.709723388671875,-0.05222293919026851,-0.03846778741907328,0.04287818773984909
1783693640362686500,4.7196865234375,0.01572597692012787,-0.03506897529363632,0.021161153711378573
1783693640372648400,4.7296484375,0.004800678279995918,-0.02519369716309011,0.014920578821375966
1783693640382611200,4.739611083984375,-0.03020166151821613,0.009799290284886956,0.007148410449922084
1783693640392573400,4.749573486328125,-0.06026888300180435,0.0164296316774562,0.04801723112873733
1783693640402536400,4.759536376953125,-0.07297054366469383,0.00994081764742732,0.0476133265029639
1783693640412498400,4.76949853515625,-0.05105097280144691,0.0008310805292800069,0.06762786746248603
1783693640422461200,4.779461181640625,0.03374678677916527,-0.03221811590716243,0.07409560217186809
1783693640432423400,4.78942333984375,0.1263496671527624,-0.06969590590819716,0.06743555976077914
1783693640442386400,4.799386474609375,0.12275368848741054,-0.07002637997157872,0.07424640881940722
1783693640452348400,4.809348388671875,0.12533727523982524,-0.00013016571830958126,0.06893186273314059
1783693640462311200,4.819311279296875,0.10384206726849078,0.029144590213336048,0.08536138481274247
1783693640472274200,4.829274169921875,0.01708615935742855,0.0533306812364608,0.07909246061109006
1783693640482236000,4.83923583984375,-0.07307751117050647,0.06430551810674369,0.04709945869669318
1783693640492199000,4.849198974609375,-0.1230734219610691,0.03092014851849526,-0.014972820465266703
1783693640502161200,4.8591611328125,-0.13880816670954227,0.01402531048208475,-0.05705087080337107
1783693640512124200,4.869124267578125,-0.1535112303227186,-0.021271043826639652,-0.04853942837193608
1783693640522086000,4.8790859375,-0.11342062747478485,-0.02663326497953385,-0.045685500245541334
1783693640532049000,4.889048828125,-0.0415793801009655,-0.03263930046129972,-0.03310344737432897
1783693640542011100,4.89901123046875,-0.01287292557656765,-0.013915310768969355,-0.0018598755877465008
1783693640551974100,4.90897412109375,0.0043839141726493835,0.007028072005882859,0.03198255358561873
1783693640561936000,4.918935791015625,0.03414893783926964,0.02076689369678497,0.08454889938607811
1783693640571899000,4.92889892578125,0.031876901254057885,0.020999095017462967,0.0817951436985284
1783693640581861000,4.938861083984375,0.021229250511527062,-0.001699205133318901,0.05218004989661276
1783693640591824100,4.94882421875,-0.0064461073994636535,-0.0008584799928590655,0.014123583224788308
1783693640601785900,4.958785888671875,-0.05157061276137829,-0.008498948276042938,-0.023605258927866815
1783693640611748900,4.968748779296875,-0.0966693991601467,-0.018539280775189397,-0.0248034557364881
1783693640621711000,4.978711181640625,-0.09704992291033267,0.008371193710528314,-0.013839578651636838
1783693640631674000,4.988674072265625,-0.12515665797591208,0.026871201921254396,0.006183510940521955
1783693640641635800,4.9986357421875,-0.17215280242860317,0.02874225649014115,0.0013332213651388882
1783693640651598800,5.008598876953125,-0.17561024940609932,0.026904702332057058,0.016294643653556703
1783693640661561000,5.01856103515625,-0.12120236739218235,0.002959178599156439,0.019221783146634697
1783693640671524000,5.028524169921875,-0.06865268046557903,-0.000883029912225902,0.015341872973367572
1783693640681485800,5.03848583984375,-0.023142975178360937,0.010416070476360619,0.026470000709220766
1783693640691448800,5.04844873046875,0.041838907819986344,0.031143253217265007,0.04119498389326036
1783693640701411000,5.0584111328125,0.07165420036911964,0.04617419707793742,0.04523775647804141
1783693640711374000,5.0683740234375,0.05343699115514755,0.055156727619841694,0.04115158314295113
1783693640721335800,5.078335693359375,0.020887889727950096,0.02854362864550203,-0.00370718395486474
1783693640731298800,5.088298828125,-0.0020364742636680604,-0.008633205647580326,-0.04493490107394755
1783693640741261000,5.098260986328125,-0.024806524476408957,-0.04891973292641341,-0.06176832777932286
1783693640751224000,5.10822412109375,-0.05801613563895225,-0.04786299041509628,-0.058573111934587356
1783693640761185800,5.118185791015625,-0.010527239233255386,-0.048024501119740305,-0.04985781749412417
1783693640771148800,5.128148681640625,0.021528525719046593,-0.023449118518084285,-0.003968976696208119
1783693640781111000,5.138111083984375,0.019893033471703528,0.023857005199231205,0.037902518219128246
1783693640791074000,5.148073974609375,-0.016909633746743202,0.0429916580516845,0.06071852646544575
1783693640801035800,5.158035888671875,-0.03726736212074756,0.04449194307941943,0.051732013868167996
1783693640810999000,5.1679990234375,-0.04803308628499508,0.04312657301034778,0.028098844020068642
1783693640820961000,5.1779609375,-0.06731997055709361,0.0276023657400161,-0.001534077699482441
1783693640830924000,5.187924072265625,-0.05788403369188309,-0.01879603201523423,-0.0332082959882915
1783693640840885800,5.1978857421875,-0.06330488969683647,-0.022121742371842265,-0.06035137365348637
1783693640850849000,5.20784912109375,-0.06495616403520107,-0.024031923374719915,-0.04430032949745655
1783693640860812000,5.21781201171875,-0.02439677463173866,-0.03379522903077304,-0.027273499111831186
1783693640870774000,5.22777392578125,-0.0034568624556064603,-0.027148667155764996,0.011541603907570242
1783693640880737000,5.237737060546875,-0.022809797701239583,0.012720657624304294,0.05094743936173617
1783693640890699000,5.247698974609375,-0.0649064796745777,0.050815337414667004,0.09601751112267375
1783693640900662000,5.257662109375,-0.07722235589027404,0.052615774432756,0.119486722580716
1783693640910624000,5.2676240234375,-0.0623363369256258,0.03999879637863487,0.11567841633893548
1783693640920587000,5.2775869140625,-0.07950432934761047,0.015302125484868883,0.09928221200704573
1783693640930549000,5.287549072265625,-0.07707680993974209,0.013605477634817361,0.07617408894635737
1783693640940512000,5.297511962890625,-0.06524141071736812,0.013971205674670636,0.04489690715111792
1783693640950474000,5.307473876953125,-0.048184477454423905,-0.005841602167673409,0.0010607610993087291
1783693640960437000,5.31743701171875,0.002551438048481941,-0.0252921891015023,-0.030562238458916542
1783693640970399000,5.32739892578125,0.025475802040100096,-0.0062060880985111,-0.04562222575098276
1783693640980362000,5.337362060546875,0.008189151674509048,0.008268938912451267,-0.051165392961353064
1783693640990324000,5.347323974609375,-0.038061142846941946,0.025138605974987148,-0.05612191939018667
1783693641000287000,5.357286865234375,-0.04322247113287449,0.01481090790182352,-0.026210253794491288
1783693641010249000,5.3672490234375,0.009985387441515921,0.011708265711367129,0.0032826018672436476
1783693641020212000,5.3772119140625,0.021122867527604103,-0.008612162859551608,0.019108093639090655
1783693641030174000,5.387174072265625,-0.0020154314756393433,0.0008856602607294916,0.03856974995620548
1783693641040137000,5.397136962890625,-0.009451134434342383,-0.0034456834744662043,0.06352284329645336
1783693641050099000,5.407098876953125,-0.010771569383144377,-0.008939970041811466,0.1026007619705051
1783693641060062000,5.41706201171875,-0.01509936945438385,-0.017231559177488087,0.08267046522833406
1783693641070024000,5.42702392578125,-0.05489537326991558,-0.024633688660152257,0.08452902564182876
1783693641079987000,5.436987060546875,-0.07538461906909942,-0.013839030662365257,0.08961210105977951
1783693641089949000,5.446948974609375,-0.11444704791307449,0.033552615913935005,0.08258402905389665
1783693641099912000,5.456911865234375,-0.15445231056511402,0.05834281031005084,0.08275975094698369
1783693641109874000,5.4668740234375,-0.1689355939477682,0.044155368068814274,0.07468129310533404
1783693641119837000,5.4768369140625,-0.18571721740067004,0.04262066931482404,0.046577261453494424
1783693641129799000,5.486798828125,-0.18680618168115615,0.05408738135527819,0.027206571355462072
1783693641139762000,5.496761962890625,-0.14017594793140886,0.0406626305822283,0.01913965782113373
1783693641149724000,5.506723876953125,-0.0507639725536108,0.023752631509304047,0.02135265769548714
1783693641159687200,5.516687255859375,0.026513328394293784,0.012610146454535424,-0.0010743512332439423
1783693641169649000,5.52664892578125,0.08466039693653583,-0.008147979413904249,-0.012618658554553986
1783693641179612000,5.53661181640625,0.11622574802339077,-0.008057341988384724,0.010992591722682118
1783693641189574000,5.546573974609375,0.12393033105134964,0.004877214114926755,0.01953808255419135
1783693641199537200,5.556537109375,0.07873451401889324,0.029528146170824766,0.023665903073921798
1783693641209499000,5.566498779296875,0.024734628283977506,0.03440970766730606,0.02542648300565779
1783693641219462000,5.5764619140625,0.003206687086820602,0.029425891372747717,0.03748217391520738
1783693641229425000,5.5864248046875,-0.019350597158074377,0.02333148348778486,0.02515577630549669
1783693641239387100,5.59638720703125,-0.026622633987665175,-0.019840316903777418,0.004974719672650099
1783693641249348900,5.606348876953125,-0.051557753279805184,-0.03450326770227402,-0.011594795399531722
1783693641259311900,5.616311767578125,-0.06932663420438766,-0.013403123463131487,0.0008252718430012464
1783693641269275000,5.62627490234375,-0.10375263541936874,-0.006082498251460493,0.0011678747355937957
1783693641279237000,5.636237060546875,-0.12996961121559142,0.005510360919311642,0.002762815776839852
1783693641289200000,5.6462001953125,-0.12274082900583744,0.015496332882717252,0.01108509231172502
1783693641299161900,5.656161865234375,-0.06911445275843144,-0.00339468393959105,0.021128566616028546
1783693641309124900,5.666124755859375,-0.03796118960380554,-0.01696728221811354,0.010361161951348185
1783693641319087000,5.676087158203125,-0.0268786545753479,0.003858465526439249,0.0025549451798200606
1783693641329050000,5.686050048828125,-0.0002495908468961716,-0.015331059318408368,0.011014584358781575
1783693641339011800,5.69601171875,0.03802782509922981,-0.004477072348818183,0.02919745291173458
1783693641348974800,5.705974853515625,0.04996083947718143,-0.00001410159058868885,0.05652041718848049
1783693641358937000,5.71593701171875,0.004575052830576897,0.03168002697508782,0.07915968062840402
1783693641368900000,5.725900146484375,0.013996961170434951,0.02401033259741962,0.10327011259943246
1783693641378861800,5.73586181640625,-0.006783376529812812,-0.020751732660271225,0.1061111812442541
1783693641388824800,5.745824951171875,-0.03037117286622524,-0.019074629760906098,0.09234788269922137
1783693641398787000,5.755787109375,-0.04866086279451847,-0.022350801887363193,0.11311463026553392
1783693641408750000,5.76575,-0.04405599934756756,-0.010298873837478458,0.13855061175189912
1783693641418711800,5.7757119140625,-0.03261398335695267,0.031043190376274284,0.1266338178563863
1783693641428674800,5.7856748046875,-0.06746668555140495,0.04563994407076388,0.10255999156869948
1783693641438637000,5.795636962890625,-0.1362321787416935,0.07384173700865358,0.045275750400871034
1783693641448600000,5.80560009765625,-0.2206587669223547,0.09352839772067964,-0.01627666960544884
1783693641458561800,5.815561767578125,-0.23601064983308315,0.0780929647123441,-0.06696516577005386
1783693641468525000,5.825525146484375,-0.24344693731367587,0.03787752990834415,-0.09149937611110508
1783693641478487300,5.8354873046875,-0.1859936962544918,0.03558065114282071,-0.09476268875598907
1783693641488450300,5.8454501953125,-0.13520283569395541,0.011168386681005359,-0.058952758901938795
1783693641498412000,5.855412109375,-0.052739072018861764,-0.01815280220825225,-0.03191204563267529
1783693641508375000,5.865375,0.0355447761118412,-0.01743051581569016,0.00874050194695592
1783693641518337300,5.875337158203125,0.09081132078170776,-0.019828662998601792,0.04321260732598602
1783693641528300300,5.88530029296875,0.11102701033651828,-0.007639006978459656,0.038450361360237
1783693641538262000,5.895261962890625,0.15578268238604068,-0.009199242032505571,0.06830576672405005
1783693641548225300,5.905225341796875,0.17627075914144516,-0.018939897465333342,0.07456263516172766
1783693641558187300,5.915187255859375,0.17286708817780017,0.01289696403928101,0.06927271206006408
1783693641568150300,5.925150390625,0.09317804991304873,0.041731721118465064,0.07224675943478942
1783693641578112000,5.935112060546875,0.010775076514482498,0.04101345331389457,0.06972279391512275
1783693641588075300,5.9450751953125,-0.10013152231276035,0.04003061628900468,0.03574760520756244
1783693641598037200,5.955037353515625,-0.19822130966484547,0.0346914837507531,0.0031223698042333126
1783693641608000300,5.965000244140625,-0.25233634621202944,0.002853087876178324,-0.047639629987999796
1783693641617962200,5.974962158203125,-0.24720599758625028,0.0015524170737713575,-0.055926396818086505
1783693641627925200,5.98492529296875,-0.22160569238364694,0.023052228154987097,-0.050011546751111746
1783693641637887200,5.99488720703125,-0.16313889036774634,0.02594926477074623,-0.019261457569897174
1783693641647850200,6.004850341796875,-0.08046879046559334,0.041659715328179296,0.005817454107105732
1783693641657813200,6.014813232421875,-0.03133855659365654,0.03848795342426747,0.041052652813121676
1783693641667775200,6.024775146484375,0.04146306024491787,0.02557107910811901,0.0727070704229176
1783693641677738200,6.03473828125,0.09993220034837723,0.003625570086017251,0.05502521019466221
1783693641687700200,6.0447001953125,0.11789748062789439,-0.016227021777443586,0.025605492834374306
1783693641697663200,6.054663330078125,0.10243921473324298,-0.02549830613285303,0.02370053599588573
1783693641707625200,6.064625244140625,0.06030103170573711,-0.027292788334190844,0.019153321020305154
1783693641717588200,6.074588134765625,0.007757189998030662,-0.003022124300152063,-0.028054055030271408
1783693641727550200,6.08455029296875,-0.04819616789221763,0.03925155820790678,-0.021185995891690252
1783693641737513200,6.09451318359375,-0.10656067857742309,0.07471033653672784,-0.010654445809498429
1783693641747475200,6.10447509765625,-0.13641981026828287,0.0895762260288,-0.02328252977952361
1783693641757438200,6.114438232421875,-0.15838672740459442,0.07951550832875072,-0.03366751099787652
1783693641767400200,6.124400146484375,-0.13649229098260401,0.046516982633620495,-0.061424921169131994
1783693641777363200,6.13436328125,-0.09905541751384735,-0.005813435519114137,-0.08117723099589347
1783693641787325200,6.1443251953125,-0.07261807696521282,-0.04286021369174123,-0.08249591237902641
1783693641797288200,6.1542880859375,-0.07586568058431148,-0.024140242587402463,-0.09703509066738188
1783693641807250200,6.164250244140625,-0.06010346330702304,-0.01592014778535813,-0.04232179596610367
1783693641817213200,6.174213134765625,-0.027146365600824354,-0.02074924844224006,0.003237666746973991
1783693641827175200,6.184175048828125,0.005502104547619819,0.001975391726195812,0.062240036944299935
1783693641837138200,6.19413818359375,0.03359188847839832,0.007848740739002824,0.096663261680305
1783693641847100200,6.20410009765625,0.0960164882093668,0.019081169099546966,0.14353767944946885
1783693641857063200,6.214063232421875,0.09859189165532588,0.04427512199096381,0.18460954841971397
1783693641867025200,6.224025146484375,0.0922252792328596,0.050807300238683815,0.17127295085415242
1783693641876988200,6.23398828125,0.08586977272629738,0.04558682564403861,0.13193850013576447
1783693641886950100,6.2439501953125,0.023198504757881162,0.034732400283031165,0.08066270560249686
1783693641896913400,6.253913330078125,-0.07973404645025729,0.041471681942790745,-0.002000745363160968
1783693641906875100,6.263875244140625,-0.1351899762123823,0.03690970778949559,-0.06656966364644468
1783693641916838100,6.273838134765625,-0.15008534752726554,0.0151273899724707,-0.09114486358501017
1783693641926800100,6.283800048828125,-0.13086100709736345,-0.024755013484880326,-0.11502192519158125
1783693641936763400,6.293763427734375,-0.07579787604510783,-0.04161488980576396,-0.13109773846268652
1783693641946725000,6.30372509765625,0.0016506898164749145,-0.053760560553707176,-0.10387297386340796
1783693641956688100,6.313688232421875,0.0784182876765728,-0.029090229677595197,-0.044906697892770166
1783693641966650400,6.323650390625,0.10102525628209114,0.0032335020285099744,0.02655022633858025
1783693641976613400,6.33361328125,0.08887772237062454,0.04750621286667883,0.07465725464262069
1783693641986575000,6.3435751953125,0.04377250623106956,0.06866696471925825,0.09262458074875175
1783693641996538000,6.3535380859375,-0.032333412849903105,0.03634798225350678,0.09079100864604114
1783693642006500400,6.363500244140625,-0.0641881022721529,0.004252944736741483,0.06528123127110302
1783693642016463400,6.37346337890625,-0.09036591510176659,-0.0507943676918745,0.004880319387465715
1783693642026425000,6.383425048828125,-0.07881400899589061,-0.0875542917471379,-0.039555619188398124
1783693642036388000,6.39338818359375,-0.052878188228607174,-0.10937668584622443,-0.0597447129972279
1783693642046350300,6.403350341796875,-0.07904664870798588,-0.10805475306008011,-0.07332732121311128
1783693642056313300,6.413313232421875,-0.14148527696430682,-0.07673691046088933,-0.02870397030636668
1783693642066275000,6.423275146484375,-0.21279577846229075,-0.0071953183315694325,0.04445208599306643
1783693642076238000,6.433238037109375,-0.22270400901436804,0.005547660722397267,0.11703932942859828
1783693642086200300,6.443200439453125,-0.1845645402342081,0.0007221037294715643,0.14235175760053098
1783693642096163300,6.453163330078125,-0.14905600447952747,0.016161189999617635,0.13608064144179224
1783693642106126300,6.463126220703125,-0.06911737536787986,0.007760441401042044,0.14200952003411949
1783693642116088000,6.473088134765625,0.017990999242663383,-0.005688274769484997,0.10618958024270832
1783693642126051000,6.483051025390625,0.08173544940054416,-0.01121909395493567,0.047216216944158076
1783693642136013300,6.493013427734375,0.05431786564290523,-0.0971486340444535,-0.023773893493041393
1783693642145976300,6.502976318359375,0.06426759724915027,-0.053046128674037754,-0.00451945018582046
1783693642155938000,6.51293798828125,0.0793202049523592,-0.018180786193720995,0.02813924909569323
1783693642165901300,6.5229013671875,0.04693009347915649,0.0083603069903329,0.032654899889230725
1783693642175863300,6.53286328125,-0.004837503159046173,0.011119432972744106,0.014378507833927868
1783693642185826300,6.542826416015625,0.003769581666588783,-0.015443397119082509,-0.02495521223209798
1783693642195788000,6.5527880859375,0.004012742772698402,-0.04082545646112412,-0.05688610869571566
1783693642205751300,6.562751220703125,-0.03240063286721706,-0.06000033172611147,-0.058207420427352184
1783693642215713300,6.57271337890625,-0.04151975886821747,-0.03027056203596294,-0.039334889109805225
1783693642225676300,6.58267626953125,-0.0295101721227169,-0.030674320531263944,-0.006114245096594095
1783693642235638000,6.592637939453125,-0.04893441903889179,-0.02176843542214483,0.022760843992978334
1783693642245601300,6.602601318359375,-0.0862783535271883,0.02213975295256823,0.03896357157938182
1783693642255563300,6.612563232421875,-0.08437690382003783,0.014663571853004395,0.07153656533882022
1783693642265526300,6.6225263671875,-0.054227849271893495,0.0017160832028836012,0.10006890540532767
1783693642275488300,6.63248828125,-0.023237083202600477,0.005602130855992436,0.0749720196802169
1783693642285451300,6.642451171875,0.004529460123181343,0.007598674968071282,0.09090550187118351
1783693642295413200,6.652413330078125,-0.0059451721400022505,0.034392281608469785,0.0983854092977941
1783693642305376300,6.662376220703125,-0.04231178602874279,0.03792714120373129,0.049805137458816165
1783693642315338200,6.672338134765625,-0.07400280932188033,0.020012422067672012,-0.008205518287420272
1783693642325301200,6.68230126953125,-0.10278583621382713,0.018893281844630835,-0.032451632402092215
1783693642335263200,6.69226318359375,-0.06074877547323703,-0.024154161514900623,-0.038913594957813616
1783693642345226200,6.702226318359375,-0.011218728628754615,-0.05283818501178175,-0.01771378973647952
1783693642355188200,6.712188232421875,0.023303718698024747,-0.04381134040411561,0.002731105464324355
1783693642365151200,6.722151123046875,0.016498130336403845,-0.030856910556554793,0.005805325277894735
1783693642375113200,6.73211328125,-0.00604103372991085,-0.02659304256699979,0.035932387189939616
1783693642385076200,6.742076171875,-0.012757774764299392,-0.02349759730231017,0.06991466322541237
1783693642395038200,6.7520380859375,-0.06201660345196724,-0.013868256756849585,0.06012333705127239
1783693642405001200,6.762001220703125,-0.11649930426776409,-0.012510047080926597,0.049134398590400814
1783693642414963200,6.771963134765625,-0.11199907023906708,0.013769107231311499,0.04974222829043865
1783693642424926200,6.78192626953125,-0.11109189226627349,0.01238119653686881,0.025710925970226523
1783693642434888200,6.79188818359375,-0.0964478653639555,-0.013546660119667648,-0.01341375445500016
1783693642444851200,6.801851318359375,-0.06293897899389267,-0.046000192217901345,-0.03543466680087149
1783693642454813200,6.811813232421875,0.0012684125006198882,-0.06468951245564968,-0.03934541050381958
1783693642464776200,6.821776123046875,0.04792670330107212,-0.03679094024803489,0.014884411529451608
1783693642474738200,6.83173828125,0.03619885610640049,0.027812830152921377,0.029335327012464402
1783693642484701200,6.841701171875,-0.0020201076507568357,0.051511356854811306,0.027761647954955695
1783693642494663200,6.8516630859375,-0.06779635589718819,0.0949707785487175,0.012490209869295358
1783693642504626200,6.861626220703125,-0.11994389176368712,0.09229589678365736,-0.027222718772664665
1783693642514588400,6.87158837890625,-0.12911854734420775,0.05987787439022213,-0.07273848847448826
1783693642524551200,6.88155126953125,-0.08650982419550418,0.02032302238680422,-0.09018084085844456
1783693642534513200,6.89151318359375,-0.023859014493227002,-0.0033254546282812953,-0.09071998923644423
1783693642544476200,6.90147607421875,0.030452421408891674,-0.026081147522106767,-0.05544022073633968
1783693642554439400,6.911439453125,0.09007365415692328,-0.02378587619177997,-0.014645342076569794
1783693642564401200,6.921401123046875,0.12340659943819045,-0.0053398631906136865,0.010373363845795392
1783693642574364200,6.9313642578125,0.09251987826526165,0.0034629999354481695,0.06544599337875842
1783693642584326100,6.941326171875,0.029897125613689422,0.028595066571794447,0.06282492416016758
1783693642594289400,6.951289306640625,-0.009044891721010207,-0.013585567357949913,0.02602021111510694
1783693642604251100,6.961251220703125,-0.007381342422962189,-0.01654945866484195,0.004939063837379217
1783693642614214100,6.971214111328125,-0.026915479454398154,0.026926073913648724,-0.006192717160284519
1783693642624176400,6.98117626953125,-0.01202069266140461,0.030951383906975386,0.023690452993288636
1783693642634139400,6.991139404296875,-0.03234276520013809,0.03993986926563084,0.03614237667880952
1783693642644101000,7.00110107421875,-0.09430909976959229,0.044085590768232936,0.016876462129503486
1783693642654064000,7.011064208984375,-0.13848784871399403,0.011847418453730642,0.00909128814600408
1783693642664026400,7.0210263671875,-0.15612345864772795,-0.03335080973152071,0.009296163068339228
1783693642673989400,7.0309892578125,-0.1955745945483446,-0.030273009721376,0.00472271767295897
1783693642683951000,7.040951171875,-0.18433131600022315,-0.03795479639563709,0.0319668445598334
1783693642693914000,7.0509140625,-0.12297872941493987,-0.03967040467448532,0.04776654430329799
1783693642703876400,7.06087646484375,-0.06640460927784443,-0.006088233872503042,0.05494337713010609
1783693642713839400,7.07083935546875,-0.021615034958720206,0.02418627368621528,0.08525142163224518
1783693642723801000,7.080801025390625,0.0035778584867715833,0.0796753385329619,0.10773958616368472
1783693642733764000,7.09076416015625,0.007936638218164444,0.06657766428980975,0.13107764552272855
1783693642743726300,7.100726318359375,0.038165772265195845,0.05144000865165144,0.07707279135175049
1783693642753689300,7.110689453125,0.02828033806681633,0.008033668851852416,0.019626491490006445
1783693642763651000,7.120651123046875,-0.014217325922846793,-0.014043978649936615,0.01232435178309679
1783693642773614000,7.130614013671875,-0.03575461947023868,-0.0073404989559203385,0.002204597372189164
1783693642783576300,7.140576416015625,-0.03758300394117832,-0.028613552076555786,-0.015720423962175847
1783693642793539300,7.150539306640625,-0.03138005764782428,-0.04176248158290982,-0.04769662087224424
1783693642803501000,7.1605009765625,-0.030385785913467404,-0.025340996679291128,-0.012501754176616668
1783693642813464000,7.170464111328125,-0.016836568510532376,-0.0018698124598711728,0.02775244173519313
1783693642823426300,7.18042626953125,-0.0064577978372573844,0.0160948102325201,0.05177607220560312
1783693642833389300,7.190389404296875,-0.050585693377256394,0.04052066482827067,0.038580344415456054
1783693642843351000,7.20035107421875,-0.06885667860507964,0.05265362222511321,0.05853438735939562
1783693642853314000,7.21031396484375,-0.08774959512352942,0.05656177211217582,0.05783610289692878
1783693642863276300,7.2202763671875,-0.0639747517824173,0.03869929462000728,0.0353611631732434
1783693642873239300,7.2302392578125,-0.03888590323328971,0.01759531445596367,0.027743966167792677
1783693642883201000,7.240200927734375,-0.056715574434399604,0.0017060732655227184,0.001030292895808816
1783693642893164000,7.2501640625,-0.042727381092309946,-0.0041716596614569425,-0.012548442862555385
1783693642903126300,7.260126220703125,-0.014902970099449157,-0.006919789325818419,-0.022571093574538827
1783693642913089300,7.27008935546875,0.013804653468728065,-0.02514518184624612,0.005637348299846053
1783693642923051000,7.280051025390625,0.030072482180595397,-0.03761230310089886,0.05319646039754152
1783693642933014300,7.29001416015625,0.000786181941628456,-0.030832141441479322,0.08985343553498387
1783693642942976300,7.299976318359375,-0.0346644861459732,0.013173917817138135,0.10396423234343528
1783693642952939300,7.309939208984375,-0.07686930466890335,0.05462930621225386,0.1270313658066094
1783693642962901200,7.3199013671875,-0.10997837806642055,0.051759084538184105,0.11834186339452862
1783693642972864300,7.3298642578125,-0.10700666877925395,0.05097385244462639,0.05378215133100748
1783693642982826200,7.339826171875,-0.05734510450959205,0.04169354453254491,0.02622004453614354
1783693642992789200,7.349789306640625,-0.02831950103342533,0.009123473382554948,-0.001424187584221363
1783693643002751200,7.359751220703125,0.014350012391805647,-0.008223711531236768,-0.028729250878095625
1783693643012714200,7.36971435546875,-0.0016629647761583328,0.0017025661341845987,0.000042012510821223256
1783693643022676200,7.37967626953125,-0.07995324215888977,0.03757394385188818,0.025904329650476572
1783693643032639200,7.38963916015625,-0.13308277480006217,0.027690299751795825,0.043979792306199667
1783693643042602200,7.399602294921875,-0.10584230117499828,0.016875621879287064,0.029800094980001447
1783693643052564200,7.409564208984375,-0.09826163678765297,0.04225501434020698,0.06032229368947446
1783693643062527200,7.41952734375,-0.0550818357527256,0.04137359186317771,0.08959544218592345
1783693643072489200,7.4294892578125,0.014881342789530754,0.04512315365504473,0.08453589377403259
1783693643082452200,7.4394521484375,0.053417117410898204,0.028253632722981273,0.07084266479052603
1783693643092414200,7.449414306640625,0.06416355235278606,0.025953356423974037,0.03578925239220261
1783693643102377200,7.459377197265625,0.08513853584229945,0.014586122702620923,0.011082242767512797
1783693643112339200,7.469339111328125,0.051063832283020014,0.013634265337884425,-0.024118688342720268
1783693643122302200,7.47930224609375,-0.008703530937433243,0.010178389262966811,-0.04002316363491118
1783693643132264200,7.48926416015625,-0.04147358163893223,-0.011174999084882438,-0.027351459718868133
1783693643142227200,7.499227294921875,-0.06777122145593166,-0.0007030702354386448,-0.026605536722391843
1783693643152189200,7.509189208984375,-0.08799100266396999,0.026172771328315136,-0.005236512413993477
1783693643162152200,7.519152099609375,-0.09478782319724559,0.029192046084254977,0.01032689435556531
1783693643172114200,7.5291142578125,-0.06721943279206752,0.0018786533534526824,0.010079568530991673
1783693643182077200,7.5390771484375,-0.029226094484329224,-0.01068374496921897,-0.006677578067779541
1783693643192039200,7.5490390625,0.00009469254612922667,0.0022983035376295444,0.004419789203628897
1783693643202002200,7.559002197265625,0.013314824125170707,0.010589856140688062,0.02393770575262606
1783693643211964200,7.568964111328125,0.020858663633465765,0.029786029922030863,0.02919299593232572
1783693643221927200,7.57892724609375,-0.01903553985953331,0.047617673884518444,0.04068571919687092
1783693643231889200,7.58888916015625,-0.03019815438687801,0.039693456756509836,0.060628656224906444
1783693643241852200,7.59885205078125,-0.029552257698774335,0.012333594535477459,0.03681450378671288
1783693643251814100,7.608814208984375,-0.04310147510170936,0.010780081483162939,-0.007204086159914732
1783693643261777200,7.618777099609375,-0.06560147620141506,-0.01987853002231568,-0.006451587292179465
1783693643271739100,7.6287392578125,-0.08048457255661487,-0.043453759138099846,-0.01707929122522473
1783693643281702400,7.638702392578125,-0.06950842051208019,-0.04302000736333429,-0.03786876207999885
1783693643291664100,7.6486640625,-0.06515314791202545,-0.0017937880815938115,-0.007538724941760301
1783693643301627100,7.658627197265625,-0.07981412594914436,0.007144282264076173,0.053743061429634684
1783693643311589000,7.668589111328125,-0.07265840897560119,0.020872619093582033,0.07618687536269426
1783693643321552400,7.678552490234375,-0.08951251314282417,0.05020016465838998,0.059916050976142284
1783693643331514000,7.68851416015625,-0.11750994261503218,0.05350194615013897,0.07013356667309999
1783693643341477000,7.69847705078125,-0.11663491334617138,0.04006119409035891,0.05584010677412152
1783693643351439400,7.708439453125,-0.07041501396298408,0.014360789514146745,0.007112900745123624
1783693643361402400,7.71840234375,-0.04094926550388336,-0.008929302517324685,-0.002169891384989023
1783693643371364400,7.7283642578125,0.0023538696497678755,-0.014851386042684316,-0.029793592173978686
1783693643381327000,7.7383271484375,0.05383855769336223,-0.019997516759485006,-0.021000483256950975
1783693643391289300,7.748289306640625,0.09786708451211452,-0.026368074704706666,-0.000987695863097906
1783693643401252400,7.75825244140625,0.06226385621130466,-0.022470336613804102,0.02908734360076487
1783693643411214300,7.76821435546875,0.03533843988478184,-0.016539996716752648,0.0428661319758743
1783693643421177000,7.778177001953125,0.026094226199388504,-0.02374956276938319,0.03997245636098087
1783693643431139300,7.788139404296875,-0.00874327842593193,-0.03753573073334992,0.053230581862851976
1783693643441102300,7.798102294921875,-0.07457680981755256,-0.018720044169574974,0.05629121154248714
1783693643451064300,7.808064208984375,-0.09593699323236941,-0.008687054726667701,0.04055705131590366
1783693643461027000,7.818027099609375,-0.12151391755938529,-0.012142748138494789,0.04263597648181021
1783693643470989300,7.8279892578125,-0.14130056804716587,-0.010132029370591045,0.03729541917145252
1783693643480952300,7.837952392578125,-0.12162146958708762,0.003985745167918503,0.04398673350363969
1783693643490914000,7.8479140625,-0.11128946066498756,0.014832133352942764,0.07186448211893438
1783693643500877000,7.857876953125,-0.11569266405999659,0.02022464004624635,0.048164384514465926
1783693643510839300,7.86783935546875,-0.12012041737437247,0.0239400073075667,0.010933701142296194
1783693643520802300,7.87780224609375,-0.12125789697170257,0.012789667739905416,-0.015880802155658603
1783693643530765300,7.887765380859375,-0.07599427540004253,0.010672127596661448,-0.019553133992850778
1783693643540727000,7.89772705078125,-0.05148527256548405,0.018459858863428234,-0.022552900330722332
1783693643550690000,7.90768994140625,-0.051016486009955404,0.02472655457537621,0.0028687603693455456
1783693643560652300,7.91765234375,-0.017468436673283575,0.026164113097824154,0.0012252309460192919
1783693643570615300,7.927615234375,0.04836100306510925,-0.0010208674803376197,0.009955649890378117
1783693643580577000,7.937576904296875,0.07570026088953018,-0.01495747676566243,0.01422339033745229
1783693643590540300,7.947540283203125,0.0764443572551012,-0.03624404695499688,0.023948592472821474
1783693643600502300,7.957502197265625,0.07023615026473999,-0.009741641813516616,0.03768149587959051
1783693643610465300,7.96746533203125,0.05435001434683799,-0.02136237537190318,0.028161753188446163
1783693643620427000,7.977427001953125,0.01919803694486618,-0.031165172788128255,0.019131328384205698
1783693643630390300,7.987390380859375,-0.027280221113562583,-0.014265877772308885,0.0023832418747246264
1783693643640352300,7.997352294921875,-0.04489069660604,-0.01855265171341598,0.014238807102292776
1783693643650315300,8.007315185546876,-0.06779460233151913,-0.012626695730537176,-0.009511924710869788
1783693643660277200,8.01727734375,-0.08782149131596088,-0.01248684886842966,-0.04047054207623005
1783693643670240300,8.027240234375,-0.08970072919130324,-0.002987308715097606,-0.0206806767180562
1783693643680202200,8.0372021484375,-0.05807166521847248,-0.011516652129404246,0.020864728048071265
1783693643690165200,8.047165283203125,-0.05235211852788925,0.027342363096959886,0.0635333646904677
1783693643700127200,8.057127197265626,-0.044538229906558986,0.0580178161393851,0.08744863941557705
1783693643710090200,8.06709033203125,-0.01863455784320831,0.06945194108448922,0.12815233266055584
1783693643720052200,8.07705224609375,-0.00043254619836807247,0.016491590997762977,0.10693016947694123
1783693643730015200,8.08701513671875,0.04915712187886238,-0.02107891878802329,0.04084448995515704
1783693643739977200,8.096977294921874,0.0037578912287950512,-0.01431917886212468,0.002530833651870489
1783693643749940200,8.106940185546875,-0.08291910622715949,-0.00037281536776572464,-0.012462956536188721
1783693643759902200,8.116902099609375,-0.15506488950550557,-0.008793401177972554,-0.00991677918471396
1783693643769865200,8.126865234375,-0.18532558773458002,-0.0059318377343937755,-0.012460691513866185
1783693643779827200,8.1368271484375,-0.15410978073775766,-0.01828187194801867,-0.009168079709261655
1783693643789790200,8.146790283203124,-0.11277239269912243,-0.013052519927173852,0.02702697700485587
1783693643799752200,8.156752197265625,-0.07672258967459201,0.0068104837324470275,0.0663450611103326
1783693643809715200,8.166715087890625,-0.03274900791347027,0.012411153283715247,0.07964687962345779
1783693643819677200,8.17667724609375,0.009448796346783637,0.02735920463390648,0.09905198344774543
1783693643829640200,8.18664013671875,0.02608078219592571,0.048843197091482576,0.11171681923158466
1783693643839602200,8.196602294921876,0.040028643527626986,0.03911266119387,0.07647248737104237
1783693643849565200,8.206565185546875,0.05956336508095264,0.022408742619678377,0.013104103983938693
1783693643859527200,8.216527099609374,0.03966273282468319,-0.029766777232289314,-0.04466083337292075
1783693643869490200,8.226490234375,0.032087329134345054,-0.040622627365402876,-0.08254303945638239
1783693643879452200,8.2364521484375,0.0010936404556035994,-0.07400562233347445,-0.04274520900994539
1783693643889415200,8.246415283203126,0.010522563058137892,-0.026622889715991912,-0.03696143797673285
1783693643899377200,8.256377197265625,-0.015507950255274771,-0.009664411858841777,0.00589636456221342
1783693643909340200,8.266340087890624,-0.011308160477876663,0.027216508227586745,0.07131181667223573
1783693643919302100,8.27630224609375,-0.017909166178107262,0.04640183182135224,0.08428023851253091
1783693643929265200,8.28626513671875,-0.029944471886754035,0.042388321863673625,0.08221709543764591
1783693643939227100,8.29622705078125,-0.06986030268967151,0.03937920317556709,0.09146430479772388
1783693643949190100,8.306190185546875,-0.11535481040775775,0.05042655729278922,0.07149645252414047
1783693643959152000,8.316152099609376,-0.1610106461673975,0.03566686812154948,0.03826017255038023
1783693643969115100,8.326115234375,-0.18258768720328808,0.027208872910402714,-0.005534472447261214
1783693643979077000,8.3360771484375,-0.2204974388808012,0.038903913814015686,-0.007187646481767296
1783693643989040000,8.3460400390625,-0.19018238011598587,0.03346986953392625,-0.029794688152521846
1783693643999002000,8.356002197265624,-0.11948971825540065,0.019398929811827836,-0.029752529511228202
1783693644008965400,8.36596533203125,-0.04223053748607635,0.013519224123470484,-0.01658909655548632
1783693644018927000,8.375927001953125,0.04009410997927189,0.016247589641436935,-0.026973493251949546
1783693644028890000,8.38589013671875,0.09249006764888763,0.025775186845473943,-0.02799377621039748
1783693644038852000,8.39585205078125,0.12098141811788081,0.021085238930955527,0.001357259827852249
1783693644048815400,8.4058154296875,0.10686229187250136,0.01762779195345938,-0.006816182820871472
1783693644058778400,8.4157783203125,0.03775017720162868,0.016086042404174803,-0.04496237360276282
1783693644068740000,8.425739990234375,-0.02320727258622646,0.00025393822845071553,-0.03951945189647376
1783693644078703000,8.435703125,-0.04657821130156517,-0.024468853487260637,-0.04239785687699914
1783693644088665300,8.445665283203125,-0.03911620485782623,-0.02531805419512093,-0.020598405262082814
1783693644098628400,8.45562841796875,-0.01399345403909683,-0.04214322452880442,-0.011659823459759354
1783693644108590000,8.465590087890625,-0.013612345767021179,-0.04922744716871529,0.023294512478262183
1783693644118553000,8.475552978515625,-0.029778467670083044,-0.004092676141113042,0.048818391443789
1783693644128515300,8.485515380859376,-0.060652913883328434,0.023877755726315078,0.0798657100059092
1783693644138478300,8.495478271484375,-0.1116103631824255,0.045263804234750564,0.07711005462221801
1783693644148440000,8.505440185546876,-0.16590192534029483,0.05026727507784962,0.07192001169845462
1783693644158403000,8.515403076171875,-0.20867489914000034,0.050311077686958014,0.0320721315652132
1783693644168365300,8.525365234375,-0.14775252066552638,0.00424340972341597,-0.016429083688184618
1783693644178328300,8.535328369140625,-0.07950432934761047,-0.020534180919453502,-0.05812617188468575
1783693644188290000,8.5452900390625,-0.008210194462537766,-0.031060141511075195,-0.07805829525776208
1783693644198253000,8.555253173828126,0.028724574702978133,-0.010637275478988885,-0.06548800588957965
1783693644208215300,8.56521533203125,0.06412965008318423,-0.0031076471591368316,-0.0453680317942053
1783693644218178300,8.57517822265625,0.013428805893659591,0.02763780237957835,-0.03493066280148923
1783693644228140000,8.58514013671875,-0.0353618207603693,0.03201123169083148,-0.038647052976116536
1783693644238103000,8.59510302734375,-0.06815116068422794,0.021549824235402047,-0.029937311493605373
1783693644248065300,8.605065185546875,-0.0994020389944315,-0.006083375034295022,-0.04005428942553699
1783693644258028300,8.6150283203125,-0.08048281899094581,-0.020895963436551392,-0.012449950924143194
1783693644267990000,8.624989990234376,-0.03206862443387508,-0.029073570803739127,0.04631641856022179
1783693644277953000,8.634953125,-0.004790741407871246,-0.025202574589289723,0.05289017092734575
1783693644287915300,8.644915283203124,-0.02066635593175888,-0.018536540828831494,0.040812268185988064
1783693644297878300,8.654878173828125,-0.03866261587142944,0.014325352874584495,0.06193382053934037
1783693644307840000,8.664840087890624,-0.09590016835331916,0.05390935790725052,0.06336122299395501
1783693644317803300,8.67480322265625,-0.1302840839922428,0.09722148008495568,0.06873940890096128
1783693644327765200,8.68476513671875,-0.1064554646372795,0.1004356563584879,0.06494016274847089
1783693644337728300,8.694728271484376,-0.04952127901613712,0.0626806933838874,0.053409080234915016
1783693644347690000,8.70468994140625,-0.005584522134065628,0.04047927337195724,0.03627652445249259
1783693644357653200,8.7146533203125,0.023435820645093915,0.01425396813880652,0.013512611719593405
1783693644367615200,8.724615234375,0.057473699325323105,-0.0025355098269879816,-0.010163520487397909
1783693644377578200,8.734578125,0.1083294418156147,-0.027934118445031342,-0.02879530185163021
1783693644387540200,8.744540283203126,0.060736500513553615,-0.01934365596063435,-0.010311550655961036
1783693644397503200,8.754503173828125,0.012254501417279243,0.005730104617215692,0.0026211422838270664
1783693644407465200,8.76446533203125,-0.019006898286938665,-0.0010869915191084145,0.02906264755092561
1783693644417428200,8.77442822265625,-0.040865094351768494,0.005649440596438944,0.045717648949474096
1783693644427390200,8.78439013671875,-0.07290975338816642,0.018476079345867036,0.05482559596933424
1783693644437353200,8.794353271484376,-0.061540802633762354,0.022974413678422567,0.07059175876937807
1783693644447315200,8.804315185546875,-0.0242687643378973,-0.006020611996389925,0.0875515883333981
1783693644457278200,8.8142783203125,-0.0051221653193235395,-0.026912776040658355,0.07906206547282636
1783693644467240200,8.824240234375,-0.0000526069700717926,-0.016482238647527993,0.08624211317002772
1783693644477203200,8.834203125,-0.008279168045520782,0.002415902035310864,0.12064992114119232
1783693644487165000,8.8441650390625,-0.019337737676501272,0.002254537461139262,0.10858926179558039
1783693644497128000,8.8541279296875,-0.011842998006939887,-0.011711444049142301,0.10081665503270923
1783693644507090200,8.864090087890625,0.020836451801657677,-0.023060447994060814,0.09452471528165042
1783693644517053200,8.87405322265625,0.029639351460337637,-0.017359934797510503,0.05477518095634877
1783693644527015000,8.884014892578126,0.03135726129412651,-0.02098068257793784,0.030976006891578433
1783693644536978000,8.89397802734375,0.0038028994143009184,-0.0005734525064006447,0.011043737388029693
1783693644546940200,8.903940185546874,-0.08046060715913772,0.040123080345429475,0.014322101471573114
1783693644556903200,8.913903076171875,-0.17655425225794313,0.06662402418218552,0.014692907545343041
1783693644566865000,8.923864990234375,-0.25455577582716943,0.08683631620351225,0.0010285393301397562
1783693644576828000,8.933827880859376,-0.2651706933438778,0.08392612784523516,0.005747238415107131
1783693644586790100,8.9437900390625,-0.2196335155278444,0.05538757723364979,0.028520430433005093
1783693644596753200,8.953753173828124,-0.15338263550698755,0.012664214729331434,0.004866948449239135
1783693644606715000,8.96371484375,-0.048258711734414095,-0.024278847340494392,-0.02554894034154713
1783693644616678000,8.973677978515624,0.00852934341430664,-0.04537427887190133,-0.007784735592082142
1783693644626640100,8.98364013671875,0.04992459912002086,-0.028090660713613033,0.007678133412450551
1783693644636603100,8.99360302734375,0.08340484391748905,-0.018674487994797526,0.025593656266108152
1783693644646566100,9.003566162109376,0.08112520854771137,0.0034013694087043403,0.02630516553632915
1783693644656528000,9.01352783203125,0.08053601048290729,0.008096358824521303,0.020001170021295547
1783693644666491100,9.0234912109375,0.06641103901863098,-0.035461116416379806,0.00816270205900073
1783693644676453000,9.033453125,0.08633855928182602,-0.04991623315047473,-0.02398570961281657
1783693644686414800,9.043414794921874,0.06415244643688202,-0.02504749362543225,-0.03151172120347619
1783693644696378000,9.053378173828126,0.00760521430671215,0.014757204953208565,0.007938245653361082
1783693644706341000,9.063341064453125,-0.015083587363362311,0.023936171382665634,-0.005970964168384671
1783693644716303000,9.07330322265625,-0.0382066887974739,0.042092078863456846,-0.011195859209820627
1783693644726266000,9.08326611328125,-0.08049158681929111,0.08179572822041808,-0.01507365049123764
1783693644736228000,9.09322802734375,-0.08857084837853908,0.05345602464918047,0.02116714506074786
1783693644746191000,9.103191162109376,-0.08915946192145346,0.027176833804324268,0.016401391963660715
1783693644756153000,9.113153076171875,-0.12379589101672171,0.02789769542478025,-0.001986497642099857
1783693644766116000,9.1231162109375,-0.11141162573993206,-0.003298968480154872,-0.008487915425375104
1783693644776078000,9.133078125,-0.02794774511158466,-0.030078619660437105,-0.007624138202890754
1783693644786041000,9.143041015625,-0.0022626842349767686,-0.028159086307324468,-0.008547390527650713
1783693644796003000,9.153003173828125,0.0023667291313409803,-0.018466069408506154,-0.008241831709817052
1783693644805966000,9.162966064453125,-0.00405073669552803,-0.010422865543328224,0.022469313700497148
1783693644815928000,9.172927978515625,-0.027076222974061964,0.04472969735804945,0.06571925736218691
1783693644825891000,9.18289111328125,-0.09354396061599254,0.06261288884468376,0.05899842467457056
1783693644835853000,9.19285302734375,-0.11484686088562011,0.07554152666386216,0.02384454757645726
1783693644845816000,9.202816162109375,-0.07887421475052833,0.06343629752416163,0.042033918935433026
1783693644855778000,9.212778076171874,-0.0299415492773056,0.045664128663949664,0.01809803981371224
1783693644865741000,9.222740966796875,0.03617430618703365,0.02283306897897273,-0.01381941264644265
1783693644875703000,9.232703125,0.0401806192189455,0.034705512276105584,-0.04689823703616857
1783693644885666000,9.242666015625,0.026525018832087514,-0.003816453015618026,-0.07542889660224318
1783693644895628000,9.2526279296875,-0.04112345302700996,0.019657398084923623,-0.08869381717108189
1783693644905591000,9.262591064453124,-0.10870645843446254,0.021038952103815973,-0.08219196099638938
1783693644915553000,9.272552978515625,-0.11159458109140395,0.015552483516745269,-0.06623283290751278
1783693644925516000,9.28251611328125,-0.07225099721848964,-0.003347922188416123,-0.045091918266564605
1783693644935478000,9.29247802734375,-0.00497837293446064,-0.039441272093728184,-0.005754618003964424
1783693644945441000,9.30244091796875,0.03142448131144047,-0.029093444547988474,0.01423654207997024
1783693644955403000,9.312403076171876,0.07949789960682392,-0.030121472421474754,0.04389722858928144
1783693644965366000,9.322365966796875,0.05112871421277523,-0.019342669579945505,0.05814721467271447
1783693644975328000,9.332327880859374,-0.033062896168231964,0.021842815832607446,0.0419790469430387
1783693644985291000,9.342291015625,-0.08521452368795872,0.02755596931502223,0.04792465747445822
1783693644995253000,9.3522529296875,-0.09544482580125331,0.020090930663980544,0.03343538274243474
1783693645005216000,9.362216064453126,-0.08277005314528942,-0.004165083790197969,0.02198036113977432
1783693645015178000,9.372177978515625,-0.033871874463558195,-0.016712540272064504,0.020285978312045334
1783693645025141000,9.38214111328125,0.016077274575829505,-0.04711816339716315,0.05265614297576248
1783693645035103000,9.39210302734375,-0.0016764087796211243,-0.042423173981346186,0.06792253956012427
1783693645045066200,9.402066162109374,-0.10356792650222778,-0.010198445670306682,0.06530768088661133
1783693645055028000,9.412028076171875,-0.19261574474275112,0.025876857121661302,0.062287967739254234
1783693645064991000,9.421990966796875,-0.22798048811256885,0.062291474870592355,0.07316489719301461
1783693645074953000,9.431952880859376,-0.19859774176180361,0.03327021877598017,0.08361154547072946
1783693645084916200,9.441916259765625,-0.11762100177407264,0.0023001667011529206,0.06961831062734126
1783693645094878000,9.4518779296875,-0.012549684971570968,-0.013563866982795297,0.043917467659711835
1783693645104841000,9.461841064453125,0.11183365054428576,-0.05497059393059462,0.04868643562719226
1783693645114803200,9.47180322265625,0.17817863858938215,-0.07371957193370908,0.0489196598611772
1783693645124766200,9.48176611328125,0.1992395467966795,-0.06997205596845596,0.04770341593921184
1783693645134728000,9.49172802734375,0.16752923428118227,-0.028913009947165846,0.06151698336675763
1783693645144691000,9.50169091796875,0.07091302661299705,-0.00210614196639508,0.05228592142388224
1783693645154653200,9.511653076171875,-0.03391279099583626,0.025479418769292533,0.049870384714752435
1783693645164616200,9.5216162109375,-0.10576397524178027,0.01318677729871124,0.032442426182329655
1783693645174578000,9.531577880859375,-0.16441548617482185,-0.013789528964832425,0.014959011135622858
1783693645184541000,9.541541015625,-0.2072299610286951,-0.03462009901497513,-0.003339008229598403
1783693645194503200,9.551503173828126,-0.22812895667254923,-0.03802866534944623,0.01615954603180289
1783693645204466200,9.561466064453125,-0.25467969446778294,-0.01335548492912203,0.015888547070696948
1783693645214428200,9.57142822265625,-0.2333902382016182,0.0181403080528602,0.023135668654739854
1783693645224391000,9.581390869140625,-0.1823328356593847,0.021468575692735612,0.059442953571677205
1783693645234353200,9.591353271484374,-0.1217144085675478,0.05705116306431591,0.09783990424424409
1783693645244316200,9.601316162109375,-0.07458908477723598,0.0495582865582779,0.09748882578425108
1783693645254278100,9.611278076171875,-0.029143092375993728,0.04227375557329505,0.09764708508588373
1783693645264241000,9.621240966796876,0.03664017013311386,0.021684848791919648,0.06689378103427589
1783693645274203100,9.631203125,0.09182605078220367,-0.02163381272442639,0.03870272868610918
1783693645284166100,9.641166259765624,0.1386672969341278,-0.03277078135386109,-0.0016408990748226643
1783693645294128000,9.651128173828125,0.13111936577260494,-0.05184661669116467,-0.030270415905490514
1783693645304091000,9.6610908203125,0.07651216179430484,-0.029979652797989545,-0.0627333003539592
1783693645314053000,9.67105322265625,0.005414426264166832,-0.028868915077112613,-0.06729279028922319
1783693645324016000,9.68101611328125,-0.020131518402695656,-0.010385821468569338,-0.024438129555433986
1783693645333978000,9.69097802734375,-0.017404723787307737,0.008355265489034354,0.008489595925807952
1783693645343940900,9.70094091796875,-0.04270867639183998,0.04115867047086358,0.051868938120827074
1783693645353904000,9.710904052734374,-0.0849754542350769,0.055671289545856414,0.08477620533592999
1783693645363866000,9.7208662109375,-0.055742930009961125,0.07561550521552562,0.09924041869193315
1783693645373829000,9.7308291015625,-0.025931144592165944,0.06443162870444356,0.0867084155075252
1783693645383790800,9.740790771484376,-0.043892917740345,0.05147201122511178,0.07782733604609966
1783693645393754000,9.750754150390625,-0.06112403852641582,0.037349523978866636,0.021563670097664
1783693645403716000,9.760716064453124,-0.08339724513292313,0.025299678288213907,-0.021390724683552978
1783693645413679000,9.77067919921875,-0.10860942780077457,0.003400273430161178,-0.06300956001207232
1783693645423641000,9.78064111328125,-0.13317396021485328,-0.010719729598052799,-0.07033325396366417
1783693645433604000,9.79060400390625,-0.08219079195261002,-0.02825016212426126,-0.06918970995172857
1783693645443566000,9.800566162109375,-0.03993278193771839,-0.05353577535450458,-0.051182855552807445
1783693645453529000,9.810529052734376,-0.03661562021374702,-0.02548036861736327,-0.026300343230739234
1783693645463491000,9.820490966796875,-0.04113572798669338,0.009731047354266047,0.02043926917761564
1783693645473454800,9.830454833984374,0.003249357184767723,0.02119900150373578,0.03334164004437625
1783693645483417000,9.8404169921875,0.029677345383167266,0.03369195131938904,0.05241247041299939
1783693645493379800,9.8503798828125,0.04684299971759319,0.030004823771864173,0.07058328320197761
1783693645503341800,9.860341796875,0.05278817185759544,0.006202727097645401,0.03152677264213562
1783693645513304800,9.870304931640625,0.033760815304517744,0.0007756605476140976,0.02352839429937303
1783693645523267000,9.88026708984375,-0.02937865469753742,-0.011164843017049134,-0.0020297522619366643
1783693645533229800,9.890229736328125,-0.07306172907948494,-0.004337481215037405,-0.02774674264676869
1783693645543191800,9.90019189453125,-0.07113456040918827,-0.023836802661418913,-0.06311046310327947
1783693645553155000,9.910155029296876,-0.06948796224594116,-0.009887516557611524,-0.07887691816426813
1783693645563117000,9.920116943359375,-0.0778127229988575,-0.03601579115707427,-0.006037015141919255
1783693645573080000,9.930080078125,-0.01517301921248436,0.008774550347030162,-0.010676146184653044
1783693645583041800,9.940041748046875,-0.015988427248597146,0.028811887660250068,-0.0002513444125652313
1783693645593005000,9.950005126953124,0.03246083862185478,0.034297442931868136,0.08585691324472428
1783693645602967000,9.959967041015625,0.08116787864565848,0.0564232404243201,0.05465900723077356
1783693645612930000,9.969929931640625,0.04783434884250164,0.03323269977718592,0.06798851746842265
1783693645622891800,9.979891845703126,0.034575054296851156,0.034129502486437556,0.0662660775899887
1783693645632855000,9.98985498046875,0.030616672059893605,0.0226512461386621,0.023585092922672628
1783693645642817000,9.999817138671874,-0.014445873981714248,-0.017615115134976805,-0.03007474720291793
1783693645652780000,10.009780029296875,-0.0299678527623415,-0.05305365439336747,-0.05185710155256092
1783693645662742000,10.019741943359374,-0.05033902513980865,-0.050225079903937875,-0.15425342699214814
1783693645672705000,10.029705078125,-0.07881576256155967,-0.04034183766264468,-0.058228682411089534
1783693645682667000,10.0396669921875,-0.08072948722839356,-0.011894837792031467,0.08915332444161177
1783693645692630000,10.049630126953126,-0.0917021321415901,0.045565417529828844,0.08488580319024622
1783693645702592000,10.059592041015625,-0.16525135247707365,0.06325958925038576,0.05556377405077219
1783693645712555000,10.069554931640624,-0.2522510060161352,0.024387020422704516,-0.0383200860440731
1783693645722517000,10.07951708984375,-0.31459318816065784,-0.01580079572200775,-0.1134466386988759
1783693645732480000,10.08947998046875,-0.27731998082101345,-0.050973377520591015,-0.08220094802044331
1783693645742442000,10.09944189453125,-0.1920405752032995,-0.008252499234303831,-0.05242101904563606
1783693645752405000,10.109405029296875,-0.1573597224444151,-0.017636815510131416,-0.025358897662162778
1783693645762367000,10.119366943359376,-0.12665654114484787,0.0012863134834915399,0.021348639107495546
1783693645772330000,10.129330078125,-0.13777473200857637,0.022274266052432358,0.02446764791086316
1783693645782292000,10.1392919921875,-0.035300445961952205,0.013095811079628764,0.08837620258927345
1783693645792255000,10.1492548828125,0.023714637586474418,0.017274740732088685,0.10904548113048076
1783693645802217000,10.159217041015625,0.07578910821676253,-0.013516411111876368,0.061581792231276626
1783693645812180000,10.169179931640626,0.12445406266450881,-0.04880257282014936,0.0377833488188684
1783693645822142000,10.179141845703125,0.16401625772416592,-0.06368592490367592,0.03915478330254554
1783693645832105000,10.18910498046875,0.1781371375352144,-0.06905954423341899,0.05448511196859181
1783693645842067000,10.19906689453125,0.12135142047405242,0.006308342896588146,0.07212875907830893
1783693645852030000,10.209030029296875,0.07344283735156058,0.05040741420090198,0.08870514228269458
1783693645861992000,10.218991943359375,0.035759295645356175,0.06701912444699555,0.07652275625355541
1783693645871955000,10.228954833984375,-0.01761807427704334,0.060551791596412656,0.01905694797374308
1783693645881917000,10.2389169921875,-0.05348316838443279,0.0352396556854248,0.03286101692058146
1783693645891880000,10.2488798828125,-0.06600947248041629,0.031511611605621874,-0.00029905601181089874
1783693645901842000,10.258842041015624,-0.07734101383388042,0.008367576981335879,-0.060889791379123925
1783693645911805000,10.268804931640625,-0.12364391532540321,-0.006468136568181217,-0.0529053684964776
1783693645921767000,10.278766845703124,-0.13769056085646153,-0.0028926161689683794,-0.030894758348911998
1783693645931730000,10.28872998046875,-0.11745967373251914,0.000685242317803204,-0.01338255559913814
1783693645941692000,10.29869189453125,-0.06627542994022369,0.004876154669001698,0.06537153990305959
1783693645951655000,10.308655029296874,-0.0358060573965311,0.02229589336235076,0.11811251161806284
1783693645961617000,10.318616943359375,-0.04521802886426449,0.007403956113569438,0.12776684047430753
1783693645971580000,10.328579833984374,-0.08113280733227729,0.0033029140029102563,0.11503010849803685
1783693645981542000,10.3385419921875,-0.09385025008618832,0.012754413763433694,0.10263853669762611
1783693645991505000,10.3485048828125,-0.09642039283514023,0.010895926415175198,0.107108229457587
1783693646001467000,10.358466796875,-0.07387304546236992,0.03309935572110116,0.09708309452757238
1783693646011430100,10.36843017578125,-0.05594575910568237,0.04096928537860513,0.05843319200724363
1783693646021392000,10.378391845703124,-0.042812136766314506,0.03716141752824187,0.03428118591681122
1783693646031355000,10.38835498046875,-0.02041091986596584,0.0074518503759056325,0.04554835679717362
1783693646041316900,10.39831689453125,-0.01585398721396923,0.02225585361290723,0.0601504442539066
1783693646051280100,10.408280029296876,-0.034926351952552795,0.04231799657382071,0.004621083929389715
1783693646061241900,10.418241943359375,-0.07532149070501327,0.03390168507993221,0.005615940185636281
1783693646071204900,10.428204833984376,-0.03622866672277451,0.02776869875025004,0.007352993111312389
1783693646081167000,10.4381669921875,0.03284253141582012,0.018138919813372192,-0.01687324725911021
1783693646091130000,10.448130126953124,0.07233692193627357,0.016577259987220167,-0.03457717318870127
1783693646101091800,10.458091796875,0.11071136851608752,0.010340995946153998,-0.04322904700413346
1783693646111054800,10.468054931640625,0.08163491163551807,0.008429280573315918,-0.037442499491944906
1783693646121017000,10.47801708984375,0.034758594170212744,0.014942242663912475,0.0005636252321302891
1783693646130980000,10.48797998046875,0.012835516175627708,0.039593941904790694,0.09224858704321086
1783693646140941800,10.49794189453125,-0.06701835726201534,0.043193610364571214,0.08023483557924628
1783693646150904800,10.50790478515625,-0.09689268652200698,0.03031465690601617,0.03989529947154224
1783693646160867000,10.5178671875,-0.11020400351583957,0.014085991160757838,0.04328618401885032
1783693646170830000,10.527830078125,-0.11923194410204886,0.00015836889948695897,0.012335603829473256
1783693646180791800,10.537791748046875,-0.12812544465363024,-0.009017857583612203,0.010932020641863346
1783693646190754800,10.5477548828125,-0.11381225714087485,0.004400609579123556,0.009807254395633935
1783693646200717000,10.557717041015625,-0.1034796636968851,-0.010993943429552018,-0.039535818509384986
1783693646210680000,10.56768017578125,-0.08200432946979999,0.021480266130529342,-0.04511507994644343
1783693646220641800,10.577641845703125,-0.02597498373389244,0.04423106365352869,0.03860591724812984
1783693646230604800,10.587604736328124,0.03449789740741253,0.09548698444254695,0.08413681145384908
1783693646240567800,10.59756787109375,0.0119470429033041,0.11343776127267628,0.06761705380752682
1783693646250530000,10.607530029296875,-0.025064883151650428,0.11018745423983782,0.08984342559762298
1783693646260491800,10.61749169921875,-0.012869418445229529,0.07583780619669706,0.11226159363277256
1783693646270454800,10.627454833984375,-0.032736732953786846,0.03203066704366356,0.005290069232136011
1783693646280417800,10.637417724609374,-0.0736643711477518,-0.003997837464511394,-0.12492613715566694
1783693646290380000,10.647380126953125,-0.0905085384428501,-0.005215688821673393,-0.11234459574110806
1783693646300343000,10.657343017578125,0.03288403246998787,0.03264671658277511,0.01988791890516877
1783693646310304800,10.6673046875,0.14654139131009578,-0.050031895419396455,0.22732626198753714
1783693646320268000,10.67726806640625,-0.15418869119286535,-0.0915217706060037,-0.17050737330913543
1783693646330230000,10.68722998046875,-0.3411141153395176,-0.0667204337613657,-0.1863588763050735
1783693646340193000,10.697193115234375,-0.3537883034735918,-0.05566054895613342,-0.08936630960516631
1783693646350154800,10.70715478515625,-0.2706605229318142,-0.04400507287792861,-0.06074285718910396
1783693646360118000,10.717117919921876,-0.17080372590720652,0.0411169502209872,-0.0006346446417272091
1783693646370080000,10.727080078125,-0.10830722998380661,0.11632986598499119,0.06419380136057734
1783693646380043000,10.73704296875,-0.1455553028821945,0.1679580176198855,0.14564480779655276
