time,seconds_elapsed,z,y,x
1783693562207807200,0.06180712890625,-0.24728490804135797,-0.048716136645711956,-0.12795520265325902
1783693562217770200,0.071770263671875,-0.0831669435083866,-0.0041767376953735945,-0.028805677115172144
1783693562227732500,0.081732421875,0.03115560124218464,0.03136670497590676,0.01688552221879363
1783693562237695500,0.091695556640625,-0.02775134575664997,0.05229726480180397,-0.08174377883747219
1783693562247658200,0.101658203125,-0.10976853470802307,0.07593106483756563,-0.34287338009700175
1783693562257620200,0.1116201171875,0.006149754801392555,0.11361428688336163,-0.47065074196532364
1783693562267583500,0.12158349609375,0.30313831268846986,0.11831482925713062,-0.3431429908186197
1783693562277546500,0.13154638671875,0.7373258485227823,0.12928712711045517,0.0032519875332713125
1783693562287508200,0.14150830078125,1.0995675075650215,0.14742529800515622,0.3501699668459594
1783693562297471200,0.15147119140625,1.2612339872926472,0.14846430393038318,0.5599382141806185
1783693562307434200,0.161434326171875,1.2131915486574172,0.12520816896744072,0.5452767977520823
1783693562317396500,0.171396484375,0.9430892441302537,0.1070528825411573,0.34361163124367594
1783693562327359500,0.181359375,0.5623614958047867,0.08678190086884424,0.0779734665185213
1783693562337321200,0.1913212890625,0.19553835419118404,0.053885584306018426,-0.08842632534131407
1783693562347284200,0.2012841796875,-0.15914192968606947,0.029202731875050812,-0.18583456017002462
1783693562357247200,0.211247314453125,-0.4399702108889818,0.03495179920435185,-0.29992256551235913
1783693562367209500,0.22120947265625,-0.6366401994585991,0.026501642523077316,-0.36034400872737166
1783693562377172200,0.231172119140625,-0.8120844446480274,-0.026309764079633167,-0.4376965668685734
1783693562387134000,0.241134033203125,-0.8205027289032936,-0.07574502247986384,-0.5178432857729495
1783693562397096000,0.251095947265625,-0.6771236010164022,-0.1232241464102175,-0.4937257664740085
1783693562407059000,0.261058837890625,-0.5392746347278357,-0.13737404225319624,-0.3828481014803052
1783693562417022000,0.27102197265625,-0.46952013050019736,-0.15976291112862526,-0.2954978809379041
1783693562426984200,0.280984130859375,-0.42247780881822106,-0.13125644528889097,-0.19977467658668754
1783693562436947000,0.290947021484375,-0.32867139787375926,-0.07351597565300762,-0.09356427275165916
1783693562446909000,0.300908935546875,-0.21654665542840956,-0.03981601455709897,0.08052738878503442
1783693562456872000,0.310871826171875,-0.13331833712160587,0.003226012841798365,0.2177026935957372
1783693562466835000,0.3208349609375,-0.07748480621874332,0.09258927197335287,0.31541487980708477
1783693562476797000,0.330796875,0.015364742392301558,0.1440826182474382,0.38649347224533553
1783693562486760000,0.340760009765625,0.10937398243248463,0.13230990899773315,0.3877709448352456
1783693562496723000,0.350722900390625,0.2710200038939714,0.11816102693490683,0.34982203019112346
1783693562506685000,0.360684814453125,0.38245442598760127,0.06232966972282156,0.3206044112741947
1783693562516648000,0.37064794921875,0.33630876088440415,0.01839238311778754,0.2458396776691079
1783693562526611000,0.38061083984375,0.2835784566938877,-0.005851319844089448,0.219777892434597
1783693562536573000,0.390572998046875,0.2623983060210943,-0.025492059055157005,0.19347557644248006
1783693562546536000,0.400535888671875,0.18607026862204074,-0.008466671707946807,0.12635127458795906
1783693562556498200,0.410498291015625,0.09593407062292099,-0.03380224329344928,0.018837825330346822
1783693562566461200,0.420461181640625,0.06588087766468524,-0.08459485741965472,-0.03703632984384894
1783693562576424000,0.430423828125,0.06063537822663784,-0.08896770220901816,-0.1089735849380493
1783693562586386000,0.440385986328125,0.09011047903597354,-0.049291050456836814,-0.11661650090664624
1783693562596349000,0.450348876953125,0.16240706896185875,-0.010501191476546228,-0.0863816677711904
1783693562606312000,0.46031201171875,0.19715689530372618,0.0016326061705127356,-0.04468319133520126
1783693562616274000,0.47027392578125,0.18513912525177,-0.0009260653363540768,-0.07004676517248153
1783693562626237000,0.48023681640625,0.14558511349856854,-0.024829466960579156,-0.09643617492616176
1783693562636200000,0.490199951171875,0.07546703665554523,-0.07252236150577664,-0.07877528442069888
1783693562646162000,0.500161865234375,-0.0457838460534811,-0.06942055956553668,-0.08125701823383569
1783693562656125200,0.510125244140625,-0.11456278324723243,0.016202508390694856,-0.1585984704591334
1783693562666088000,0.520087890625,-0.13453122004270554,0.09530563652627169,-0.21954802920147776
1783693562676050000,0.5300498046875,-0.06082300975322723,0.1159708599468693,-0.05753405121043324
1783693562686013000,0.540012939453125,-0.04161445141434669,0.09161733993496746,0.1120633676469326
1783693562695975200,0.54997509765625,-0.12200959212183951,0.0637162469767034,0.1465402222663164
1783693562705938000,0.55993798828125,-0.22700784368813037,0.06605210604574531,0.09578151040971279
1783693562715901000,0.56990087890625,-0.38708150126636026,0.043510348163545126,0.01951937785372138
1783693562725863000,0.57986279296875,-0.5192763873159885,-0.02658891438115388,-0.030567718351632356
1783693562735826000,0.589825927734375,-0.4187853840410709,0.02740571065675467,-0.05321282701045275
1783693562745789000,0.599788818359375,-0.1922761375248432,0.06813526899535209,0.03376899861097336
1783693562755751000,0.6097509765625,-0.06381926895976066,0.056749074845202266,0.21827420987337826
1783693562765714000,0.6197138671875,0.05159048650562763,0.06450056575480848,0.33236616073846814
1783693562775677000,0.629677001953125,0.14189678037464618,0.0803889301624149,0.28316614956595004
1783693562785639200,0.63963916015625,0.17450550303459167,0.10434734990950673,0.23613456847369668
1783693562795602200,0.649602294921875,0.13008710011541844,0.09773607854358851,0.16569683122225104
1783693562805564000,0.65956396484375,0.018904022434353827,0.05528174223899841,0.07649871779084205
1783693562815527000,0.66952685546875,-0.05757072995901107,0.038408421914651984,0.03186725664287805
1783693562825490000,0.679489990234375,-0.10683891099691391,0.06826207371279597,0.005687251856178045
1783693562835452200,0.6894521484375,-0.14838555787205696,0.0734003864493221,-0.041759997364878655
1783693562845415000,0.699414794921875,-0.14880115293562413,0.028691804944537578,-0.09408895421288907
1783693562855378000,0.7093779296875,-0.08027472919821739,-0.016808657590299845,-0.10600881684832274
1783693562865340000,0.71933984375,-0.01618599564731121,-0.07357300306987016,-0.11979103928953408
1783693562875303000,0.729302978515625,0.041211715832352634,-0.0644763811616227,-0.1104735411722213
1783693562885266200,0.73926611328125,0.06259469560086726,-0.0493253911178559,-0.06401990609839558
1783693562895228000,0.749227783203125,0.09638356795608997,-0.010325396518222988,-0.08556896314881741
1783693562905191000,0.75919091796875,0.10585925230979919,-0.019269896604679523,-0.12550875934921205
1783693562915153200,0.769153076171875,0.1317822135955095,0.008125219592824577,-0.1195738163422793
1783693562925116200,0.7791162109375,0.141891519677639,0.028696627250127494,-0.053668534888699646
1783693562935079000,0.789078857421875,0.09627192427515983,0.02333214107491076,0.012037497665733098
1783693562945041000,0.799041015625,0.11683365078866481,0.011002674725279212,0.06106880120784044
1783693562955004000,0.80900390625,0.14441197806596756,0.014754574604704975,0.11214483538530766
1783693562964967000,0.818966796875,0.158247611194849,-0.0032408816173672673,0.10045490904822944
1783693562974929000,0.828928955078125,0.2027548614412546,-0.015437369237095117,0.10704692772440612
1783693562984892000,0.838891845703125,0.23738486079573629,-0.010787314941547811,0.11879961709938942
1783693562994855000,0.84885498046875,0.190685653463006,-0.020926285509578882,0.13447685950696467
1783693563004817000,0.85881689453125,0.15216741449832916,0.018671565385349094,0.06368753233887255
1783693563014780200,0.8687802734375,0.15583762744367122,0.058761510646156964,-0.08948299478739499
1783693563024742000,0.878741943359375,0.12346271353960037,-0.023513452458567917,-0.01517499197386205
1783693563034705000,0.888704833984375,0.07106909395754336,-0.0898637377332896,0.056086628881096834
1783693563044668000,0.89866796875,0.016265490624308584,-0.02925349394790828,0.041005671866238116
1783693563054630100,0.908630126953125,-0.05477496176064014,0.0074389543617144225,0.25820648035444316
1783693563064593200,0.91859326171875,-0.14591478384435175,0.009953202204965055,0.3663413494460285
1783693563074556000,0.928555908203125,-0.3868541222512722,0.07852408613860606,0.16641498942896724
1783693563084518000,0.938517822265625,-0.5139519774228334,0.16042353046182542,-0.052612815290689466
1783693563094481000,0.94848095703125,-0.45685412567257877,0.14508567607644945,0.022702099543064833
1783693563104443100,0.958443115234375,-0.3881429930180311,0.07587543479334563,-0.045465354688838125
1783693563114406000,0.968406005859375,-0.31975159383714197,0.02350450196713209,-0.12805873609296978
1783693563124369000,0.978368896484375,-0.3183335437327623,-0.003937704775109887,-0.1467772458925843
1783693563134331000,0.988330810546875,-0.3416530445218086,0.03395359793026,-0.24821020619273185
1783693563144294100,0.998294189453125,-0.3225643131703138,0.04157291382756084,-0.23123123353682457
1783693563154257200,1.008257080078125,-0.28927988320589065,0.06567278787195682,-0.1649382679399103
1783693563164219000,1.018218994140625,-0.2751519891321659,0.12412340593803674,-0.1274899962943047
1783693563174182000,1.028181884765625,-0.27761574889719487,0.09630871262159198,-0.14127689491063355
1783693563184145000,1.038144775390625,-0.22845862701833247,0.04185889116209,-0.1588490842193365
1783693563194107100,1.048107177734375,-0.13944997174441814,0.014627294963225722,-0.16235906510166823
1783693563204070000,1.05806982421875,-0.04107026153504848,-0.02753700888622552,-0.15779307236038148
1783693563214032000,1.068031982421875,0.04275836075246334,-0.03464563531503081,-0.14527349026612937
1783693563223995000,1.077994873046875,0.04946165778338909,0.009203662479296326,-0.08003222567923367
1783693563233958000,1.0879580078125,0.04629004200994968,-0.026247736260667443,-0.03019092092849314
1783693563243920000,1.097919921875,0.04865677114129066,-0.042144283974729475,-0.025257190853357314
1783693563253883000,1.1078828125,0.07683715596497058,-0.01173668808825314,-0.018959478948637844
1783693563263846000,1.117845947265625,0.15622341189086436,0.02443659518547356,0.024892449194192885
1783693563273808100,1.12780810546875,0.19925299080014228,0.06291815540157258,0.06711714146137238
1783693563283771100,1.137771240234375,0.2193196272730827,0.09913757937196642,0.09982391766831278
1783693563293734100,1.147734130859375,0.22195932812690733,0.09113551123477517,0.11965104629695415
1783693563303696000,1.15769580078125,0.24696868169903755,0.07127911997903139,0.0915211495514959
1783693563313659000,1.167658935546875,0.21475626488029956,0.033271862743794914,0.09463299796171486
1783693563323621000,1.17762109375,0.1953957308501005,0.022623700544610617,0.10257847707346081
1783693563333584100,1.187584228515625,0.12074351770877838,0.0817573324387893,0.05102554609924555
1783693563343547000,1.197546875,0.027314123383164406,0.03902684607394039,-0.003700608083605766
1783693563353508900,1.2075087890625,-0.03822597801983356,-0.01892429803740233,-0.030953648929297924
1783693563363472000,1.217471923828125,-0.08842237981855869,-0.030082674781046807,-0.07847608227841556
1783693563373435100,1.22743505859375,-0.14077274478077886,-0.015602898529730735,-0.09791508837230503
1783693563383396900,1.23739697265625,-0.18801321938335894,-0.019744674509577453,-0.045257703287526964
1783693563393360000,1.24735986328125,-0.23182839571237562,-0.014630875159800051,-0.016854688689112662
1783693563403323000,1.257322998046875,-0.24278701210021972,-0.012956731402501464,-0.030892785587534305
1783693563413284900,1.267284912109375,-0.2393587912172079,-0.0337173049563542,-0.027527400807663797
1783693563423248000,1.277247802734375,-0.15469897880256175,-0.055906851867400104,0.014354834697395562
1783693563433209900,1.2872099609375,-0.10985270586013793,-0.05225271327402442,0.01819594723023474
1783693563443172900,1.2971728515625,-0.09991349564790725,-0.01745765955094248,0.06971855613142251
1783693563453136000,1.307135986328125,-0.07420154676437378,0.025209333123639224,0.07708513937667012
1783693563463097900,1.317097900390625,0.005281739795207977,0.011341332095116376,0.12567936667576432
1783693563473060900,1.327060791015625,0.12611293578743935,-0.01057432977799326,0.1517276348415762
1783693563483024000,1.33702392578125,0.15752631118297575,0.004763415009528398,0.14819237338751554
1783693563492985900,1.34698583984375,0.15940905618965626,0.019191168812662363,0.1633613740120083
1783693563502949000,1.35694921875,0.16076865410506724,0.027560645490139722,0.1714158664561808
1783693563512910800,1.366910888671875,0.15557517711520194,0.0022083602318540216,0.12373057069554924
1783693563522873900,1.376873779296875,0.1352735628426075,-0.010493702289834619,0.09060403470657766
1783693563532836900,1.3868369140625,0.12613456309735774,-0.008184183238446711,0.04717223167195916
1783693563542799000,1.396799072265625,0.12519348285496235,-0.019918240978196264,0.09419694463200867
1783693563552761900,1.406761962890625,0.010070727637410163,-0.04636657784488052,0.1004781437933445
1783693563562724900,1.416724853515625,-0.17389117052853106,0.006083448099531233,-0.014061404708772898
1783693563572686800,1.426686767578125,-0.2639513806819916,0.06600030279327183,0.03774111711233854
1783693563582649900,1.43664990234375,-0.2684147898316383,0.06958097429163754,0.036129517197236415
1783693563592612900,1.44661279296875,-0.25983926918804645,0.10062858511470257,0.026306626841053365
1783693563602574800,1.456574951171875,-0.21271628348529337,0.08592924782857299,0.05121200858205557
1783693563612537900,1.466537841796875,-0.12301438525021076,0.05779339626636356,0.01702580747231841
1783693563622499800,1.476499755859375,-0.06261398482322693,0.0007273278938606381,0.0037920126941055057
1783693563632463000,1.486463134765625,0.018776012140512464,-0.050810916967876256,0.025591391243785618
1783693563642425900,1.49642578125,0.08052490456700324,-0.011990370588377118,0.026942367461323738
1783693563652387800,1.506387939453125,0.1104641157567501,0.022182459583133456,0.03335625309161842
1783693563662350800,1.516350830078125,0.12597966479659078,0.03625588352326303,0.009887406959757209
1783693563672313900,1.52631396484375,0.10472644888758659,0.0325035087198019,0.005737812999635935
1783693563682275800,1.53627587890625,0.07489478972554206,0.03540047227032483,0.014430749477818607
1783693563692238800,1.54623876953125,0.04632745141088962,-0.0011134411346167324,-0.04389700939357281
1783693563702200800,1.556200927734375,0.030106968972086905,-0.01866897156946361,-0.06520319759882987
1783693563712163800,1.566163818359375,-0.046455461704730985,-0.004317644003406167,-0.04977086986303329
1783693563722126800,1.576126953125,-0.12342004344165325,0.002758724123612046,-0.088436700604856
1783693563732088800,1.5860888671875,-0.10360065972805023,0.00796166306156665,-0.05359335076063871
1783693563742051800,1.5960517578125,-0.05270750783681869,0.004404774297587574,-0.03173442404344678
1783693563752014800,1.606014892578125,0.032470775493979455,-0.037073154722899196,0.007096241871267557
1783693563761976800,1.615976806640625,0.08962240325808525,-0.04806044921595603,0.04481470876038074
1783693563771940000,1.625940185546875,0.10245616586804389,-0.023635763663984833,0.07241166767291725
1783693563781901800,1.63590185546875,0.06284019479453563,-0.011109386502765118,0.11707681189477442
1783693563791864800,1.64586474609375,0.04627133730947971,0.005417312340997159,0.103104985165596
1783693563801827800,1.655827880859375,0.03494271856546402,-0.009339052361994981,0.08314706976413726
1783693563811790000,1.6657900390625,0.04118132069408893,-0.009806925602070986,0.11020473416820167
1783693563821752800,1.6757529296875,0.0010883797585964203,-0.0030348741838708516,0.11572020965404808
1783693563831715800,1.6857158203125,-0.04026069871783256,-0.0031430107334628698,0.11823993739001452
1783693563841677800,1.695677734375,-0.06362929934561252,-0.005640526637621224,0.13199497956335543
1783693563851640800,1.705640869140625,-0.07378419813513755,-0.04153302020858973,0.1292688425350934
1783693563861604000,1.71560400390625,-0.130994278088212,-0.08360814793724566,0.07299523971453309
1783693563871565800,1.72556591796875,-0.14284955105483532,-0.084195702034235,0.10983327050730586
1783693563881528800,1.73552880859375,-0.17376374475657938,-0.06937427273839712,0.05608582516349852
1783693563891490800,1.74549072265625,-0.24480361261963843,-0.0537019622342661,0.038018399683758614
1783693563901454000,1.7554541015625,-0.282218274256587,-0.016686748243682086,0.10351641551069915
1783693563911416800,1.765416748046875,-0.23204642237722872,0.015496332882717252,0.12043817808665334
1783693563921378800,1.77537890625,-0.17484627929627894,0.019365429401025175,0.11747633260637522
1783693563931341800,1.785341796875,-0.13227905720174313,0.00906907631419599,0.104775110334903
1783693563941304800,1.795304931640625,-0.05772562825977802,0.011365407090447843,0.07157981995865702
1783693563951267000,1.80526708984375,0.025123335340619085,0.048817076269537206,0.06032791971266269
1783693563961229800,1.815229736328125,0.008321253621578217,0.07572492040675133,0.07567709920965135
1783693563971191800,1.82519189453125,-0.00005962123274803161,0.0805954490525648,0.045198666576668614
1783693563981154800,1.83515478515625,-0.046051557078957556,0.06134148066937923,0.009194748520478606
1783693563991118000,1.8451181640625,-0.08801964423656464,0.012407025097869336,-0.07883775519765913
1783693564001079800,1.855079833984375,-0.12077391284704207,-0.01857946665510535,-0.15757643393501639
1783693564011042800,1.865042724609375,-0.08492927700579166,-0.02832045088149607,-0.1573949398882687
1783693564021005800,1.875005859375,-0.046263738524913785,-0.05349909660592675,-0.15893676250278949
1783693564030968000,1.884968017578125,-0.05872632973492145,-0.0804827459257096,-0.16994352888129652
1783693564040931000,1.89493115234375,-0.027208324921131132,-0.09908515506498515,-0.18381269895359872
1783693564050893800,1.904893798828125,0.06747837598919867,-0.09379946974702179,-0.16536401907131074
1783693564060855800,1.914855712890625,0.16081249324679373,-0.06663940441440791,-0.09501279105953872
1783693564070818800,1.92481884765625,0.1470025790810585,-0.012695559715665876,-0.06163615276701748
1783693564080781000,1.934781005859375,0.12048808164298534,0.04263309040497988,-0.043409518137574196
1783693564090743800,1.944743896484375,0.10452478883564471,0.06894220146406442,0.020572174842283127
1783693564100706800,1.954706787109375,0.08940203850567341,0.09413228189796209,0.05305982840582728
1783693564110668800,1.964668701171875,0.10713467907309532,0.09260014042723923,0.05538059950359165
1783693564120631800,1.9746318359375,0.13012217142879962,0.028507132560014723,0.027571020753681657
1783693564130595000,1.984594970703125,0.15656243458688257,-0.03336549584399909,0.009391732397302984
1783693564140556800,1.994556884765625,0.09932488210499286,-0.06519790036920457,-0.025620252012088892
1783693564150519800,2.004519775390625,0.050984921827912325,-0.07454031373206525,-0.04373173582926392
1783693564160482000,2.01448193359375,-0.027415245670080184,-0.06564049303755164,-0.015392287986353038
1783693564170445000,2.024445068359375,-0.1671095475643873,0.005283602958731353,0.013650193559378385
1783693564180408000,2.034407958984375,-0.26297289103865623,0.050194027178548276,0.0022612959954887626
1783693564190369800,2.044369873046875,-0.3084299893558025,0.02217423974405974,-0.005326747980713844
1783693564200332800,2.054332763671875,-0.31053309911489485,-0.033721615805290636,0.03866546541564166
1783693564210295800,2.0642958984375,-0.24645079530477523,-0.03883687645979225,0.03722987965457141
1783693564220258000,2.074258056640625,-0.12230185306668281,-0.04441179051529616,0.0672786886986345
1783693564230220800,2.084220703125,-0.005403904870152473,-0.05253730236906558,0.11778956327401101
1783693564240182800,2.094182861328125,0.06469196014106274,-0.038357970369048415,0.18365195543393492
1783693564250145800,2.104145751953125,0.04689560668766498,-0.040148214786686,0.18616561875529586
1783693564260109000,2.114109130859375,0.02474281159043312,-0.02114628493580967,0.1596456414245069
1783693564270070800,2.12407080078125,-0.011526771664619444,-0.0452316555308178,0.1435129833996296
1783693564280033800,2.13403369140625,-0.026326281389594076,-0.057098984261415894,0.1455254192005843
1783693564289996800,2.143996826171875,-0.010263619861006736,-0.06323927711471915,0.08372603869587182
1783693564299959000,2.153958984375,0.011403437545895576,-0.07150631633102894,0.0911168065343052
1783693564309922000,2.163922119140625,-0.004015665382146835,-0.0988148136910051,0.08040120512209832
1783693564319883800,2.1738837890625,0.0075397478550672525,-0.05632723270393908,0.07156476851999759
1783693564329846800,2.1838466796875,-0.04422083452045917,-0.006498787434771657,0.07905307844877242
1783693564339809800,2.193809814453125,-0.11653145297169684,0.010649952297471463,0.025119097556918858
1783693564349772000,2.20377197265625,-0.16030220563709735,0.02481189477127045,-0.007322305712103843
1783693564359734800,2.21373486328125,-0.2501893973112106,0.03728065999373793,-0.0402089685305953
1783693564369697800,2.22369775390625,-0.27287702993750573,0.05357629002798348,-0.03867116450406611
1783693564379659800,2.23365966796875,-0.21794892344176767,0.02568732589893043,-0.033430414306372405
1783693564389623000,2.243623046875,-0.10391337893903255,-0.037488713253848255,-0.00824796918965876
1783693564399585000,2.2535849609375,-0.0409954427331686,-0.07573723189905285,0.009694368605688213
1783693564409548000,2.263548095703125,-0.03501578380167484,-0.0485942272990942,0.053499827258288855
1783693564419511000,2.273510986328125,-0.023026070800423622,-0.023816965449787675,0.1052997187308967
1783693564429473000,2.28347314453125,0.018050620475411415,-0.0010142185438424347,0.14815445252992213
1783693564439436000,2.29343603515625,0.06886836904287338,0.04494414382632821,0.2066810219090432
1783693564449399000,2.30339892578125,0.09906360082030295,0.06531104188747704,0.21805413738191126
1783693564459361000,2.313361083984375,0.07336509594023227,0.08556121823377907,0.20658881358094514
1783693564469323800,2.32332373046875,-0.009275777867436408,0.10005188120529054,0.18002631228268146
1783693564479286000,2.3332861328125,-0.13421207109093666,0.1359616547046229,0.17222082616351544
1783693564489249000,2.3432490234375,-0.2334942830979824,0.12211626736670732,0.11660064575038849
1783693564499212000,2.3532119140625,-0.2533347095996141,0.08593995188567786,0.043843014184013006
1783693564509173800,2.363173828125,-0.21309797627925872,0.010807115620560944,-0.0030656711809337136
1783693564519137000,2.373136962890625,-0.0989706618398428,-0.0267584987943992,-0.07116751283071934
1783693564529100000,2.38310009765625,0.018085107266902923,-0.03814648304283619,-0.10003010776489972
1783693564539062000,2.39306201171875,0.07784019552767277,0.011147490023449063,-0.13223382982052861
1783693564549025000,2.40302490234375,0.07355798816382884,0.034884595170058305,-0.14741824720986185
1783693564558987000,2.412987060546875,0.029827567508816717,0.08049640912488103,-0.17118381126597523
1783693564568950000,2.422949951171875,-0.04979600430428981,0.10273136608023196,-0.18940934991687536
1783693564578913000,2.4329130859375,-0.14505553666651247,0.12189842336494475,-0.200082938818261
1783693564588875000,2.442875,-0.17803133907318114,0.12836517169363795,-0.1555667746130377
1783693564598837800,2.452837646484375,-0.22177286564409732,0.09141023652292787,-0.13223821373470127
1783693564608800800,2.46280078125,-0.2199795524865389,0.030003837391175327,-0.11789616545364259
1783693564618763000,2.472762939453125,-0.18102759827971457,0.0011917305352166295,-0.15796850199252366
1783693564628726000,2.48272607421875,-0.16538286990225315,0.006266951440274715,-0.1077745844118297
1783693564638688000,2.49268798828125,-0.0954798971146345,0.010518727133236825,-0.049053223112970584
1783693564648651000,2.502651123046875,0.032680618852376934,-0.011036942321062088,0.05061060862280428
1783693564658614000,2.512614013671875,0.16937632345259188,-0.015149930597841739,0.10050568938739597
1783693564668576000,2.522575927734375,0.2333329550564289,-0.05512673434037715,0.145347870676592
1783693564678539000,2.5325390625,0.26537176887392994,-0.027204708191938695,0.14615027310065926
1783693564688502000,2.542501953125,0.254955588799715,-0.012816080822795629,0.1866304597880691
1783693564698464000,2.552464111328125,0.21473405304849147,-0.021496230884641407,0.16323672471903264
1783693564708427000,2.562427001953125,0.16500702232718467,-0.012612667205184697,0.10318857179582118
1783693564718390000,2.57239013671875,0.1245890872210264,-0.026002090936526653,0.08602364811375737
1783693564728352000,2.58235205078125,0.03720657184422016,-0.016384331231005488,0.06471855588704348
1783693564738314800,2.592314697265625,-0.06116495505869388,-0.011352255347929894,0.06766513073295355
1783693564748277000,2.602277099609375,-0.12809797212481497,0.02566829240489751,0.09374847021214663
1783693564758240000,2.612239990234375,-0.1998228996425867,0.020561507317796348,0.0641517157845199
1783693564768203000,2.622203125,-0.2408142507225275,-0.000646627340465784,0.025564649367332458
1783693564778164700,2.632164794921875,-0.24398352840840815,-0.017356500731408594,0.04308028618320822
1783693564788128000,2.6421279296875,-0.21847850027382373,-0.0007375935595482588,0.07238353755697607
1783693564798091000,2.652091064453125,-0.17646306684315202,0.03788432497531175,0.08677132467590272
1783693564808053000,2.662052978515625,-0.09748188458681106,0.046105040831863876,0.128730132548511
1783693564818016000,2.67201611328125,0.008019055804610252,0.025315898770652708,0.15951127445511518
1783693564827978000,2.68197802734375,0.08486965577304363,0.038700828989967705,0.1516019626352936
1783693564837941000,2.69194091796875,0.0733943220347166,0.05734802711904049,0.11833601817563176
1783693564847904000,2.701904052734375,-0.01698328350484371,0.08342800559736788,0.053020592373982066
1783693564857866000,2.711865966796875,-0.11767360874414444,0.10558777842465787,0.0018510346941649912
1783693564867829000,2.7218291015625,-0.1773310818493366,0.11272939380761235,-0.06733918671421707
1783693564877792000,2.7317919921875,-0.2309235558271408,0.041998482295870776,-0.12089125561639666
1783693564887754000,2.74175390625,-0.2329062540769577,-0.044242936754412945,-0.19752265987619758
1783693564897717000,2.751717041015625,-0.16343115131258965,-0.06194079826939851,-0.24887466145083306
1783693564907679000,2.761678955078125,-0.09091828828752041,-0.061170909875445066,-0.23608605315685272
1783693564917642000,2.77164208984375,-0.008762567648291588,-0.04861559888068586,-0.19522855758965013
1783693564927605000,2.78160498046875,0.03331540962457657,-0.03947294587362558,-0.11115421691276132
1783693564937567000,2.79156689453125,0.07274316464960574,0.014806889313831924,-0.001655073730647564
1783693564947530000,2.801530029296875,0.11645195799469947,0.06258000948838889,0.10793335517011582
1783693564957493000,2.811492919921875,0.1609539475440979,0.0725127168945968,0.1629278049003333
1783693564967455000,2.821455078125,0.19688801523447036,0.08455262571312487,0.18409480383060872
1783693564977418000,2.83141796875,0.14062427622079848,0.07494009017199277,0.1324463765926659
1783693564987380000,2.8413798828125,0.05026654442548752,0.027426607314310965,0.052124447251856325
1783693564997343000,2.851343017578125,-0.026723171752691267,-0.003413973161950707,0.00650083326138556
1783693565007306000,2.861305908203125,-0.08776128556132316,-0.007311236328817904,-0.010090236055478452
1783693565017268000,2.87126806640625,-0.10948153446018695,-0.035577874663844704,-0.012605579877272248
1783693565027231000,2.88123095703125,-0.04798574001193046,-0.04489332695454359,0.02074789673537016
1783693565037194000,2.891194091796875,0.04471884717047214,-0.06107150462158024,0.06654452920518815
1783693565047156000,2.901156005859375,0.11624737533330917,-0.061453562741726635,0.10653327911384403
1783693565057119000,2.911118896484375,0.13431670050919056,-0.025831702805683015,0.1270065966915339
1783693565067081000,2.9210810546875,0.09478899224102497,0.005069302620925009,0.11675627470351754
1783693565077044000,2.9310439453125,0.02270107662975788,0.04361662154961377,0.08937668486870824
1783693565087007000,2.941007080078125,-0.06668225717544556,0.06376344711929559,0.03841375567689538
1783693565096969000,2.950968994140625,-0.13201017713248728,0.05918148962389677,0.017756752095371482
1783693565106932000,2.960931884765625,-0.22102584666907785,0.05746540642101317,0.03891125687025487
1783693565116895000,2.97089501953125,-0.32627427360415456,0.04791011749245226,0.010919599551707506
1783693565126857000,2.98085693359375,-0.32983459643423557,0.023851342643424867,-0.01929930536225438
1783693565136820000,2.990820068359375,-0.2860001308828592,-0.003925466348044574,-0.007886369335651398
1783693565146782000,3.000781982421875,-0.23831892677545546,-0.023293233836628496,-0.043623818475380535
1783693565156745000,3.010744873046875,-0.1595335593521595,-0.050358241296932095,-0.04790251870788634
1783693565166708000,3.0207080078125,-0.08838087876439094,-0.06487772850412875,-0.03289754953868687
1783693565176670000,3.030669921875,-0.028639819028973577,-0.03817833948582411,-0.006763868111744523
1783693565186633000,3.040633056640625,0.04787351180911064,-0.021855565716326235,0.09852956700883805
1783693565196596000,3.050595947265625,0.11011457166671752,0.000649111558496952,0.1447862182058394
1783693565206558000,3.060557861328125,0.06684475426077842,0.013532010539807378,0.12519143702834845
1783693565216521000,3.07052099609375,0.06848901433646679,0.019164719197154043,0.09307108240723609
1783693565226483000,3.08048291015625,0.06986322529911995,-0.0032465076405555006,0.05491634299270808
1783693565236446000,3.090446044921875,0.053992286950349806,-0.007066540852747857,0.043146921678632495
1783693565246409000,3.100408935546875,0.043243513920903205,-0.006392733244411647,0.05043379075117409
1783693565256371000,3.110370849609375,-0.024139585000276565,-0.0000852671306580305,0.040910906254872675
1783693565266334000,3.120333984375,-0.18363865756094455,-0.0045353053420782085,-0.052690264441072936
1783693565276297000,3.130296875,-0.2873030301749706,0.011687295988574624,-0.12018559156507252
1783693565286259000,3.140259033203125,-0.25364333715736864,0.017021204362437127,-0.1132144373781979
1783693565296222000,3.150221923828125,-0.11495792004466056,-0.006967245196737349,-0.054368719047307966
1783693565306184000,3.160183837890625,0.00429214423596859,0.01191423661224544,-0.018056465694308278
1783693565316147000,3.17014697265625,0.07234744333028793,0.00781293877325952,-0.004785846037045121
1783693565326110000,3.18010986328125,0.03059212214052677,0.02932546320557594,0.05197049879916012
1783693565336072000,3.190072021484375,-0.050505029356479644,0.06704064215905964,0.04028736752904951
1783693565346035000,3.200034912109375,-0.10030687887966633,0.04750676085595041,0.05112834888659417
1783693565355998000,3.209998046875,-0.13363339442014693,0.044843131137266755,0.06830730109401047
1783693565365960000,3.2199599609375,-0.09600655133724212,0.059654550495743745,0.06758220168985427
1783693565375923000,3.2299228515625,-0.04395195445120335,0.021783742589130996,0.05801138639859855
1783693565385885000,3.239885009765625,0.028777766194939613,0.006961399977840483,0.0428640861492604
1783693565395848200,3.24984814453125,0.1155313360184431,-0.038153351175040005,0.0405984793048352
1783693565405811200,3.259811279296875,0.16991642167866228,-0.07837521571982652,0.05655914176367223
1783693565415773200,3.269773193359375,0.169105689817667,-0.08869326918181031,0.027673750475794075
1783693565425736200,3.279736083984375,0.08236147234439849,-0.048648368639126416,0.009882584654167293
1783693565435699200,3.28969921875,0.037487726873159405,-0.0003695274321362376,0.02625277776196599
1783693565445661200,3.2996611328125,0.02691431041061878,0.04350227445494383,0.03257277456372976
1783693565455624200,3.309624267578125,0.00040039749443531033,0.07314915163461118,0.04568265070132911
1783693565465586200,3.319586181640625,-0.0607762480020523,0.08496920715738088,0.03567760871127248
1783693565475549200,3.329549072265625,-0.1396259128332138,0.06715838678721338,-0.020469883511587975
1783693565485512200,3.33951220703125,-0.1654851612329483,0.02342456859871745,-0.04765753097087144
1783693565495474200,3.34947412109375,-0.2014011087447405,0.016816840896755458,-0.09710486796796321
1783693565505437200,3.359437255859375,-0.17281155859827993,-0.025701208293810486,-0.11329100974574685
1783693565515399200,3.369399169921875,-0.09340016823112963,-0.051959137154929336,-0.1049020246502012
1783693565525362200,3.379362060546875,-0.009677344405651092,-0.08411934886239468,-0.07067395716011524
1783693565535325200,3.3893251953125,0.06413198817074299,-0.07354531134534627,0.003910159181058407
1783693565545287200,3.399287109375,0.04261398384571075,-0.0147385367853567,0.07934066321849823
1783693565555250200,3.409250244140625,-0.019197452422976494,0.035871341185085476,0.11038235575743019
1783693565565213200,3.419213134765625,-0.11237491781413554,0.0772342289911583,0.04310695499442518
1783693565575175200,3.429175048828125,-0.15325053355991838,0.055301360254921016,0.001376768245920539
1783693565585138400,3.439138427734375,-0.10153320580422878,0.028320158620551227,-0.04284457773119211
1783693565595101200,3.44910107421875,-0.0072498249977827065,0.0026675752414390443,-0.07829283466599882
1783693565605063200,3.459063232421875,0.10271394002139568,-0.04873772742301225,-0.08054039439707994
1783693565615026200,3.469026123046875,0.10845979019701481,-0.04742865411844104,-0.06126819623745978
1783693565624988400,3.478988525390625,0.0193453364610672,-0.0015117562698200343,-0.07368468328341841
1783693565634951200,3.488951171875,-0.023922142857313155,0.0021242256123572586,-0.05956219603717327
1783693565644914200,3.4989140625,-0.05151391413807869,0.014857560055144131,-0.018810498932003972
1783693565654876200,3.508876220703125,-0.09712123458087443,0.004948452720232308,-0.0002931377276778221
1783693565664839200,3.518839111328125,-0.10974164670109748,-0.00016746552139520644,0.014230185404419898
1783693565674801200,3.52880126953125,-0.10862228728234767,0.0311128215463832,0.022300313809141516
1783693565684764200,3.53876416015625,-0.09572481178641319,0.05283902526199817,0.03485474802106619
1783693565694727200,3.54872705078125,-0.1203548106521368,0.026709800814464685,0.06801701291054486
1783693565704689200,3.558689208984375,-0.13824761021733284,0.04026194082684815,0.08792166375480592
1783693565714652400,3.56865234375,-0.14316577739715575,0.04122950721736997,0.03256371447443962
1783693565724615400,3.578615478515625,-0.1588759722262621,-0.008093290084600448,-0.008339592995867133
1783693565734577200,3.5885771484375,-0.10572305870950222,-0.0532401899414137,-0.025552739733830092
1783693565744540200,3.5985400390625,-0.028272154760360716,-0.0632503464980051,0.015014906041324138
1783693565754502400,3.60850244140625,-0.011044541105628013,-0.03285805777851492,0.010520224970579146
1783693565764465400,3.61846533203125,-0.03163841632306576,-0.0031263153269886967,0.014912760841101408
1783693565774428200,3.62842822265625,-0.023581366595625874,0.018890505365654824,0.051077130156010384
1783693565784390100,3.63839013671875,-0.05064239200055599,0.04142711214870214,0.06065276775285601
1783693565794353200,3.648353271484375,-0.03363514309823513,0.04589833927862346,0.06856361394263803
1783693565804316200,3.658316162109375,0.03218377524614334,0.047785322069004176,0.08074958016835153
1783693565814278100,3.668278076171875,0.11537117702066897,0.05242072678469121,0.10763313011452555
1783693565824241200,3.6782412109375,0.16081600037813185,0.031355142402276395,0.1157014318883419
1783693565834203100,3.688203125,0.17314707416296005,0.05087963482253253,0.12070566991642116
1783693565844166400,3.69816650390625,0.1529635333120823,0.06061608900427818,0.11618358938209712
1783693565854129400,3.70812939453125,0.10573591819107532,0.07337035663723945,0.07387056124433874
1783693565864091100,3.718091064453125,0.07987024005055426,0.05024561123531311,0.01771035567037761
1783693565874054100,3.72805419921875,0.05437982496321201,-0.03353518985509872,-0.037209056062251326
1783693565884017200,3.73801708984375,-0.013368015617132186,-0.029433636287786065,-0.12700674282200633
1783693565893979400,3.7479794921875,-0.14159224447011948,-0.04036072502620518,-0.19784648500308394
1783693565903942100,3.757942138671875,-0.18369126453101634,-0.019873853847198187,-0.19732830634787676
1783693565913904000,3.767904052734375,-0.14920505756139754,-0.028521124552749095,-0.1332814391773194
1783693565923867100,3.7778671875,-0.08412088323235511,-0.011567505533806978,-0.04438596195429563
1783693565933830100,3.787830078125,-0.019883681121468544,-0.020637823957018554,0.03987637557536363
1783693565943792000,3.797792236328125,0.012293079861998558,-0.020771168013103306,0.06801036397404968
1783693565953755100,3.807755126953125,0.04921557406783104,-0.0090623908450827,0.0890435804568231
1783693565963718100,3.81771826171875,0.09227671715915202,-0.006326499607786536,0.09844561505243181
1783693565973680400,3.827680419921875,0.10098200166225432,-0.01854523559194058,0.15060937140136957
1783693565983643400,3.837643310546875,0.08370236555933952,0.00001474091140553355,0.18193221896924078
1783693565993605000,3.847605224609375,-0.02033259393274784,-0.003924808760918676,0.13368497847691177
1783693566003568000,3.857568115234375,-0.18466157086789606,0.027859664969332513,0.15043050770312547
1783693566013531100,3.86753125,-0.21738018364310263,0.009963486136961727,0.09684000648669898
1783693566023493400,3.877493408203125,-0.22282909669876097,-0.007687668425776064,0.08008717073686421
1783693566033456400,3.887456298828125,-0.23368892888724802,-0.01626174603095278,0.037960751212388275
1783693566043418000,3.897418212890625,-0.16434592806994913,-0.015793763193022458,0.006951426573097706
1783693566053381000,3.907381103515625,-0.0716033469647169,-0.035413843208551406,0.01752382012233138
1783693566063344000,3.91734423828125,-0.008505962538719177,-0.03578903319649398,0.05068696179464459
1783693566073306400,3.927306396484375,-0.04346913937032223,-0.003523443152103573,0.0528851294260472
1783693566083269000,3.93726904296875,-0.09299451003968714,0.03278906592922285,0.05674889218211174
1783693566093232000,3.947232177734375,-0.16338322051763535,0.07822972456822172,0.05063055543228984
1783693566103194000,3.957194091796875,-0.15964286494553087,0.0953597048010677,0.04157777266576886
1783693566113157400,3.967157470703125,-0.1280927114278078,0.06667025621039792,0.03589899637699127
1783693566123119000,3.977119140625,-0.10478022490143775,0.03580518061369657,0.01511281345784664
1783693566133082000,3.98708203125,-0.028075755405426023,0.004109408080205321,-0.00706635818965733
1783693566143045000,3.997045166015625,0.033278000223636625,-0.028536687448062002,0.010201952801644801
1783693566153007400,4.00700732421875,0.04692307921648025,-0.02163443377893418,-0.0010049392588436603
1783693566162970400,4.016970458984375,0.07324234634339809,-0.006092690851911902,0.03394998120106756
1783693566172933000,4.02693310546875,0.050794952213764184,0.00865625772960484,0.039157048324868084
1783693566182895000,4.03689501953125,0.01940671125948429,0.03093224081508815,0.03817037537507713
1783693566192858000,4.046858154296875,0.005177694898843765,0.004136442217603326,0.03552957854270935
1783693566202820400,4.0568203125,-0.018178046247363088,-0.005567351803556084,0.028589915472641586
1783693566212783400,4.066783447265625,-0.00852583628296852,-0.015783479261025784,0.026668884282186625
1783693566222746000,4.07674609375,0.02838262939751148,-0.04784101604530588,0.033615707745403046
1783693566232708000,4.0867080078125,0.041430327019095416,-0.04457081700190901,0.03931355406083167
1783693566242671400,4.09667138671875,0.05422375761866569,-0.02892842671200633,0.040026889961957926
1783693566252633300,4.10663330078125,0.022998013749718663,0.022891557700559496,0.06309869960024952
1783693566262596000,4.11659619140625,-0.010889642804861068,0.048710985546559095,0.05105857158601284
1783693566272559000,4.12655908203125,-0.03147591923773289,0.04634747128561139,0.03796002056002617
1783693566282521300,4.136521240234375,-0.07199439210891723,0.01907302232570946,0.023616584039479492
1783693566292484400,4.146484375,-0.12971651323735714,0.0056901196666993194,0.017845307161659
1783693566302447400,4.156447265625,-0.16226269205510616,0.037967765475064516,0.006987520799785852
1783693566312409000,4.1664091796875,-0.15860592311322688,0.05214844918195158,0.01695288836658001
1783693566322372000,4.1763720703125,-0.1618728159546852,0.043102516281325366,0.02802928591519594
1783693566332334300,4.186334228515625,-0.1869914751201868,0.03707647919114679,0.03199285578392446
1783693566342297300,4.19629736328125,-0.18137363523840902,0.03423754770448431,-0.008959770720824599
1783693566352260000,4.206260009765625,-0.13495616745650768,0.007786142097879201,-0.008378682897239923
1783693566362222000,4.21622216796875,-0.07145195579528808,-0.027992168775200842,-0.012369213838130236
1783693566372185300,4.226185302734375,0.035894904723763464,-0.02554879421107471,-0.018404256218671797
1783693566382148400,4.2361484375,0.10471475844979286,-0.023886395690497008,0.01037577499859035
1783693566392110600,4.246110595703125,0.11945990763902664,0.005114931860938668,0.039436011396721
1783693566402073600,4.256073486328125,0.03713409112989902,0.055046709640417246,0.06526106526590883
1783693566412035600,4.26603564453125,-0.02968319060206413,0.07482840995844453,0.041211642767116426
1783693566421998600,4.27599853515625,-0.03630991526544094,0.04346720314156264,0.07630319521874189
1783693566431961600,4.285961669921875,0.018474983367323873,0.036874526878260074,0.10145984830707311
1783693566441923600,4.295923583984375,0.00846270791888237,0.05034837749004364,0.10116086536049843
1783693566451886300,4.30588623046875,-0.08459668405055999,0.05508927014051005,0.04402852681875229
1783693566461849300,4.315849365234375,-0.07855506579875945,0.011946604511886835,0.007566928122937679
1783693566471811600,4.3258115234375,-0.030586276921629903,-0.03332205856107175,0.047234044861793514
1783693566481774600,4.335774658203125,-0.04918810153901577,-0.01714315024167299,0.06819295399934053
1783693566491736300,4.345736328125,-0.11420330228507518,-0.017346874386537817,0.03836524036005139
1783693566501699300,4.35569921875,-0.1334422557622194,-0.011604640940111129,0.03478833172135055
1783693566511662600,4.36566259765625,-0.12435527846515178,-0.0005356777792796492,0.03237337953411042
1783693566521624600,4.37562451171875,-0.12432780593633651,0.0032755876045674082,0.0396142175078392
1783693566531587600,4.385587646484375,-0.02264437800645828,-0.008286456302832812,0.05595554984733462
1783693566541549600,4.395549560546875,0.08081248933672905,0.011738112860359251,0.06627258039601147
1783693566551512600,4.4055126953125,0.14066343918740748,0.04666240071998909,0.08787848220020532
1783693566561475600,4.4154755859375,0.1719026270598173,0.06824125012047588,0.10228840808570384
1783693566571437600,4.4254375,0.104817049780488,0.08618870248235762,0.10682495553679763
1783693566581400300,4.435400390625,-0.029340076252818106,0.13304311864310875,0.08350662379153072
1783693566591363300,4.44536328125,-0.10948328802585601,0.1143569767431356,0.02566138774007559
1783693566601325600,4.45532568359375,-0.13903671476840973,0.03111700453115627,0.0035093232952058315
1783693566611288600,4.46528857421875,-0.10253156919181346,-0.03349036433268338,-0.02579473179616034
1783693566621250300,4.475250244140625,-0.061785717305541034,-0.04034428534805774,-0.04894713238999247
1783693566631213300,4.48521337890625,-0.07620294971466064,-0.032952768590953196,-0.03472878355383873
1783693566641176600,4.495176513671875,-0.1076186631977558,0.009721494074631482,-0.0062036769457161425
1783693566651138600,4.505138671875,-0.20020400791466236,0.054643700063787395,0.018639964670687913
1783693566661101600,4.5151015625,-0.24805823050141332,0.1088806276912801,0.04154847350604832
1783693566671063300,4.525063232421875,-0.2535392922610044,0.08831318382304161,0.057554144150391215
1783693566681026600,4.535026611328125,-0.21268764191269873,0.029051943493820724,0.04805259470306337
1783693566690989600,4.544989501953125,-0.11617138748764991,-0.0052998599737882615,0.02341309735663235
1783693566700951600,4.55495166015625,-0.032979894059896465,-0.026128402463626115,0.015683306822180748
1783693566710914600,4.56491455078125,0.06455693558454513,-0.030116814512666314,0.0353543681062758
1783693566720877300,4.574877197265625,0.13311901515722274,-0.005399794950615614,0.06644077656976878
1783693566730839600,4.584839599609375,0.1270429101139307,0.013312723499629645,0.0926242884878069
1783693566740802600,4.594802490234375,0.06660685385167599,0.0577653026830405,0.1093590040590614
1783693566750764500,4.6047646484375,-0.006783376529812812,0.06433777640853076,0.07481982479318976
1783693566760727300,4.614727294921875,0.00015489830076694487,0.0569322493923828,0.03750665076933801
1783693566770690600,4.624690673828125,-0.007823825493454933,0.0453214527061209,-0.012685147919505833
1783693566780652500,4.634652587890625,-0.04065174386203289,0.01875370897715911,-0.03619746786691248
1783693566790615600,4.644615478515625,-0.05222118562459945,-0.009664886782877146,-0.03770480368994176
1783693566800578600,4.65457861328125,-0.04012801224887371,-0.022046759173180906,-0.07854037968628108
1783693566810540500,4.66454052734375,-0.012324059522151947,-0.04260375471264124,-0.10600041434615849
1783693566820503600,4.674503662109375,-0.033739772516489026,-0.02185457933563739,-0.07361417533047497
1783693566830465500,4.684465576171875,-0.059490299844741815,0.005165894863195717,-0.04932042268179357
1783693566840428500,4.694428466796875,-0.0625362434118986,0.010103332999069244,0.005328647676855325
1783693566850391600,4.7043916015625,-0.04900865331888198,0.028797018884681162,0.05016030757203698
1783693566860353500,4.714353515625,-0.01400046830177307,0.02725252938903868,0.07405512403100728
1783693566870316500,4.724316650390625,-0.03823474584817886,0.04437244488559663,0.11456884766183793
1783693566880278500,4.734278564453125,-0.12710837656557558,0.046374030498974025,0.05870799036063253
1783693566890241500,4.744241455078125,-0.13518705360293387,0.013228844608459621,0.0157680624961853
1783693566900204500,4.75420458984375,-0.042344519254565234,-0.00244814207078889,0.049856210058927534
1783693566910166500,4.76416650390625,0.028967735809087753,-0.011519209412671625,0.06125307173356413
1783693566920129500,4.774129638671875,0.03007540479004383,-0.021612715137470512,0.038112653838470574
1783693566930092500,4.784092529296875,0.06221475637257099,-0.014484032301325351,0.03128222329653799
1783693566940054500,4.794054443359375,-0.02567746209204197,0.009848901580274105,0.04389868989400565
1783693566950017500,4.804017578125,-0.17479893302321434,0.028156510757748037,-0.029088439579308033
1783693566959979500,4.8139794921875,-0.20038930135369298,0.004024305346328765,-0.04574095675982535
1783693566969942500,4.823942626953125,-0.12163783619999885,-0.04830616760533303,-0.006126958447694778
1783693566979905500,4.833905517578125,-0.037114801907539366,-0.0485915238853544,0.038553164147585625
1783693566989867500,4.843867431640625,0.009742810857295989,-0.02230674354992807,0.04861519702188671
1783693566999830500,4.85383056640625,0.04138707239925861,0.007398585818707943,0.04367328364029526
1783693567009793500,4.86379345703125,0.011265490379929542,0.02451490285238251,0.05169445833675563
1783693567019755500,4.873755615234375,-0.050529579275846476,0.043115558425989,0.022408742619678377
1783693567029718300,4.88371826171875,-0.05979775835871696,0.04671440490186214,0.017987784372270107
1783693567039680500,4.893680419921875,-0.012418752068281172,0.025520572763588278,0.016804419806599614
1783693567049643500,4.9036435546875,0.013108487898111343,-0.010033318236470221,0.005166004461050033
1783693567059606500,4.9136064453125,0.06965922715961932,-0.05010614796569571,-0.034854601890593764
1783693567069568500,4.923568603515625,0.13208382689058779,-0.05259801958035677,-0.027113486244529483
1783693567079531500,4.933531494140625,0.1329255384117365,-0.03498948031663895,-0.018280775969475506
1783693567089493500,4.943493408203125,0.12596446722745894,-0.02017610646309331,0.0018631635233759879
1783693567099456500,4.95345654296875,0.04913724813461304,-0.002026720054633915,0.035005262407660484
1783693567109419500,4.96341943359375,-0.07311024439632892,-0.005443341831397265,0.021448007828742264
1783693567119381500,4.973381591796875,-0.15799977391362188,0.03490419491967186,-0.02063990631625056
1783693567129344500,4.983344482421875,-0.2294768641501665,0.005401493717357516,-0.03777363114245236
1783693567139307500,4.9933076171875,-0.2452589551717043,-0.02557365465769544,-0.005361746228858828
1783693567149269500,5.00326953125,-0.2101572466522455,-0.032359058747813106,0.007870879505574703
1783693567159232500,5.013232421875,-0.14479834703505037,-0.039476526070199906,0.01721672693453729
1783693567169194500,5.023194580078125,-0.07983750682473183,-0.06468965858612209,0.029545243436098097
1783693567179157500,5.033157470703125,-0.031192426121234892,-0.06149436967615038,0.08510930974781512
1783693567189120500,5.04312060546875,-0.035029812327027315,0.0007462335237301886,0.08977510960176587
1783693567199082500,5.05308251953125,-0.09274258110523223,0.03334527503987774,0.07759571924731135
1783693567209045500,5.06304541015625,-0.13215923021435738,0.05497528837202117,0.08903554328083992
1783693567219007500,5.073007568359375,-0.10135317306220532,0.06768458435209468,0.0824006353110075
1783693567228970500,5.082970458984375,-0.0713116705417633,0.020402499097492546,0.07064370815232396
1783693567238933500,5.09293359375,0.008659691795706748,-0.008571903914399444,0.0610347528077662
1783693567248895500,5.1028955078125,0.07351064189076423,-0.02132761458577588,0.042897623092681164
1783693567258858500,5.1128583984375,0.08883037609755992,-0.019076712120138107,0.020435323654860258
1783693567268821500,5.122821533203125,0.0070662851244211195,-0.02311491812765598,-0.00032777064964175225
1783693567278783500,5.132783447265625,-0.02972293809056282,-0.03463301329547539,-0.02256356785520911
1783693567288746500,5.14274658203125,-0.05894786353111267,-0.0061828716197051105,-0.026216391274333
1783693567298708500,5.15270849609375,-0.059847442719340324,-0.005100136150605976,-0.010951748255640268
1783693567308671500,5.16267138671875,-0.05415770664513111,0.016318554252106696,0.027319384080171583
1783693567318634500,5.172634521484375,-0.04294949941039085,0.03830980211207643,0.049125849957764145
1783693567328596500,5.182596435546875,-0.002882277438044548,0.011684793504234403,0.062034431369602676
1783693567338559700,5.192559814453125,0.06092237847447395,-0.014213910123053937,0.051008448833972216
1783693567348521500,5.202521484375,0.0745879157334566,-0.04236174438400194,0.04595861809849739
1783693567358484500,5.212484375,0.09487199434936046,-0.02649210294317454,0.04311214262619614
1783693567368447500,5.222447509765625,0.10094926843643189,-0.006091631405986845,0.05470277330726385
1783693567378409700,5.23240966796875,0.06284720905721188,0.02742001317674294,0.05619359638690948
1783693567388372500,5.24237255859375,0.0025479309171438217,0.07329305361732841,0.05098112243562936
1783693567398335500,5.25233544921875,-0.0631856472313404,0.05610063914014026,0.013450433203577994
1783693567408297200,5.262297119140625,-0.11348726297020911,0.016721892622299492,-0.05163096464648843
1783693567418260200,5.27226025390625,-0.09993336939215659,-0.012486154748685658,-0.03408201008290052
1783693567428222500,5.282222412109375,-0.09641922379136085,-0.04789208864541724,-0.016385463742166758
1783693567438185500,5.292185546875,-0.05372808305621147,-0.04500330840134993,0.003886047653108835
1783693567448148200,5.302148193359375,-0.04952069449424743,-0.01942735218871385,0.038117110817879434
1783693567458110200,5.312110107421875,-0.06085457393527031,0.019802998834382742,0.07034530972763896
1783693567468073500,5.322073486328125,-0.0859247177839279,0.054572406659554686,0.07563216408938168
1783693567478035500,5.332035400390625,-0.07181669745445252,0.04825505847260356,0.08650222541093826
1783693567487998200,5.341998291015625,-0.0250181214004755,0.016721929154917596,0.06979059845432639
1783693567497961200,5.351961181640625,-0.01672317126393318,0.014724672656785696,0.047415100517123936
1783693567507923500,5.36192333984375,-0.06427285794615745,0.03899568375069648,0.024593173986673354
1783693567517886500,5.371886474609375,-0.07350538119375705,0.011903806549776345,-0.01676394166573882
1783693567527849500,5.381849365234375,-0.03650923722982406,-0.005480897362809628,-0.04383461168184876
1783693567537811200,5.391811279296875,-0.032547347861528395,-0.01764635052345693,-0.07645078699588775
1783693567547774200,5.401774169921875,-0.04115560173094272,-0.01705598341487348,-0.1061029979377985
1783693567557736400,5.411736328125,-0.007992752319574355,-0.034696141659561544,-0.09939180986136198
1783693567567699500,5.421699462890625,0.044832828938961025,-0.02625062233749777,-0.04921075176224112
1783693567577662200,5.431662109375,0.08477320966124534,-0.012702025989070534,0.03298004019036889
1783693567587624200,5.441624267578125,0.07736614827513694,0.021540946809202433,0.08989303689301013
1783693567597587500,5.45158740234375,0.04312544049918651,0.0643527913145721,0.1204905658610165
1783693567607549400,5.461549560546875,0.00945522608757019,0.06546230519274249,0.1135066983230412
1783693567617512200,5.47151220703125,-0.017543839997053147,0.01851849371548742,0.07189502338767051
1783693567627475200,5.48147509765625,-0.07590542807281017,0.01951899426123127,0.04039513875246048
1783693567637437400,5.4914375,-0.16404840642809868,0.014561572783254087,0.004611877709627152
1783693567647400400,5.501400390625,-0.21958383116722105,0.009413012647349386,-0.03251198428720235
1783693567657363500,5.511363525390625,-0.25854864485561846,-0.01274500661427155,-0.05851327150613069
1783693567667325200,5.5213251953125,-0.3034592152059078,-0.024814470320846885,-0.08684665493443608
1783693567677288200,5.5312880859375,-0.3108563397198915,-0.04679081287262961,-0.09748451493531465
1783693567687250400,5.54125048828125,-0.20850012709498406,-0.05365152895497158,-0.07012216849625111
1783693567697213400,5.55121337890625,-0.08940262302756309,-0.037466282226331526,-0.04999269592016935
1783693567707176400,5.561176513671875,0.02572013218998909,-0.036242969242762775,0.022961481131613254
1783693567717138200,5.57113818359375,0.12143208449482917,-0.0023826756191439925,0.10206833559423685
1783693567727101400,5.581101318359375,0.17130466116666793,0.037816410838253794,0.14472119014561174
1783693567737063400,5.5910634765625,0.13738076425492762,0.06863452375438064,0.14654840557277202
1783693567747026400,5.6010263671875,0.1211217033714056,0.043785676239896563,0.17127704250738024
1783693567756989200,5.6109892578125,0.09949147084355353,0.039044272132776676,0.13772636282220482
1783693567766951400,5.620951416015625,0.026184242570400237,0.03687898385766893,0.0889591170437634
1783693567776914400,5.63091455078125,-0.02966799303293228,0.018993582147639243,0.03314633666798472
1783693567786876400,5.64087646484375,-0.011062661284208297,-0.012309647404309362,0.01424801332205534
1783693567796839200,5.650839111328125,-0.0021188918501138685,-0.044706535678170616,-0.0016655951246619225
1783693567806802200,5.66080224609375,-0.06855097365677357,-0.025407193783298133,-0.016308014591783285
1783693567816764400,5.670764404296875,-0.09706512047946453,-0.011863328408915548,-0.035673809318989516
1783693567826727400,5.6807275390625,-0.07398118201196194,-0.009368150592315942,-0.004935264445096254
1783693567836690400,5.6906904296875,-0.1391857678502798,-0.004717237780243158,0.0040653497427701945
1783693567846652200,5.700652099609375,-0.1912573158711195,0.012062887835316359,-0.0407220326192677
1783693567856615400,5.710615478515625,-0.1104728835850954,-0.0018504501722753047,-0.0044544951908290385
1783693567866577400,5.720577392578125,-0.05387304448485374,0.01884894951255992,0.02719736513569951
1783693567876540400,5.73054052734375,-0.038410686936974525,0.015656144820619375,0.04367357590124011
1783693567886503400,5.74050341796875,-0.03474573468863964,0.03827400014633313,0.04010214715525508
1783693567896465400,5.75046533203125,-0.0167746091902256,0.025755824557878077,0.029126579632610082
1783693567906428400,5.760428466796875,0.019528291812539098,0.010904767308756709,0.004601648576557636
1783693567916390400,5.770390380859375,0.019605448701977727,-0.008099135303497314,0.0166112353220582
1783693567926353400,5.780353515625,0.012851298266649245,0.008868676637578754,-0.018906360521912573
1783693567936316200,5.790316162109375,-0.013156418693065643,0.005265190519206225,-0.01500526143014431
1783693567946278400,5.8002783203125,-0.02370060906112194,0.02242551109138876,0.016181465602666138
1783693567956241400,5.810241455078125,-0.08434183250665664,0.0035622590588405725,0.016219897916913032
1783693567966204400,5.820204345703125,-0.11216390541195868,-0.004626783017814159,0.009764584297686814
1783693567976166100,5.830166259765625,-0.10409691881239413,-0.04029832731448114,-0.00045358898639678955
1783693567986129400,5.84012939453125,-0.06020224750638008,-0.06479222391145303,0.01066620931252837
1783693567996091400,5.85009130859375,-0.048399581509828565,-0.04211264672745019,0.004087853835523128
1783693568006054400,5.860054443359375,-0.05878244383633136,0.00019334888132289051,0.0008073708601295948
1783693568016017400,5.870017333984375,-0.056114101409912104,0.03965464084977284,0.02164119231328368
1783693568025979400,5.8799794921875,-0.07211538814008235,0.05411264366069808,0.04247019146084785
1783693568035942400,5.8899423828125,-0.07284604050219058,0.049045313801150764,0.05241334719583392
1783693568045904400,5.899904296875,-0.0635211627960205,0.04362478658976033,0.04247428311407566
1783693568055867400,5.909867431640625,-0.06566635813117026,0.015297869434859604,0.026569442495703696
1783693568065830100,5.919830078125,-0.04306289665699005,-0.012038904171530156,0.006293693316727876
1783693568075792400,5.92979248046875,0.021832477101683616,-0.047601617798861115,0.02216404714360833
1783693568085755400,5.93975537109375,0.10019523519873619,-0.055626537088677284,0.05125803968086838
1783693568095718400,5.949718505859375,0.130759300288558,-0.05083075417950749,0.08272095330655574
1783693568105680100,5.95968017578125,0.1257224751651287,-0.04529186128545552,0.08735635802224279
1783693568115643100,5.96964306640625,0.08296762154400349,-0.021948102837987243,0.09503083817288278
1783693568125605400,5.97960546875,0.0059510173588991164,0.014561499718017875,0.13795944092571735
1783693568135568400,5.989568359375,-0.059226095950603484,0.029816498125530777,0.13442951323390007
1783693568145531400,5.999531494140625,-0.13740531417429447,0.01806044774968177,0.10278671299666166
1783693568155493400,6.009493408203125,-0.19580138904154298,0.022866916449647397,0.07731412582695484
1783693568165456400,6.019456298828125,-0.2234808386057615,0.007976769299153239,0.022743308336287734
1783693568175418400,6.02941845703125,-0.23323533990085124,0.0025506708635017273,-0.03613777356892824
1783693568185381400,6.03938134765625,-0.202981655934453,0.003993581414502114,-0.0537614008039236
1783693568195344400,6.049344482421875,-0.17926526478230953,-0.004467756531201302,-0.02115823110193014
1783693568205306400,6.059306396484375,-0.17276245875954627,-0.001294569855183363,-0.0607546206921339
1783693568215269400,6.069269287109375,-0.15409341412484645,-0.0033578955931589005,-0.07556582085490227
1783693568225231400,6.0792314453125,-0.11061024622917175,-0.0060279002537019545,-0.04053732370212674
1783693568235194400,6.0891943359375,-0.01418050104379654,-0.006240593156311661,-0.0007531564548611641
1783693568245157000,6.0991572265625,0.03119476420879364,0.01408295895345509,0.018645663759112356
1783693568255119400,6.109119384765625,0.029231939703226087,0.02541687492709607,0.018189006032794712
1783693568265082400,6.119082275390625,0.06131693075001239,0.0192558863456361,0.040406536929309365
1783693568275045400,6.12904541015625,0.0881733734935522,0.011319777850434183,0.0399497330725193
1783693568285007400,6.13900732421875,0.05044716168940067,0.03327021877598017,0.015598697278648615
1783693568294970400,6.148970458984375,-0.004075871136784553,0.0480129933450371,-0.008298457267880439
1783693568304932400,6.158932373046875,-0.014050152662396431,0.011725326444022357,0.013670067303627728
1783693568314895400,6.168895263671875,0.006439677658677101,-0.0024919994788244366,0.013605331504344939
1783693568324858400,6.1788583984375,0.044783729100227355,0.003952719681151211,-0.0041167876690626146
1783693568334820400,6.1888203125,0.09153437435925006,-0.015220237621385604,0.044104806925356385
1783693568344783400,6.198783447265625,0.1571662456989288,-0.028285964090004563,0.07052212759926915
1783693568354745300,6.208745361328125,0.18901099824905396,-0.028037450955342498,0.06287760419547557
1783693568364708400,6.218708251953125,0.16805004328489304,0.007606748676672577,0.05993716682940721
1783693568374671400,6.22867138671875,0.0831716196835041,0.03715169985182583,0.07333835406377912
1783693568384633300,6.23863330078125,-0.016883330261707304,0.07472027340885251,0.09992898547798394
1783693568394596600,6.2485966796875,-0.09799567932784557,0.06954809493534267,0.07688698645606637
1783693568404558300,6.258558349609375,-0.20188976904451847,0.07047934790346772,0.06423793276324868
1783693568414521300,6.268521240234375,-0.2423480361610651,0.0575553862594068,0.0457804850526154
1783693568424484600,6.278484619140625,-0.24759061298966406,0.03270772605501115,0.03349909562841057
1783693568434446600,6.288446533203125,-0.21959376803934572,0.008882248505204915,0.006859656636416912
1783693568444409300,6.298409423828125,-0.19734920300543307,-0.0009310520387254655,-0.006413666434586048
1783693568454372400,6.308372314453125,-0.20433950028419492,0.009389777902234345,0.024561317543685436
1783693568464334600,6.31833447265625,-0.20178923127949236,0.017168558677565306,0.0672935209415853
1783693568474297600,6.328297607421875,-0.19074644373953342,0.027481223578378556,0.08668225815296172
1783693568484259300,6.33825927734375,-0.1428939747184515,0.025221827279031276,0.09866919467523694
1783693568494222300,6.348222412109375,-0.08142273018956184,0.023627872618474065,0.11288067537918686
1783693568504185300,6.358185302734375,0.008923895689845085,0.025051019023079425,0.12365896676406264
1783693568514147600,6.368147705078125,0.08927402821183204,0.02997313172565773,0.1271717971906066
1783693568524110600,6.378110595703125,0.11911153259277343,0.0264766313794069,0.09700929863899946
1783693568534072300,6.388072265625,0.13759820639789103,0.06105946712391451,0.07825257572084665
1783693568544035300,6.398035400390625,0.1068827501386404,0.07568690821761265,0.08697992592528461
1783693568553998600,6.40799853515625,0.09009703503251075,0.04089611054453999,0.062029755194485184
1783693568563960600,6.417960693359375,0.06792436619102954,0.03200363290626555,0.00980681600421667
1783693568573923300,6.42792333984375,0.04486497764289379,-0.004867332041729241,-0.021295739876478908
1783693568583886300,6.43788623046875,0.005364741903543472,0.004238806613534689,-0.033215748642385
1783693568593848600,6.4478486328125,-0.024353520011901855,-0.011522917473409324,-0.08661226165667175
1783693568603811600,6.4578115234375,-0.07098024663031101,-0.01727424754174426,-0.1173581130541861
1783693568613773600,6.467773681640625,-0.1294341891646385,0.023058383901137857,-0.07770765518918633
1783693568623736300,6.477736328125,-0.14055939429104328,0.03984665629053488,-0.05112155381962657
1783693568633699300,6.48769921875,-0.15481237604916095,0.04681622130852192,-0.02804959805086255
1783693568643661600,6.49766162109375,-0.14586451496183872,0.03139008585149422,-0.003475128764659166
1783693568653624600,6.50762451171875,-0.11685060192346572,0.034692926789168264,0.026917233020067214
1783693568663586300,6.51758642578125,-0.05046002117097378,0.04156080326465889,0.07090922722071409
1783693568673549300,6.52754931640625,0.008663198927044868,0.02046626678239554,0.13795213440209628
1783693568683512600,6.5375126953125,0.0176285956710577,0.04291457422748208,0.14619140882864592
1783693568693474600,6.547474609375,0.013760814327001571,0.059638786671031264,0.11891484097689389
1783693568703437600,6.5574375,0.02977203792929649,0.06408593880562112,0.12659078243225813
1783693568713399300,6.5673994140625,0.028211949005723,0.05113611206794157,0.10145093434825539
1783693568723362600,6.577362548828125,-0.045476387539505954,0.057191356986295426,0.07556435955017804
1783693568733325600,6.58732568359375,-0.12608137160539626,0.04983597098849713,-0.0050276189036667345
1783693568743287600,6.59728759765625,-0.13210428515672684,0.03344663478881121,-0.07270487846583128
1783693568753250300,6.607250244140625,-0.10074936195015907,0.007497570947464555,-0.09306757527589797
1783693568763212500,6.617212646484375,-0.08855039011240005,-0.02748043812708929,-0.10134674332141876
1783693568773175600,6.627175537109375,-0.06273848798573017,-0.016538297950010744,-0.11039908769652247
1783693568783138600,6.637138671875,-0.021527356675267218,-0.010504296749085188,-0.0657664575047791
1783693568793100300,6.647100341796875,0.019701894813776016,-0.009165010969340802,-0.012694208008795976
1783693568803063300,6.657063232421875,0.0470996048271656,0.006694273474253713,0.024565555327385663
1783693568813026300,6.6670263671875,0.09025894759595393,0.004138981234561652,0.05080883460864424
1783693568822988500,6.676988525390625,0.1304331370741129,-0.0035473720169626175,0.0907744959026575
1783693568832951600,6.68695166015625,0.09230535873174667,0.00846318284291774,0.10674947914779186
1783693568842913300,6.696913330078125,0.038870705664157866,0.04193950038393959,0.07897752899453044
1783693568852876500,6.70687646484375,-0.033652678754925724,0.06391357791339979,0.04497881328091025
1783693568862839600,6.716839599609375,-0.12631050418615342,0.08619020031969994,0.0033256372913718223
1783693568872801500,6.726801513671875,-0.23546178377866744,0.09599657793249934,-0.06965791198536753
1783693568882764500,6.7367646484375,-0.2671189048022032,0.047252146774064745,-0.12278086875528096
1783693568892726500,6.7467265625,-0.2714104645162821,0.020980910906800997,-0.13989961520805955
1783693568902689500,6.756689453125,-0.23422785806953905,-0.021881905733980238,-0.15905863531678915
1783693568912652500,6.766652587890625,-0.21216858647465706,-0.04025395844979211,-0.11979366963803767
1783693568922614500,6.776614501953125,-0.15764964530169964,-0.028040519695263354,-0.09748933724090457
1783693568932577300,6.786577392578125,-0.09699497785270214,-0.003258362475130707,-0.04250891603603959
1783693568942539500,6.79653955078125,-0.05863748240768909,0.011343542318511753,0.049843788968771695
1783693568952502500,6.80650244140625,0.012926701590418815,0.024234533274732527,0.11583601805344224
1783693568962465500,6.816465576171875,0.05229658894836902,0.04921930039487779,0.16702625319510697
1783693568972427300,6.82642724609375,0.09271744666397572,0.04741818752335384,0.201333011944592
1783693568982390500,6.836390625,0.0902735606431961,0.03935985915428027,0.1916382780127227
1783693568992353500,6.846353515625,0.09344868354797363,0.029758977518323806,0.1579357687667012
1783693569002315500,6.8563154296875,0.10335282244682312,0.020888620380312202,0.1444749602995813
1783693569012278500,6.866278564453125,0.10007073203623294,0.026872882421687245,0.09510770280137658
1783693569022240500,6.876240478515625,0.11748363912999629,0.014357976502552628,0.05333835308626294
1783693569032203500,6.88620361328125,0.12043547467291355,0.007974339880049228,-0.0034913492470979688
1783693569042166500,6.89616650390625,0.10845219141244887,0.003284866889566183,-0.015210282482951878
1783693569052128500,6.90612841796875,0.053690673655271526,0.011800528838392346,-0.00632511136829853
1783693569062091300,6.91609130859375,0.01578501363098621,0.08006541556278243,0.056863020081073044
1783693569072053500,6.926053466796875,-0.07854688249230385,0.08035694585526361,0.012607991030067205
1783693569082016500,6.9360166015625,-0.1617722781896591,0.023869143161596728,-0.04012538190037012
1783693569091979500,6.9459794921875,-0.18798282424509524,-0.0019846618780400603,-0.058316433759778734
1783693569101941500,6.95594140625,-0.16602292137145996,-0.02174757529720664,-0.12219357038661836
1783693569111904300,6.965904296875,-0.10514321299493312,-0.0541947872525081,-0.11726985024884343
1783693569121866500,6.975866455078125,-0.05553717830479145,-0.10738335660453885,-0.1414398303873837
1783693569131829500,6.98582958984375,0.003993453550338745,-0.11755335249849594,-0.16687281619906424
1783693569141792500,6.99579248046875,0.025370003578066826,-0.09353753087520598,-0.13779387510046362
1783693569151754500,7.00575439453125,0.013735095363855362,-0.11059327682806178,-0.10087561867833136
1783693569161717500,7.015717529296875,0.0038888241320848465,-0.09235847715847194,-0.037651100741326805
1783693569171679500,7.025679443359375,-0.014791910940408706,0.0017663794848602264,0.10701938213035464
1783693569181642500,7.035642578125,-0.07028875723481177,0.11072873064284212,0.22198256287202237
1783693569191605500,7.04560546875,-0.19433190101087092,0.20624263049177824,0.26619594473838804
1783693569201567500,7.0555673828125,-0.3571253389418125,0.26174736783169206,0.24974735263213513
1783693569211530500,7.065530517578125,-0.4314940589666366,0.24403668336775153,0.14035495776012538
1783693569221493500,7.075493408203125,-0.3910147490620613,0.16972130096536128,0.055516573908179996
1783693569231455500,7.08545556640625,-0.23953122517466544,0.07290750663215294,-0.002726940745860338
1783693569241418200,7.095418212890625,-0.12213000363111495,-0.017276521697221322,-0.03190320473909378
1783693569251380500,7.10538037109375,-0.056018824341893196,-0.07142629163106903,-0.07989595901370047
1783693569261343500,7.115343505859375,-0.08020984726846217,-0.08721566177676432,-0.0939230230614543
1783693569271306500,7.125306396484375,-0.17713818962574004,-0.04331153765581548,-0.10898512924537063
1783693569281268500,7.1352685546875,-0.20962474721074104,-0.027677531601767984,-0.15525851238146424
1783693569291231500,7.1452314453125,-0.1288151804834604,0.008185909404652192,-0.11629121447503567
1783693569301193500,7.155193359375,-0.00682137045264244,0.0044825887741521,-0.05893018174394965
1783693569311156500,7.165156494140625,0.10832301207482814,-0.01605712683694437,0.006011369244009256
1783693569321119500,7.175119384765625,0.1797539250820875,-0.003651179451309144,0.07941913528218865
1783693569331081500,7.18508154296875,0.21664485510587692,0.04031829239027574,0.10684650978147983
1783693569341044500,7.19504443359375,0.2614759304791689,0.044861306114774194,0.0924817382119596
1783693569351006500,7.20500634765625,0.2737158188492059,0.02751708034304902,0.10446575212478637
1783693569360969500,7.214969482421875,0.2963391540676355,0.04130626224800944,0.11513692987337708
1783693569370932500,7.224932373046875,0.36113632814884183,0.07106080105323344,0.15093202748447657
1783693569380894500,7.23489453125,0.34617899751365183,0.07765663738800212,0.16060396506264804
1783693569390857200,7.244857177734375,0.27737200326919553,0.05568332704352215,0.1239807460643351
1783693569400819200,7.254819091796875,0.17392273471057415,0.024230514686740933,0.08191635892540217
1783693569410782500,7.264782470703125,0.05810907461941242,-0.030592259137844666,0.020632161401212216
1783693569420745200,7.2747451171875,-0.05156710563004017,-0.0708316319398582,-0.012550854015350341
1783693569430707200,7.284707275390625,-0.11786182479262351,-0.04814608167279511,0.01946355601325631
1783693569440670200,7.294670166015625,-0.18807050252854823,0.0021276048795320092,0.06679565442204476
1783693569450633200,7.30463330078125,-0.277747850844264,0.05103022227436304,0.1141034951724112
1783693569460595200,7.31459521484375,-0.32654081558585163,0.09045719184810296,0.13980097713917494
1783693569470558200,7.32455810546875,-0.3562491406291723,0.11343544145142659,0.12633008566945791
1783693569480520200,7.334520263671875,-0.37954350697696204,0.12588639702256768,0.11047302971556783
1783693569490483200,7.344483154296875,-0.33050971921682354,0.10067352023497224,0.05101166370436549
1783693569500446200,7.3544462890625,-0.286034033152461,0.04160321763427928,-0.009438128822296858
1783693569510408200,7.364408203125,-0.22319033122658727,-0.006895125242020003,-0.0604603139206767
1783693569520371200,7.37437109375,-0.15197627584040163,-0.032811131630558515,-0.0947176805704832
1783693569530333200,7.384333251953125,-0.11619476836323737,-0.07029452938847243,-0.08851531879901886
1783693569540296200,7.394296142578125,-0.11425766282081604,-0.06428152530980297,-0.05777721231654286
1783693569550259200,7.40425927734375,-0.08142331471145152,-0.05351853195875883,-0.041808512681722636
1783693569560221200,7.41422119140625,0.0007382511466741561,-0.061355536594195285,-0.01800064385384321
1783693569570184200,7.42418408203125,0.10153905102312565,-0.05218946617892943,0.015001315907388924
1783693569580146400,7.434146484375,0.1800637216836214,-0.0012711341806687414,0.08733063905909658
1783693569590109200,7.444109130859375,0.21575170565843582,0.07073120377268642,0.14990662995949386
1783693569600072200,7.454072265625,0.17826573235094545,0.09664664847222157,0.149605162794888
1783693569610034200,7.4640341796875,0.10484101517796515,0.09624962111180647,0.15342632851824164
1783693569619997200,7.4739970703125,-0.022238135293126106,0.1260314406496007,0.11873816923573613
1783693569629959200,7.483959228515625,-0.12279343597590922,0.07329882577098906,0.06048427931815385
1783693569639922200,7.493922119140625,-0.11874854449927806,0.006409519982431083,-0.021652152098715304
1783693569649885200,7.50388525390625,-0.0816249747633934,-0.055052728389250113,-0.03143529496639967
1783693569659847200,7.51384716796875,-0.03829027542769909,-0.08641027281116694,-0.02495148590505123
1783693569669810200,7.52381005859375,-0.006412205129861831,-0.06479781340202316,-0.017981646892428396
1783693569679773400,7.5337734375,-0.01716857694387436,-0.03641444421899505,0.025776392421871422
1783693569689735200,7.543735107421875,-0.04482464563250541,-0.0008919621373526752,0.07863412238433956
1783693569699698200,7.5536982421875,-0.09493804532289504,0.03874290543287061,0.08678981018066406
1783693569709660400,7.563660400390625,-0.13940204094946385,0.030554383946023878,0.0647201633222401
1783693569719623400,7.57362353515625,-0.09842413387298583,0.014579409834044054,0.05411664398238063
1783693569729586200,7.583586181640625,-0.03482347609996796,0.02092423968296498,0.07969605252742767
1783693569739548200,7.593548095703125,0.0010498013138771057,0.02389118146346882,0.08677680456861853
1783693569749511200,7.60351123046875,0.0005295768320560455,0.052541275291284543,0.08216945690363645
1783693569759473400,7.613473388671875,-0.036245617857575414,0.06687385249109938,0.08758417542874812
1783693569769436200,7.623436279296875,-0.08033142782151699,0.06307243264783173,0.05179843016788363
1783693569779399200,7.633399169921875,-0.1199275251507759,0.022732768675964323,0.005775076270103454
1783693569789361200,7.643361083984375,-0.14472177466750144,-0.009762629802618175,-0.0270670167542994
1783693569799324200,7.65332421875,-0.10894903501868247,-0.03327107729250565,-0.03633168870583176
1783693569809286100,7.6632861328125,-0.026634324425458905,-0.07673459977279416,-0.053837242519110436
1783693569819249200,7.673249267578125,0.07122516130208968,-0.08271357371769845,-0.05677446501478552
1783693569829212200,7.683212158203125,0.1715893233269453,-0.06640187846464105,-0.08158829601481557
1783693569839174100,7.693174072265625,0.19946926389932632,-0.05318583853882737,-0.06392974359691142
1783693569849137400,7.703137451171875,0.1749701979368925,0.011848934557382017,-0.055117783848941324
1783693569859099100,7.71309912109375,0.08113982159495353,0.06962195475599728,-0.03819616740345955
1783693569869062100,7.723062255859375,0.011095394510030747,0.1227974088981282,0.0059435647048056124
1783693569879025200,7.733025146484375,-0.003159340813755989,0.11937631187564693,0.021999504231661558
1783693569888987400,7.7429873046875,-0.007931377521157265,0.07565770495601463,0.00194236623942852
1783693569898950100,7.7529501953125,-0.03074935852885246,0.03148107033688575,-0.0496278081305325
1783693569908912000,7.762912109375,-0.08225742744803428,-0.007851699881069362,-0.05972527764439582
1783693569918875100,7.772875244140625,-0.15204232681393623,-0.02277950302767567,-0.06284647840484976
1783693569928838100,7.782838134765625,-0.2064887872725725,-0.03819713095126208,-0.05088862184658646
1783693569938800400,7.79280029296875,-0.21029811642765997,-0.056762674112292,-0.05217296256870031
1783693569948763100,7.80276318359375,-0.20164076271951198,-0.08402052813041955,-0.016896335873752832
1783693569958726100,7.81272607421875,-0.15434066688418388,-0.11380427476381882,0.005352613074332475
1783693569968688000,7.822688232421875,-0.13055179501771927,-0.11089839725447818,0.05239961093142628
1783693569978651400,7.8326513671875,-0.10417875187695026,-0.06275226534933318,0.09260814107060432
1783693569988613000,7.842613037109375,-0.0873240631878376,-0.011650580707378684,0.17105010188370942
1783693569998576000,7.852576171875,-0.09405015657246112,0.030284745824942363,0.22575798975750802
1783693570008539100,7.8625390625,-0.11755144366919994,0.046800279387296174,0.20813217056542635
1783693570018501400,7.87250146484375,-0.14137363328337668,0.04592715894773137,0.17067074717730282
1783693570028464400,7.88246435546875,-0.14276888703405857,0.04042221398905385,0.12172682965770364
1783693570038426000,7.892426025390625,-0.07517886736392974,0.0031557423508726057,0.09924319517090915
1783693570048389000,7.90238916015625,0.0162257431358099,-0.03754736180563923,0.06710837363302707
1783693570058352000,7.91235205078125,0.03996493064165115,-0.035302679018233904,0.03095876349583268
1783693570068314400,7.922314453125,0.027105449068546294,-0.009128944142116234,-0.0109492640376091
1783693570078277000,7.932277099609375,0.006879822641611099,0.021086426241043954,-0.006957271791994572
1783693570088239000,7.942239013671875,-0.03623685002923011,0.037174633202841506,-0.00030818916633725164
1783693570098202000,7.9522021484375,-0.06790040079355239,0.04450714064855128,-0.013125292902439831
1783693570108165400,7.962165283203125,-0.08270692478120327,0.05905273041138425,-0.03582943827211857
1783693570118127000,7.972127197265625,-0.11686170783936976,0.027725087937386705,-0.062217971242964264
1783693570128090000,7.982090087890625,-0.13012158690690995,0.014908029867056756,-0.04491846139580011
1783693570138052400,7.99205224609375,-0.07781330752074718,0.008325482272123918,-0.023510493316501378
1783693570148015400,8.002015380859374,-0.03901449804902077,-0.0013610500869806856,-0.019588205306231975
1783693570157978400,8.011978271484375,0.03474865729808807,-0.01602645770404488,0.0063131286695599555
1783693570167940000,8.021940185546875,0.097567809304595,-0.008150746759725734,0.03349003553912044
1783693570177903000,8.031903076171876,0.1281757135361433,-0.022482255380460992,0.05702361747026443
1783693570187865300,8.041865234375,0.1460521464884281,-0.032400221875263376,0.05068666953369975
1783693570197828400,8.051828369140624,0.1558645154505968,-0.015154405843559652,0.04327566262483597
1783693570207791400,8.061791259765625,0.10290741676688193,-0.02268474654946476,0.031739538609981535
1783693570217753000,8.071753173828125,0.048804070657491684,-0.019408108632126823,0.009344459189474581
1783693570227716000,8.081716064453126,-0.024842764833569526,-0.03542841972317547,-0.0015204875655472278
1783693570237679400,8.091679443359375,-0.08181143724620342,-0.013618455847399309,0.028963498025387523
1783693570247641300,8.101641357421874,-0.0904039090245962,-0.012868687792867421,0.0474330745652318
1783693570257604000,8.11160400390625,-0.11908172197639942,-0.01191258351127617,0.054149231077730654
1783693570267566000,8.121566162109374,-0.12694587948024272,-0.012548936052899806,0.057343789335340255
1783693570277529300,8.131529296875,-0.14105682241916656,-0.009864395976928063,0.042469460808485744
1783693570287492400,8.141492431640625,-0.18589608109891415,-0.0014215161365224048,0.017448562929034232
1783693570297454000,8.1514541015625,-0.19660744472742078,0.015320273062912747,-0.015353198084980249
1783693570307417000,8.1614169921875,-0.18392156615555286,-0.005638261615298688,-0.02991203092187643
1783693570317379300,8.17137939453125,-0.15470774663090706,-0.01296950868568383,-0.05324862897619605
1783693570327342300,8.18134228515625,-0.10642156236767768,-0.012695249188411981,-0.08131663946658373
1783693570337305300,8.191305419921875,-0.05596095667481422,-0.04154725879649632,-0.09653159812465309
1783693570347267000,8.20126708984375,0.008334113103151321,-0.054221693525742735,-0.10791881518810986
1783693570357230000,8.21122998046875,0.05171206705868244,-0.0603051872910466,-0.1078420966900885
1783693570367192300,8.2211923828125,0.10116729510128497,-0.02415835363282822,-0.06281155322194099
1783693570377155300,8.2311552734375,0.1807037731528282,0.014481529816985129,0.0043823067374527454
1783693570387118000,8.2411181640625,0.18721183987259862,0.025302619163971394,0.03875131706818938
1783693570397080000,8.251080078125,0.1272650284320116,0.01861606320529245,0.04085895687192678
1783693570407043000,8.26104296875,0.07665420061349869,0.03416638216441497,0.019971505535393952
1783693570417005000,8.271005126953124,-0.013189736440777778,0.021628058837074787,0.006838029326498508
1783693570426968000,8.280968017578125,-0.09122983845472335,-0.017236847273958845,-0.007479980491846799
1783693570436931000,8.29093115234375,-0.10979951436817645,-0.05539308452582918,-0.01680456593707204
1783693570446893000,8.30089306640625,-0.11537117702066897,-0.07576907007573172,-0.00043853754773736
1783693570456856000,8.31085595703125,-0.14001988058686254,-0.0640672889040783,0.05727919966652989
1783693570466818000,8.320818115234376,-0.13750935907065867,-0.03965458605084568,0.06911956732496619
1783693570476781000,8.330781005859375,-0.1546884574085474,-0.012721963665401563,0.11315949232056736
1783693570486744000,8.340744140625,-0.15695581781864165,0.013904999437509103,0.1385458625115454
1783693570496706000,8.3507060546875,-0.13590367743968962,0.046164205406885594,0.12906491746082902
1783693570506669000,8.3606689453125,-0.10499474443495273,0.05721341355447657,0.1071548450782895
1783693570516631000,8.370631103515626,-0.10715163020789623,0.06428447531871498,0.08114289033487439
1783693570526594000,8.380593994140625,-0.11344342382848262,0.04545797509998083,0.03058934566155076
1783693570536557300,8.390557373046875,-0.1071399397701025,0.011120894277468324,-0.013909575147926807
1783693570546519000,8.40051904296875,-0.041160862427949904,-0.02573859029528685,-0.0351342956148088
1783693570556482000,8.41048193359375,-0.012916764718294144,-0.03930952633968554,-0.04941781864166259
1783693570566445000,8.420445068359374,-0.023100305080413816,-0.05733244595741853,-0.050327773093432185
1783693570576407300,8.4304072265625,0.010869184538722038,-0.06617106538345105,-0.03737973645403981
1783693570586370000,8.4403701171875,0.06586801818311214,-0.053544926775339986,0.005180471377819776
1783693570596332000,8.45033203125,0.09217384130656718,-0.03278179593821987,0.07960881263539195
1783693570606295000,8.460294921875,0.03874386441409588,0.025075906869163736,0.07430339970365166
1783693570616258000,8.470258056640626,0.015022797086834907,0.04737548089278862,0.08785758554264902
1783693570626220000,8.480219970703125,0.0025409166544675824,-0.004678147878870368,0.08785817006453871
1783693570636183000,8.49018310546875,0.01780161415040493,-0.046346895896876225,0.04481003258526325
1783693570646145000,8.50014501953125,0.04349661189913749,-0.07532002940028905,0.015347498996555804
1783693570656108000,8.51010791015625,0.054228433793783185,-0.07604187740143388,0.0035873569674789905
1783693570666071300,8.5200712890625,0.052230537974834436,-0.07403625493375585,0.03990677071362734
1783693570676033000,8.530032958984375,-0.015360066217184066,-0.007923331212019546,0.07660276268720627
1783693570685996000,8.53999609375,-0.0667412938863039,0.025413751388248054,0.06680106124952435
1783693570695958000,8.5499580078125,-0.14171850119829177,0.020546656808536498,0.02866422281786799
1783693570705921300,8.55992138671875,-0.20256722991466522,0.04014157498334534,0.010981412741541862
1783693570715884300,8.56988427734375,-0.13708850331008435,-0.007261953826993703,0.033717414554208514
1783693570725846000,8.579845947265625,-0.03517418923377991,-0.03703221992431208,0.06616963147819042
1783693570735809000,8.58980908203125,0.03913140242695808,-0.03896825688765384,0.08652648306936025
1783693570745771300,8.599771240234375,0.11843114911317824,-0.02725360710127279,0.08451119772419333
1783693570755734300,8.609734375,0.18112988961040974,-0.008673300195951014,0.10765431903302669
1783693570765697000,8.619697021484376,0.16093758093118668,0.011399948680866509,0.0719772948436439
1783693570775659000,8.629658935546875,0.05411971272230148,0.038757783341594035,0.04728884378895163
1783693570785622000,8.6396220703125,-0.0536439119040966,0.0608681914686691,0.015505904428660868
1783693570795584300,8.649584228515625,-0.14022738585770128,0.06239191673749592,-0.027457915768027304
1783693570805547000,8.659547119140624,-0.16954408123493195,0.0186781001574127,-0.06397036786824464
1783693570815510000,8.669510009765625,-0.18515081568956374,-0.050101759484945795,-0.10949629363790153
1783693570825472000,8.679471923828125,-0.13667290824651718,-0.09467072702306323,-0.15808642928376793
1783693570835435300,8.689435302734376,-0.07536182271540165,-0.11188773708539083,-0.14239099363237617
1783693570845397000,8.69939697265625,-0.019801263535022734,-0.11012157679623924,-0.09027969812303781
1783693570855360000,8.709360107421874,0.004133154281973838,-0.07605630321900826,-0.008853022410720586
1783693570865323000,8.719322998046875,0.03117722855210304,0.0031902656749822197,0.08481777945533395
1783693570875285200,8.72928515625,0.01790390548110008,0.05239751030588522,0.16061434032618999
1783693570885248300,8.739248291015626,0.00807750799357891,0.09351323668416589,0.20671192850396036
1783693570895211000,8.7492109375,-0.020813070926070213,0.10286906665102578,0.2018083743713796
1783693570905173000,8.759173095703124,-0.08772621424794197,0.06835133659855928,0.13682999850437044
1783693570915136000,8.769135986328125,-0.15194003548324106,0.002124568105651997,0.050053632327169174
1783693570925098200,8.77909814453125,-0.1908130792349577,-0.05813925056196749,-0.034925036778301
1783693570935061000,8.78906103515625,-0.2215115843594074,-0.07430472401105798,-0.09239303701519966
1783693570945024000,8.79902392578125,-0.21412556576132774,-0.0699996563614346,-0.11743614672645926
1783693570954986000,8.808986083984376,-0.16523323229849338,-0.04475235671442933,-0.0889531256943941
1783693570964949200,8.81894921875,-0.13099369356632232,-0.04920334477392025,-0.06284238675162196
1783693570974911000,8.828910888671874,-0.059653381451964374,-0.017426122768362983,0.002374766307324171
1783693570984874000,8.8388740234375,0.002973462852835655,-0.0003136142601259053,0.038993893652409316
1783693570994837000,8.8488369140625,0.04351297851204872,0.014069994440604932,0.07528145095556973
1783693571004799200,8.85879931640625,0.07542261299192905,0.03532284045685082,0.07288637251257896
1783693571014762200,8.86876220703125,0.07462181800305843,0.07201492344029248,0.1004113621674478
1783693571024724000,8.878723876953124,0.059002808588743204,0.09022073447741567,0.085829440715909
1783693571034687000,8.88868701171875,0.06666530604064465,0.07448411286568735,0.07137786764577031
1783693571044650000,8.89864990234375,0.07426409060657024,0.06626357967222575,0.04959375973045826
1783693571054612200,8.9086123046875,0.08412848201692104,0.053543438071152194,0.02515212304368615
1783693571064575200,8.9185751953125,0.0465419709444046,-0.007705007719644345,0.0028089199408888816
1783693571074537000,8.928536865234374,0.029415479576587675,-0.024977784823509864,-0.041067485056072474
1783693571084500000,8.9385,-0.04729308157265186,-0.020976230165106243,-0.07429068635255098
1783693571094463200,8.948463134765625,-0.09282499869167804,0.007674658247153274,-0.05437222617864609
1783693571104425200,8.95842529296875,-0.1315828916311264,0.036029294526041485,-0.04034267791286111
1783693571114388000,8.968387939453125,-0.12213584885001182,0.02492766207146924,-0.03159048552811146
1783693571124350000,8.978349853515626,-0.10143091447353363,-0.00737051963484846,-0.013098112634569406
1783693571134313200,8.988313232421875,-0.06890811653137206,-0.010992011767369695,0.018879034123569727
1783693571144276200,8.998276123046875,-0.06813362502753734,-0.02815907717416994,0.045360213813930746
1783693571154238000,9.008238037109376,-0.0864174697369337,-0.02869442159330938,0.05952113337442279
1783693571164201000,9.018200927734375,-0.13210077802538872,-0.004423264368926175,0.0924757468625903
1783693571174163200,9.0281630859375,-0.1479816532462835,0.01879068455325905,0.11084902342110872
1783693571184126200,9.038126220703125,-0.11854396183788776,0.0033122891860315573,0.12622019555419683
1783693571194089200,9.048089111328125,-0.07749766570031642,0.012189359192620031,0.11288549768477678
1783693571204051000,9.058051025390625,-0.046614451658725735,0.0032723864339059216,0.09332184229791164
1783693571214014000,9.068013916015625,-0.025837036567926405,0.009076665965607389,0.05199745987132191
1783693571223976200,9.07797607421875,-0.02955342674255371,0.03449843626352958,0.05043079507648945
1783693571233939200,9.087939208984375,-0.04446691823601723,0.08745194561751558,0.054337885517627
1783693571243902200,9.097902099609374,-0.03386895185410976,0.0943688579996582,0.04190627396777272
1783693571253864000,9.107864013671875,-0.019175240591168402,0.07183396824966184,0.024499358223378658
1783693571263827200,9.1178271484375,0.002567220139503479,0.04864775215119589,-0.02068432997986674
1783693571273789200,9.1277890625,0.009326046749949454,0.005305887855775654,-0.02289806050658226
1783693571283752200,9.137752197265625,-0.014255904367566108,0.0334848433407722,-0.0485503881573677
1783693571293715000,9.14771484375,0.005435469052195548,0.006972300397767685,-0.0883380625359714
1783693571303677200,9.15767724609375,0.01191957037448883,-0.02994061312896665,-0.11883841473981738
1783693571313640200,9.16764013671875,0.002235211706161499,-0.034417333851335566,-0.126379331638664
1783693571323603200,9.177603271484376,-0.030288755279779433,-0.0628465103708906,-0.12401596350818872
1783693571333565000,9.18756494140625,-0.06406243006587028,-0.0283075868333457,-0.07510448695346712
1783693571343528000,9.19752783203125,-0.10583470239043236,0.014820821941061876,-0.025490999609231946
1783693571353490200,9.207490234375,-0.10206979689896106,0.02748082628615666,0.027183336610347032
1783693571363453200,9.217453125,-0.05448971507847309,0.008524119249917566,0.07812456542700529
1783693571373416200,9.227416259765626,-0.027732641056179997,0.00120743042784743,0.09543620410338044
1783693571383378000,9.2373779296875,-0.015081833797693251,0.033243915290944274,0.1314694943845272
1783693571393341200,9.247341064453124,0.015231471401453017,0.04834067722971085,0.18074936586022375
1783693571403303000,9.257302978515625,0.007839023062586783,0.07082691009896806,0.2001927558682859
1783693571413266000,9.267265869140624,-0.011531447839736938,0.06883314246586524,0.16793153147175907
1783693571423229000,9.27722900390625,-0.033355157113075254,0.004184957534447312,0.0703551004692912
1783693571433191200,9.287191162109375,-0.050909518504142756,-0.044029399035009555,-0.021242256123572587
1783693571443154200,9.297154296875,-0.07362871531248093,-0.06937302606280427,-0.09845043735802173
1783693571453116000,9.307115966796875,-0.06030629240274429,-0.055577382451016455,-0.12883213161826132
1783693571463079000,9.317078857421874,-0.03988543566465377,-0.032811697886139156,-0.07643646620959044
1783693571473042000,9.3270419921875,-0.06951017407774925,0.01432715667260345,-0.040014176610857245
1783693571483004200,9.337004150390625,-0.11654548149704932,0.05844891929933801,-0.005688859291374683
1783693571492967200,9.34696728515625,-0.125417939260602,0.0776767303279601,-0.0038201428100466724
1783693571502929000,9.356928955078125,-0.07753858223259448,0.05973393130830954,0.02048793062493205
1783693571512892000,9.366891845703124,-0.00017769465446472167,0.05774230083336588,0.03925532106757164
1783693571522855200,9.376855224609375,0.033794717574119566,0.05460166472007986,0.046463791141659015
1783693571532817200,9.386817138671875,0.07564940748512744,0.0354300271583721,0.08087108765617013
1783693571542780000,9.39677978515625,0.096922497138381,0.0263926748564234,0.09005787206590175
1783693571552742000,9.406741943359375,0.09004092093110085,0.04400522814155556,0.07475669642910361
1783693571562705200,9.416705078125,0.017485972329974172,0.03455785200030077,0.07848053925782442
1783693571572668200,9.426668212890625,-0.0309480959713459,0.024840193850570357,0.07224500586912036
1783693571582630000,9.4366298828125,-0.0361895037561655,0.012747559330961666,0.06654109513908624
1783693571592593000,9.446593017578126,-0.08426175300776959,-0.009608329723472706,0.06377411464378237
1783693571602555100,9.45655517578125,-0.09954232424795627,-0.015015524812543299,0.03763736447691917
1783693571612518100,9.46651806640625,-0.12006956396996975,-0.021399862404656595,0.013650778081268071
1783693571622481200,9.476481201171875,-0.16380173819065094,-0.016458805256302,0.010070289245992898
1783693571632443000,9.48644287109375,-0.20740648663938044,0.038513270528614515,0.02204670437425375
1783693571642406000,9.496406005859376,-0.20396306818723678,0.045516153294313695,0.06720116648301482
1783693571652368100,9.5063681640625,-0.1482610547095537,0.026011593983811324,0.057898354478180404
1783693571662331100,9.5163310546875,-0.14857377392053603,0.00978998131713597,0.04341331752985716
1783693571672294000,9.5262939453125,-0.10490589710772037,0.012502904954086989,0.054155806948989624
1783693571682256000,9.536255859375,-0.05658814866244793,0.011925648488826117,0.05283215712979435
1783693571692219100,9.54621923828125,0.02150514484345913,0.03053444170311559,0.06487082383930683
1783693571702181000,9.55618115234375,0.059167059239745134,0.016250156057858837,0.06802110456377268
1783693571712144000,9.566143798828126,0.09501111055910587,0.008847770846867933,0.07167202828675508
1783693571722107000,9.57610693359375,0.08356032674014569,0.01866321768211201,0.059861909636110065
1783693571732069000,9.586069091796874,0.0797995129019022,0.02584670401199255,0.06079933661669493
1783693571742032100,9.5960322265625,0.058470893669128415,0.03698424346358515,0.027860066828131674
1783693571751993900,9.605993896484375,0.025685060876607893,0.05878647612405475,-0.01573503700941801
1783693571761956900,9.615956787109376,-0.01037760162949562,0.050345582744758574,-0.03326221813261509
1783693571771920000,9.625919921875,-0.035815409746766086,0.047236277918075206,-0.020269027177244422
1783693571781882000,9.635882080078124,-0.01296528003513813,0.05334929460538551,-0.01680938824266195
1783693571791845000,9.64584521484375,-0.009774375039339065,0.032952636160212566,-0.021149755534529684
1783693571801806800,9.655806884765624,-0.05341653288900852,0.02790628059003502,-0.012956073815375566
1783693571811769900,9.665769775390626,-0.07502689167261123,0.0024425160476006565,-0.022545301546156405
1783693571821733000,9.675733154296875,-0.0864133780837059,0.006734215042286086,-0.0034808278530836104
1783693571831695000,9.685695068359376,-0.11311959870159626,-0.00013565360253560356,-0.0003965981021523475
1783693571841658000,9.695658203125,-0.11745616660118102,-0.03410078328202944,-0.0031198855862021443
1783693571851620900,9.705620849609375,-0.0488075777888298,-0.022986784536228513,0.01807970043942332
1783693571861583000,9.7155830078125,0.008971241962909698,-0.004672446507157292,0.06514861786738038
1783693571871546000,9.725546142578125,0.02166238123178482,0.006222460419643903,0.10629325981289148
1783693571881508000,9.735508056640626,0.02371756019592285,0.018379167443187905,0.12343436422795057
1783693571891470800,9.745470947265625,-0.024827567264437675,0.04859234586926177,0.1304271457247436
1783693571901433900,9.755433837890624,-0.014165887996554374,0.07853777673724106,0.14901464955583213
1783693571911396000,9.76539599609375,-0.04652560433149337,0.06671733762198127,0.13943871969804167
1783693571921359000,9.775359130859375,-0.09150982443988323,0.05400877229426987,0.05904986260086298
1783693571931320800,9.78532080078125,-0.09239829771220684,0.03191555276401341,0.007442571090906858
1783693571941283800,9.795283935546875,-0.15537819323837757,0.008621830303617753,-0.05066387318000197
1783693571951247000,9.8052470703125,-0.22785247781872747,-0.0029067931080819106,-0.11462883422076701
1783693571961209000,9.815208984375,-0.25565701506733896,-0.001623930387240398,-0.13279650520458816
1783693571971172000,9.825172119140625,-0.22817513390183447,0.00532681419608416,-0.14028174639344215
1783693571981133800,9.8351337890625,-0.14551029469668864,0.003369426200748421,-0.09904109672755003
1783693571991097000,9.84509716796875,-0.02196867070198059,-0.028870874138758516,0.002303308506309986
1783693572001060000,9.85506005859375,0.0674339523255825,-0.015261971570993772,0.026600860547274348
1783693572011022000,9.86502197265625,0.1238876609534025,0.0035810299746808594,0.036908904071897265
1783693572020985000,9.874985107421875,0.1608446419507265,0.018076583750441202,0.05998465923294425
1783693572030947000,9.884947021484376,0.1638736343830824,0.04092068329679314,0.08570289172679185
1783693572040910000,9.89491015625,0.09150514826476573,0.04517148174222093,0.07416223766729235
1783693572050873000,9.904873046875,-0.03723053724169731,0.0430392783193849,0.012047580668330192
1783693572060835000,9.9148349609375,-0.07725216650664805,0.004884187278407626,-0.047759676171094174
1783693572070797800,9.9247978515625,0.08495090431571006,-0.10599899870720692,-0.11910407993867993
1783693572080760000,9.934760009765625,0.040948680981993675,-0.05402789255327079,0.12061696871966122
1783693572090723000,9.94472314453125,0.09366846377849579,-0.06389967268563342,-0.013371376617997885
1783693572100686000,9.95468603515625,-0.03780103060603142,0.06293068608958274,-0.015990473075211047
1783693572110647800,9.964647705078125,-0.0493827473282814,0.05165262848902493,-0.03871346927583218
1783693572120611000,9.974611083984374,-0.012193126618862151,-0.0018686822319985367,-0.06257204537764191
1783693572130573000,9.984572998046875,-0.11954817044436931,0.01621773792586755,-0.005754033482074737
1783693572140536000,9.9945361328125,-0.2212204924583435,0.045132848498574456,0.0709714788019657
1783693572150499000,10.0044990234375,-0.3313935163140297,0.1180545526194386,0.17523513248339295
1783693572160461000,10.0144609375,-0.3436509403407573,0.10306219633664004,0.047719782552123065
1783693572170424000,10.024424072265624,-0.35882980477213855,0.05482645448585972,-0.00899359992519021
1783693572180386000,10.034385986328125,-0.42675826261639593,-0.03994138536928221,-0.04624824869483709
1783693572190349000,10.04434912109375,-0.36999183477759356,-0.13697978223860263,-0.1515257555939257
1783693572200311800,10.054311767578126,-0.14316343930959702,-0.20594056053897364,-0.15555559563189744
1783693572210274000,10.064274169921875,-0.0723749158591032,-0.20456076008575036,-0.09517550734058022
1783693572220237000,10.074237060546874,-0.18982932889461515,-0.058580541755794545,-0.0010398644417524336
1783693572230199000,10.084198974609375,-0.3137158208042383,0.12518006625096312,0.10648732108026743
1783693572240161800,10.094161865234375,-0.289027369749546,0.17457131654610855,0.22284181004986164
1783693572250125000,10.104125,-0.09876257204711436,0.13747133774836548,0.2713505510225892
1783693572260087000,10.114087158203125,0.050020460709929465,0.10409960395982489,0.23684169382974504
1783693572270050000,10.124050048828124,-0.014246552017331122,0.09617678420445881,0.2257239413574338
1783693572280011800,10.13401171875,-0.08398410511016845,0.0976732059078291,0.1866850395195186
1783693572289975000,10.14397509765625,-0.044428924313187595,0.044006963440915564,0.06409472490027547
1783693572299938000,10.15393798828125,0.07934300130605697,-0.040285687028616665,0.049648850918561215
1783693572309900000,10.163900146484375,0.20977496933639048,-0.08808986906171776,0.06037058981060981
1783693572319863000,10.173863037109374,0.3630202421993017,-0.05792912407577969,0.0469395919598639
1783693572329825000,10.183824951171875,0.50631169180274,-0.04675942222052253,0.11070303907915949
1783693572339788000,10.1937880859375,0.5777952117800712,0.01021490361476317,0.18147651109099386
1783693572349751000,10.2037509765625,0.5411871903508901,0.04378521044901572,0.22880232588946817
1783693572359713000,10.213713134765625,0.457202500718832,0.07215036812191829,0.1633086939767003
1783693572369676000,10.223676025390626,0.3050625587493181,0.05033229400492273,0.06125424077734351
1783693572379638000,10.233637939453125,0.1594628322035074,0.02223469209386967,-0.033990678537636994
1783693572389601000,10.24360107421875,0.1443447580486536,-0.0441678896236699,-0.10774258183836936
1783693572399564300,10.253564208984375,0.12761574156582356,-0.11084716025758534,-0.17282441807985305
1783693572409526300,10.2635263671875,-0.01415478208065033,-0.10020401216023601,-0.2290285358607769
1783693572419489300,10.2734892578125,-0.09551672199368476,-0.03186472219249699,-0.18107859781458974
1783693572429451300,10.283451171875,-0.18714637342095375,0.04564094415118452,-0.08679799348711967
1783693572439414300,10.293414306640624,-0.2962684269189834,0.08407512612817808,-0.030020898123830554
1783693572449377300,10.303377197265625,-0.42422202213704585,0.059710609798226504,-0.06497530712708831
1783693572459339300,10.31333935546875,-0.43419864175021644,-0.015094786894100251,-0.0629135522916913
1783693572469302500,10.323302490234376,-0.36137539760172366,-0.017673195147898512,0.011164221962541342
1783693572479264300,10.33326416015625,-0.27083120332360267,0.011632914903236086,0.07518368966951966
1783693572489227300,10.343227294921874,-0.2109329071998596,0.051508434245362875,0.0986750398941338
1783693572499190300,10.353190185546875,-0.2249240231513977,0.0654107394022867,0.07037438969165086
1783693572509152500,10.363152587890625,-0.08059621623754501,0.08547533004861324,0.14347718143388627
1783693572519115500,10.373115478515626,0.11323007333874702,0.05789956005457789,0.24591171999201178
1783693572529077200,10.3830771484375,0.17279869911670684,0.052309137902688235,0.28868045600801706
1783693572539040300,10.393040283203124,0.14614040929377078,-0.002064102056110278,0.1318124626033008
1783693572549003300,10.403003173828125,0.02164016939997673,0.01579749522829079,-0.037202626321464774
1783693572558965500,10.412965576171874,0.04379822519421577,0.023270410083467138,-0.050300885086506604
1783693572568928300,10.42292822265625,0.18814356776475905,0.012206885716156102,0.1317024263575673
1783693572578890200,10.43289013671875,0.07319090841710567,-0.00010253621340089011,0.02265314583480358
1783693572588853200,10.442853271484376,-0.05389058014154434,-0.022994951859663704,0.01975990861132741
1783693572598816500,10.45281640625,-0.14195464804172514,-0.03127147129037185,-0.027234482275694607
1783693572608778200,10.4627783203125,-0.10207856472730636,-0.08413205308034084,-0.07732114008963108
1783693572618741200,10.4727412109375,-0.05088379954099655,-0.08681327325464226,-0.08636559341922402
1783693572628703200,10.482703125,0.029241292053461074,-0.10055278906528838,-0.10446575212478637
1783693572638666500,10.49266650390625,0.09817571206986904,-0.0733084795153234,-0.06697028033658861
1783693572648629500,10.50262939453125,0.014433014500141143,0.003650320934783667,-0.03347702992707491
