time,seconds_elapsed,z,y,x
1783693611402449700,0.06644970703125,0.06898527342081069,0.006493307542055845,0.08027319482825696
1783693611412412700,0.07641259765625,0.0828840349137783,-0.003655234571918845,0.02418744272999465
1783693611422374400,0.08637451171875,0.1290986735999584,-0.029903920680657028,-0.017587971399724484
1783693611432337400,0.09633740234375,0.14157178620398045,-0.03753719203807413,0.002306742572411895
1783693611442300700,0.10630078125,0.12872691767811775,-0.027801760769635437,0.008769289650022983
1783693611452262700,0.1162626953125,0.17026187411546706,-0.02439217152185738,-0.007688727871701121
1783693611462225700,0.1262255859375,0.24362170935869215,-0.01635214599445462,0.034287250331416726
1783693611472187400,0.1361875,0.22592881627976893,0.005812704866752028,0.05573774237819016
1783693611482150700,0.146150634765625,0.15195347948670387,0.01326272861175239,0.018075681851431727
1783693611492112600,0.156112548828125,0.11805120988488196,0.01774849572367966,-0.0021560089901089667
1783693611502075600,0.16607568359375,0.08736965589523316,-0.004241656157746911,-0.012113923902809619
1783693611512037600,0.17603759765625,0.0040413843452930445,0.018237229088693855,-0.03422331824973225
1783693611522000600,0.186000732421875,-0.15418810667097568,0.016459844152629376,-0.04673384025469422
1783693611531962600,0.195962646484375,-0.28584289449453354,-0.007887246118485926,-0.11113470849469304
1783693611541925600,0.205925537109375,-0.2981085018277168,-0.008992503946647048,-0.16044950515329837
1783693611551888600,0.215888671875,-0.27970833726227284,-0.07102795822955668,-0.13554982250072062
1783693611561850600,0.2258505859375,-0.22564590768516063,-0.07234203650280834,-0.03357544880025089
1783693611571813600,0.235813720703125,-0.2014911251157522,-0.04421177443116903,0.03691716044358909
1783693611581775600,0.245775634765625,-0.1459264742821455,-0.002389160158857703,0.12875197905413804
1783693611591738600,0.255738525390625,-0.07301788993775844,0.01789491845704615,0.22624204694740474
1783693611601700600,0.26570068359375,-0.029164135164022446,0.03409779217392206,0.2865826069459319
1783693611611663600,0.27566357421875,-0.005960369709134101,0.06364362013190984,0.28299649208746847
1783693611621625600,0.28562548828125,-0.012993337085843085,0.07191497019715606,0.2259691482901573
1783693611631588600,0.295588623046875,-0.060576341515779494,0.05319302633143961,0.16662519811354576
1783693611641551600,0.305551513671875,-0.05354688127040863,-0.0047875265374779695,0.07567081559933722
1783693611651513600,0.315513671875,-0.015202829828858375,-0.03497830133549869,0.008543737265840172
1783693611661476600,0.3254765625,0.03924070802032947,-0.06833017051294446,-0.03050780485793948
1783693611671438600,0.3354384765625,0.040841128954291345,-0.048088177473098036,-0.026115634313598275
1783693611681401900,0.34540185546875,0.047641456618905065,-0.01234561376683414,-0.010656637766584754
1783693611691363600,0.355363525390625,0.06692191115021705,0.02012918031513691,0.009033931935578584
1783693611701326600,0.36532666015625,0.03251578367948532,0.046283831464871764,0.05504230745993554
1783693611711288600,0.37528857421875,0.04540624491274357,0.02365815815888345,0.08196538569889962
1783693611721251800,0.385251953125,0.07012333754003047,0.003793912390246987,0.0998031671412289
1783693611731213600,0.395213623046875,0.04715981058180332,-0.015679580495133995,0.08476056937538087
1783693611741176600,0.405176513671875,0.04135784630477428,-0.010968407129496335,0.07970664698667823
1783693611751139600,0.4151396484375,0.026667642173171042,-0.02489018417187035,0.051607729901373384
1783693611761101800,0.425101806640625,-0.03321837899088859,-0.024203444016724824,0.04182020311951637
1783693611771064600,0.435064697265625,-0.13477964184582233,0.00862608178704977,0.03843187585547566
1783693611781026600,0.445026611328125,-0.23867490060627458,0.037437165729701516,-0.0033844548065215347
1783693611790989600,0.454989501953125,-0.2880506336718798,0.03980279888249934,-0.0077898501586169
1783693611800951800,0.464951904296875,-0.2878396212697029,0.027688400055654344,0.010289338824152946
1783693611810914600,0.47491455078125,-0.2445738955169916,0.015503931667283177,-0.015171265646815299
1783693611820876500,0.48487646484375,-0.1484001709192991,0.008031623025238514,-0.01631027961410582
1783693611830839600,0.494839599609375,-0.025037410622835158,-0.022903102007880805,0.03246171540468931
1783693611840802600,0.504802490234375,0.07912789725065231,-0.01083477081246674,0.08140914005562662
1783693611850764500,0.5147646484375,0.13022095562815666,0.0035735476378351448,0.06598952567093073
1783693611860727600,0.5247275390625,0.1025298156261444,-0.002453165305778384,0.05096731310598552
1783693611870689500,0.534689453125,0.0814203921020031,-0.0037426936596632,0.02437280923426151
1783693611880652500,0.544652587890625,0.015250176101922988,0.005469517452269792,-0.01600135979540646
1783693611890614500,0.554614501953125,-0.09685118546783923,0.03238886936418712,-0.034321883253380654
1783693611900577500,0.56457763671875,-0.12530103488266467,0.01536313495710492,-0.060235126862674945
1783693611910539500,0.57453955078125,-0.08673954129815101,-0.025046178451180456,-0.07926431004665792
1783693611920502800,0.584502685546875,-0.06694236941635608,-0.027066651428118347,-0.07550605349168181
1783693611930465800,0.5944658203125,-0.04941548055410385,-0.02852715243473649,-0.06633563569486141
1783693611940427500,0.604427490234375,0.01637771882712841,0.0012720657624304293,-0.04384674051105976
1783693611950390500,0.614390625,0.06610591859221458,0.0059839697804301975,-0.0126369979288429
1783693611960352800,0.624352783203125,0.08221767995953559,0.03172835962884128,0.030386662696301935
1783693611970315800,0.634315673828125,0.09685995329618453,0.03374883260577917,0.0751299867209047
1783693611980277500,0.644277587890625,0.0990834745645523,0.03783296011425555,0.10108137038350104
1783693611990240500,0.654240478515625,0.10881401046216488,0.03789623460881412,0.10210479514710605
1783693612000202800,0.66420263671875,0.12458031939268112,0.014373502865247427,0.07284662502408028
1783693612010165800,0.674165771484375,0.08337854043245314,0.00870817057993263,0.030712460584565997
1783693612020127500,0.68412744140625,-0.02380173134803772,0.04404902161750942,-0.02435863457843661
1783693612030090500,0.694090576171875,-0.18304536784291267,0.045143758051656185,-0.09264335851445793
1783693612040053500,0.704053466796875,-0.27556290802061556,0.03151749335713684,-0.11442439768984913
1783693612050015700,0.714015625,-0.31375206116139887,0.025026122043840585,-0.11307846297360956
1783693612059978800,0.723978759765625,-0.3364063760399818,0.025269210084713993,-0.1064419475685805
1783693612069940500,0.7339404296875,-0.3217892371445894,0.005976809387281536,-0.09783771228715776
1783693612079903500,0.743903564453125,-0.21222645414173602,-0.04090133470892906,-0.08468633509539067
1783693612089865700,0.75386572265625,-0.0029109190106391906,-0.060772704338096076,-0.05109247385561466
1783693612099828700,0.763828857421875,0.180228556856513,-0.0337780587002635,0.014911810993030666
1783693612109790500,0.77379052734375,0.32576164790689943,-0.0066053530817851425,0.08845314028300344
1783693612119753500,0.78375341796875,0.3733855688691139,-0.008845277495682239,0.11158990491628647
1783693612129715700,0.7937158203125,0.32592239142656326,0.0158585172586143,0.07229271746836602
1783693612139678700,0.8036787109375,0.1788385638028383,0.03578402822781354,0.05993387889377772
1783693612149641500,0.813641357421875,-0.06985445747077465,0.07584262850228697,0.04078194611296058
1783693612159603700,0.823603759765625,-0.23920447743833065,0.06085804453399032,-0.011247881658002733
1783693612169566700,0.833566650390625,-0.25360008253753186,0.005174114702269435,-0.04338058430403471
1783693612179528700,0.84352880859375,-0.23645956264436244,-0.054234644338861104,-0.017284531473740934
1783693612189491500,0.853491455078125,-0.2120528511404991,-0.04072732984889298,-0.018451017969846724
1783693612199453700,0.86345361328125,-0.17242694319486618,-0.010391484024375676,0.016807780807465315
1783693612209416700,0.873416748046875,-0.16240239278674123,0.034541553886048494,0.08224953640252351
1783693612219378700,0.883378662109375,-0.16763035656809805,0.030597017511352895,0.09775997087582945
1783693612229341400,0.893341552734375,-0.14930442628264426,0.04627729212623089,0.11795907462202011
1783693612239304400,0.903304443359375,-0.19265899936258793,0.06212463040370494,0.11365231733880936
1783693612249266700,0.9132666015625,-0.21134967130720614,0.015820742531493306,0.08478584994710982
1783693612259229700,0.923229736328125,-0.1742769549757242,-0.019701712150685488,0.05106185952164233
1783693612269191400,0.93319140625,-0.11074702435135841,-0.04653232633322477,0.05834960537701845
1783693612279154400,0.943154541015625,-0.015502105036377906,-0.05311353135444224,0.04569806746616959
1783693612289116700,0.95311669921875,0.07107552369832992,-0.03627239626664668,0.06602861557230352
1783693612299079700,0.96307958984375,0.1141629702746868,-0.013131247719191014,0.08293627655766904
1783693612309041400,0.97304150390625,0.13523556891977787,0.008351466096751392,0.07802154344394803
1783693612319004400,0.98300439453125,0.16256196726262567,0.018933869583345947,0.09732998196072876
1783693612328966700,0.992966552734375,0.19487550636827944,0.025765469169057906,0.1308018242560327
1783693612338929700,1.0029296875,0.15094751731455325,0.0055265448691323394,0.10038250139914452
1783693612348892700,1.012892578125,0.10470949775278568,-0.00721015057452023,0.038515024094283576
1783693612358854700,1.022854736328125,0.04779109422266483,-0.025782018445059656,-0.010890373457223176
1783693612368817700,1.032817626953125,-0.044646950978040695,-0.03613868688438088,-0.06900448957793415
1783693612378779600,1.042779541015625,-0.14588146609663963,-0.02543652947563678,-0.07330342888087034
1783693612388742700,1.05274267578125,-0.20287468842864034,-0.010518982861563563,-0.06173975927196443
1783693612398704600,1.06270458984375,-0.23483809892237184,-0.00952577057313174,-0.04752279867529869
1783693612408667600,1.072667724609375,-0.22992636148333548,-0.010037336824461817,0.004523176512867212
1783693612418629600,1.082629638671875,-0.20581717162132263,0.005769194518588483,0.059031377096101637
1783693612428592600,1.092592529296875,-0.1607271530508995,0.014229016360640525,0.10713409455120562
1783693612438555000,1.102554931640625,-0.13139935175776482,0.022267032594047484,0.10301182698942721
1783693612448518100,1.11251806640625,-0.1115051492422819,0.023486966310441493,0.10954210554100573
1783693612458479900,1.12247998046875,-0.06696633481383324,-0.014783325775153934,0.11182765919491648
1783693612468443000,1.13244287109375,-0.05792728831171989,-0.025636874353326854,0.08208112103305756
1783693612478406000,1.142406005859375,-0.017432196316123007,-0.035520591518655414,0.04773951016589999
1783693612488368000,1.1523681640625,0.02807107923030853,-0.04842858840860426,0.02527114631347358
1783693612498331100,1.1623310546875,0.0881429783552885,-0.05388659808617085,0.029862273496016858
1783693612508292900,1.17229296875,0.11381342618465423,-0.0470901428790763,0.02197919209599495
1783693612518255900,1.182255859375,0.10376374133527279,-0.0011103723946958779,0.040275677091255783
1783693612528218000,1.192218017578125,0.022711598023772237,0.047829088145494456,0.05792246600612998
1783693612538181000,1.20218115234375,-0.03779343182146549,0.06709335872698576,0.04262560121826827
1783693612548142800,1.212142822265625,-0.0954541781514883,0.06662325699720531,0.03920212957561016
1783693612558105900,1.22210595703125,-0.11379822861552238,0.038847690114751456,0.02231492685638368
1783693612568068000,1.232068115234375,-0.07919394822418689,0.02058594763930887,0.0013256225805729626
1783693612578031000,1.242031005859375,-0.0016524433821439742,0.0037453605407848953,0.0036521658319979902
1783693612587994000,1.251994140625,0.01734510255455971,-0.024164207984879612,-0.021692118782922626
1783693612597955800,1.261955810546875,0.0032809213668107983,-0.03429437419194728,-0.05225749904699623
1783693612607919000,1.271919189453125,-0.028103227934241293,-0.03408781876917928,-0.05428381724283099
1783693612617881000,1.281881103515625,-0.06308803207576275,-0.01219129998795688,-0.008644859552755952
1783693612627844000,1.291843994140625,-0.10721417405009269,0.009425963460467755,-0.0029180794037878513
1783693612637805800,1.301805908203125,-0.14853051930069922,0.007398731949180364,-0.015375848308205604
1783693612647769000,1.31176904296875,-0.1364414375782013,0.008213847724348307,0.01105666993483901
1783693612657731000,1.32173095703125,-0.10868775373399257,0.006325367096625268,0.03851020178869367
1783693612667694000,1.331694091796875,-0.10148585953116417,0.017399974546954036,0.04953048523589968
1783693612677655800,1.34165576171875,-0.0657610506772995,0.01613072179611772,0.06132540631741285
1783693612687619000,1.351619140625,-0.003700608083605766,0.04581142818015069,0.07836801879405975
1783693612697582000,1.36158203125,0.04791267477571964,0.04443016642220318,0.07785999620668589
1783693612707544000,1.3715439453125,0.038461540341377255,0.04270973583776504,0.06275390475057065
1783693612717506800,1.3815068359375,0.00954933411180973,0.04598313148524612,-0.009395312593877315
1783693612727469000,1.391468994140625,-0.022316461226344106,0.01601520565766841,-0.06422280825935303
1783693612737432000,1.40143212890625,-0.023510054925084112,0.009993899541534483,-0.07203450492359698
1783693612747394000,1.41139404296875,-0.06947218015491963,0.03209226103778928,-0.09472988246493041
1783693612757356800,1.421356689453125,-0.10446809021234511,0.036775633081048725,-0.12235161049254238
1783693612767319000,1.431319091796875,-0.056528527429699896,-0.017269808828644453,-0.10141418253444134
1783693612777282000,1.441281982421875,0.012215338450670242,-0.057722376856766636,-0.08552329737618565
1783693612787244000,1.451244140625,0.041458384069800375,-0.021126191995851695,-0.07016286583282053
1783693612797206800,1.461206787109375,0.015232640445232391,0.015711583068594336,-0.01312690033763647
1783693612807169000,1.4711689453125,0.005337853896617889,0.06136051416341215,0.054441418957337735
1783693612817132000,1.481132080078125,0.0052998599737882615,0.09526735034249723,0.09372260511852801
1783693612827095000,1.491094970703125,-0.005082417830824851,0.07251169398128986,0.101887133808434
1783693612837056800,1.501056884765625,-0.018429975181818006,0.06905530644971877,0.0768136289589107
1783693612847020000,1.51102001953125,-0.005095277312397957,0.03906765300836414,0.05291778958663344
1783693612856982000,1.52098193359375,0.019805939710140226,0.01880224256031215,0.037690921295061706
1783693612866945000,1.530945068359375,0.005094108268618583,0.028842867320403455,0.013990239168703554
1783693612876907000,1.540906982421875,-0.032470190972089766,0.02191697704736143,-0.014698022111877799
1783693612886870000,1.5508701171875,-0.0580664045214653,0.000031929508224129677,-0.03940926952026784
1783693612896832000,1.56083203125,-0.09717208798527717,-0.04266743106599897,-0.048336964602395886
1783693612906795000,1.570794921875,-0.09365560429692268,-0.03377699925433844,-0.02904913048222661
1783693612916757000,1.580757080078125,-0.08027472919821739,-0.016483809550106525,0.008877133938670158
1783693612926720000,1.590719970703125,-0.04808393968939781,-0.012024966977722942,0.0492774603229016
1783693612936683000,1.60068310546875,-0.003957797715067863,0.00450702909566462,0.07962707894444465
1783693612946645000,1.61064501953125,-0.039323710128664965,0.03867163942810148,0.09960223774164914
1783693612956608000,1.62060791015625,-0.07139934882521629,0.07017904978264122,0.11919431550540029
1783693612966570000,1.630570068359375,-0.08658522751927375,0.060857861870899796,0.10692315521426499
1783693612976533000,1.640532958984375,-0.09869535202980041,0.03726199182588607,0.09744345227256417
1783693612986495000,1.650494873046875,-0.08462181849181652,0.010236695321463048,0.05362856820449233
1783693612996458000,1.6604580078125,-0.0525678071051836,-0.0194756483098492,0.01648512472435832
1783693613006420000,1.670419921875,-0.01314998895227909,-0.023551738642342387,0.009555763852596282
1783693613016383000,1.680383056640625,0.0023760814815759657,-0.02376925385054201,0.005118073666095733
1783693613026345000,1.690344970703125,-0.017957681494951246,0.02013447754476219,0.01571647843942046
1783693613036308000,1.700307861328125,-0.038892332974076266,0.04617803300283849,0.0446834835961461
1783693613046270000,1.71027001953125,-0.02156476607620716,0.028501871863007545,0.05790756069794297
1783693613056233000,1.72023291015625,-0.026862287962436674,0.035108028662391,0.07099792841747403
1783693613066196000,1.730196044921875,-0.04155073852837086,0.04372771724127233,0.06091784842982888
1783693613076158000,1.740157958984375,-0.03199439015388489,0.02427519407868385,0.07405008252970874
1783693613086121000,1.750120849609375,-0.011092471900582313,0.008506985452026128,0.06260536312535404
1783693613096083000,1.7600830078125,-0.03507598955631256,0.0015486542141065001,0.027322087493911382
1783693613106046000,1.7700458984375,-0.06232230840027332,-0.0026535832487046716,0.0021535978373140095
1783693613116008000,1.780008056640625,-0.08130582581162452,-0.009791180043667554,-0.00897672185562551
1783693613125971200,1.78997119140625,-0.0381722020059824,-0.01602229298558086,-0.024373686017096042
1783693613135933000,1.799932861328125,-0.05251286204755306,-0.010122311694175004,-0.055296793677657836
1783693613145896000,1.80989599609375,-0.07223053895235061,-0.002161890741623938,-0.04312514823824167
1783693613155858000,1.81985791015625,-0.02705810279548168,0.011512597008794546,0.008404694121330976
1783693613165821200,1.8298212890625,-0.05089782806634903,0.01551346668060869,0.041912265317142004
1783693613175784200,1.8397841796875,-0.0633645109295845,-0.0006149170279502868,0.019040581360831855
1783693613185746000,1.849745849609375,-0.0783966603666544,0.019989406518265605,0.007321355864033103
1783693613195709000,1.859708984375,-0.09303075039684772,0.018177863584272563,0.026111396529898048
1783693613205671200,1.869671142578125,-0.07571604298055172,-0.005204984764568508,0.019293240947648883
1783693613215634200,1.87963427734375,-0.0715951636582613,-0.005067439457401633,-0.011775266532972454
1783693613225596000,1.889595947265625,-0.0683136577695608,-0.011360000262968241,-0.03789820737019181
1783693613235559000,1.899558837890625,-0.017657237243652344,-0.0073997183298692105,-0.01591265859864652
1783693613245521200,1.909521240234375,0.06665127751529216,-0.018116159992292522,0.016921251119300724
1783693613255484200,1.919484130859375,0.09960077643692493,0.01212681991700083,0.030011253512650726
1783693613265446000,1.92944580078125,0.056287119889259336,0.03468370230309665,0.023747005486115812
1783693613275409000,1.939408935546875,0.03425415177941322,0.011165865930356084,0.03694002986252308
1783693613285372000,1.949371826171875,0.003546294304728508,0.02214231023583561,0.02798588516488671
1783693613295334100,1.959334228515625,-0.03926408889591693,0.016618651443533597,0.004519888577237725
1783693613305297000,1.969296875,-0.05688040960729122,0.018609934858605265,-0.015477774312719702
1783693613315259000,1.9792587890625,-0.0669587360292673,0.0031090719312429427,-0.04307729050852358
1783693613325222000,1.989221923828125,-0.06012158348560333,0.005100611074641347,-0.023736484092101454
1783693613335184100,1.99918408203125,-0.041191842088103295,-0.0031725290888920425,-0.01420906955115497
1783693613345147000,2.00914697265625,-0.0033007951110601425,0.002167662895284593,0.006768032830208539
1783693613355108900,2.01910888671875,0.0041834231644868845,-0.010810549686662852,0.0030430209577083584
1783693613365072100,2.029072021484375,-0.04057575601637363,0.021978242247924207,0.0019627514403313395
1783693613375034000,2.0390341796875,-0.06824117705523967,0.0370353799957782,0.010197788083180784
1783693613384996900,2.048996826171875,-0.08304711652100086,0.03357818874660879,0.038321474283561106
1783693613394958800,2.058958740234375,-0.10671849948763847,0.014422456573508678,0.0004821574937552213
1783693613404922000,2.068922119140625,-0.11314999383985995,-0.02721749460827559,-0.035581747121363874
1783693613414885000,2.078885009765625,-0.04111410067677498,-0.06676854721941053,-0.038170156179368496
1783693613424846800,2.088846923828125,-0.001695113480091095,-0.06140157682616263,-0.01762779195345938
1783693613434809900,2.098809814453125,-0.04131576072871685,-0.022867263509519398,-0.003972922218963504
1783693613444771000,2.10877099609375,-0.061081952950358384,0.016246164869330823,0.010187485884875058
1783693613454734000,2.118734130859375,-0.0714905342400074,0.01733458116054535,0.06043035717383027
1783693613464696000,2.128696044921875,-0.07624737337827682,0.018994550262019037,0.06108619073405862
1783693613474659300,2.138659423828125,-0.07485153510570526,0.013984905406460165,0.032832448413223025
1783693613484621000,2.14862109375,-0.06089315237998962,-0.0038043607190251347,0.043882104085385794
1783693613494584000,2.158583984375,-0.007581248909235,-0.028391506823711096,0.03177921303324401
1783693613504546000,2.168546142578125,0.0306692790299654,-0.04732110209073871,-0.011445888448134064
1783693613514509300,2.17850927734375,0.013902853146195411,-0.03820427764467895,-0.043097821839898826
1783693613524471000,2.188470947265625,0.03083820585608482,-0.007143770807422697,-0.02840126103274524
1783693613534434000,2.19843408203125,0.02771861253082752,0.01502086085807532,-0.007512202261015772
1783693613544397000,2.20839697265625,-0.016279519149661064,0.043508886858820914,-0.006313055604323744
1783693613554359300,2.218359375,-0.05067629427015781,0.058537200370989736,0.018690671944618223
1783693613564322300,2.228322265625,-0.03609539573192596,0.04043101378343999,0.03794175425097346
1783693613574284000,2.238283935546875,-0.018206103298068047,0.03197634304054081,0.05162073551341891
1783693613584247000,2.2482470703125,0.002853635865449905,0.02253573000021279,0.04878719258792698
1783693613594209300,2.258209228515625,0.073259297478199,0.07174589724056422,0.007038081943243742
1783693613604172300,2.26817236328125,0.04322422469854355,-0.04158741727694869,-0.030621859691664574
1783693613614134000,2.278134033203125,0.05013619604408741,-0.09710421038083732,-0.05058145559355616
1783693613624097000,2.288096923828125,0.039738720670342446,-0.003502637826092541,-0.01042735905535519
1783693613634059300,2.298059326171875,-0.058087447309494014,0.027448271156847476,0.046055137275531885
1783693613644022300,2.308022216796875,-0.13099369356632232,0.09512644403446466,0.08306954754851759
1783693613653984000,2.31798388671875,-0.17063772169053554,0.07650470914021133,0.06781622964143752
1783693613663947000,2.327947021484375,-0.18192367033660412,0.01941354285907,0.024872721580415962
1783693613673910000,2.337909912109375,-0.20533611010611055,-0.03084635262992233,-0.07115962178520858
1783693613683872300,2.347872314453125,-0.17325637975633143,-0.06376092636864632,-0.04664148579612374
1783693613693835000,2.3578349609375,-0.0799906515598297,-0.045241775066033,-0.02996544160954654
1783693613703797000,2.367796875,-0.035060791987180706,-0.05378964051771909,-0.0007021569199860096
1783693613713760300,2.37776025390625,0.008021978414058686,-0.04802161504290998,0.02603350898809731
1783693613723722200,2.38772216796875,0.014238953232765196,-0.017324826951511205,0.050744098809361454
1783693613733685000,2.39768505859375,-0.0072176762938499445,0.02268244499452412,0.07699643817991018
1783693613743647000,2.40764697265625,0.02492050624489784,0.044755562451668084,0.10727949437126516
1783693613753610200,2.4176103515625,0.0448427658110857,0.014282427048310637,0.1132914481371641
1783693613763572200,2.427572265625,0.041675241690874096,0.013852986122481524,0.06623955490924417
1783693613773535000,2.437534912109375,0.056200610649585724,0.014789901646412909,0.04346972389221191
1783693613783497200,2.447497314453125,0.034493805754184724,-0.006331979500502348,0.04042056545466184
1783693613793460200,2.457460205078125,0.02804009957015514,-0.013223492579907178,0.003853387492522597
1783693613803423200,2.46742333984375,-0.019414310044050215,-0.022336042709648608,-0.018974018930643797
1783693613813385000,2.477385009765625,-0.07975450471639632,-0.013129019229486585,-0.026864114593341946
1783693613823348000,2.487347900390625,-0.13350246151685713,-0.010355061004124581,-0.03316416458562016
1783693613833310200,2.497310302734375,-0.12453063503205776,-0.008632401929982006,-0.04015884577855468
1783693613843273200,2.507273193359375,-0.09011632425487041,-0.020180508643575013,-0.027009879739582538
1783693613853235000,2.51723486328125,-0.06366027900576592,-0.022165070056915284,0.0020309213057160378
1783693613863198000,2.527197998046875,-0.05267009843587875,-0.021046514355763792,0.024010770988836885
1783693613873160200,2.53716015625,-0.050122752040624614,0.014853285738825796,0.05990246084220707
1783693613883123200,2.547123291015625,-0.07233984454572201,0.035731348192505535,0.07463767315931617
1783693613893085000,2.5570849609375,-0.1281231065660715,0.06589929010421038,0.04759754441194236
1783693613903048000,2.5670478515625,-0.15263912366330623,0.06407660472169519,0.022490283423289657
1783693613913010200,2.57701025390625,-0.12765548905432222,0.0188484928548336,-0.03038987756669521
1783693613922973200,2.58697314453125,-0.07142974396348,-0.014120806745812295,-0.05933868947960436
1783693613932936200,2.596936279296875,-0.009778466692566871,-0.04486172623988241,-0.09334310428164899
1783693613942898000,2.60689794921875,0.07796703677773476,-0.04665584311503917,-0.11974405834265052
1783693613952861200,2.616861083984375,0.11684943287968635,-0.02952697712704539,-0.08657236803770064
1783693613962823200,2.6268232421875,0.11868658517897128,0.002016746649891138,-0.07353804135434329
1783693613972786200,2.6367861328125,0.07554068641364574,0.02706789353713393,-0.057629985865578055
1783693613982748000,2.646747802734375,0.015832359904050824,0.028418979352526366,-0.025281302381306884
1783693613992711200,2.656711181640625,-0.018421791875362394,0.03452175320703536,0.015177622322365641
1783693614002673200,2.666673095703125,-0.0286082548469305,0.024716142779216167,0.03917458398155868
1783693614012636200,2.67663623046875,-0.04735094923973083,0.005950871228426694,0.04836158758699894
1783693614022598100,2.68659814453125,-0.05894084926843643,-0.006197795194201171,0.03167955205105245
1783693614032561200,2.69656103515625,-0.055278819629549975,-0.0171654716713354,0.004859495795145631
1783693614042523100,2.706523193359375,-0.05474924279749393,-0.021441614620573816,0.005359554271772504
1783693614052486100,2.716486083984375,-0.01742693561911583,-0.018436039596423506,0.025344430745393037
1783693614062449200,2.72644921875,-0.006010054069757461,-0.008931932865828275,0.04799633447118103
1783693614072411100,2.7364111328125,-0.003250526228547096,0.014584770995751022,0.07503989728465676
1783693614082374100,2.7463740234375,0.0008744447469711303,0.04948105660360306,0.08581124747209251
1783693614092336000,2.756336181640625,-0.03912672625184059,0.05917210074104368,0.0655558834940195
1783693614102299100,2.766299072265625,-0.07434650819301605,0.06481200632415711,0.040878976746648546
1783693614112261000,2.77626123046875,-0.08743161521553992,0.04375197489969432,0.012153744456544519
1783693614122224000,2.78622412109375,-0.0659352382004261,0.015788009305670855,-0.012347148136794566
1783693614132186000,2.79618603515625,-0.05667991859912872,-0.01890018650945276,-0.040846462716534734
1783693614142149000,2.806149169921875,-0.01827916853427887,-0.0594334916235879,-0.036338995229452845
1783693614152111000,2.816111083984375,-0.015662848556041716,-0.057257499291375274,-0.02712210794240236
1783693614162074000,2.82607421875,-0.032361469900608064,-0.04786149257775396,0.013444368788972497
1783693614172036000,2.8360361328125,-0.07735211974978447,-0.02404620762839913,0.039648412038385865
1783693614181999000,2.8459990234375,-0.10064297896623611,-0.002908946249261498,0.06509250376597046
1783693614191961000,2.855961181640625,-0.06316460444331169,0.0031467370605096218,0.0857565216101706
1783693614201924000,2.865924072265625,-0.039161213043332095,0.009236139976792037,0.11110219446457922
1783693614211887000,2.87588720703125,-0.0012608137160539626,-0.006509710687585175,0.10802928982526064
1783693614221849000,2.88584912109375,0.03829261351525783,0.0072153016736730925,0.10621493387967347
1783693614231812000,2.89581201171875,0.019388591080904006,0.03288721080776304,0.1013045116148889
1783693614241774000,2.905774169921875,-0.02749766325652599,0.04421129950713366,0.07385901693701744
1783693614251737000,2.915737060546875,-0.10718903960883616,0.05763922861795872,0.019270225398242472
1783693614261699000,2.925698974609375,-0.12703998750448225,0.026161628879792988,-0.026754735934734344
1783693614271662300,2.935662353515625,-0.10874912853240966,-0.005410517274029553,-0.08655687820762395
1783693614281624000,2.9456240234375,-0.06645078650712967,-0.018634703973680732,-0.13762407149150968
1783693614291587000,2.955587158203125,0.013513561567664145,-0.04973868462648243,-0.12354754227884113
1783693614301549300,2.96554931640625,0.11357318768799304,-0.06548121082261205,-0.06394676779694855
1783693614311512300,2.97551220703125,0.11034662685692309,-0.04902016109358519,-0.014273878415673971
1783693614321474000,2.98547412109375,0.06820318313241004,0.0266957357564941,0.03964768138602376
1783693614331437000,2.99543701171875,0.04193126227855682,0.03691975425947457,0.10883176531456411
1783693614341400000,3.005400146484375,-0.0023018472015857694,0.02807747243847698,0.12262502060644327
1783693614351362300,3.0153623046875,-0.0771849464893341,0.016557715036533773,0.08223682305142282
1783693614361325000,3.025324951171875,-0.06283551861941813,-0.01906483901925385,0.09056728289276361
1783693614371287000,3.035287109375,-0.0390653514534235,-0.0425839540336281,0.08831387794278561
1783693614381250000,3.04525,-0.08550620011091231,-0.021101130619831383,0.0739390233706683
1783693614391212300,3.05521240234375,-0.1384270584374666,0.012672105774842202,0.05431421238109469
1783693614401175000,3.065175048828125,-0.20404607029557226,0.04288293698020279,0.07449366157874465
1783693614411137000,3.075136962890625,-0.22549977721273898,0.06293422975353896,0.06718370389156043
1783693614421100000,3.08510009765625,-0.23429683165252208,0.09731485745683312,0.031001652789488434
1783693614431062300,3.095062255859375,-0.1946370214372873,0.07500968480948358,-0.01109670968428254
1783693614441026000,3.105026123046875,-0.1241892742484808,0.051444465631060296,-0.020305632860586047
1783693614450987800,3.11498779296875,-0.03597206161320209,0.040146095894835886,-0.050754401007667184
1783693614460950800,3.12495068359375,0.009931611427664756,-0.000040551206097006796,-0.07860160835422575
1783693614470913000,3.1349130859375,0.00128010293841362,-0.03242711901534349,-0.12499554913006722
1783693614480876000,3.1448759765625,0.016480010157823563,-0.03615677053034305,-0.12415858684927224
1783693614490838800,3.1548388671875,0.04200958821177482,-0.044804479627311225,-0.06511624996773899
1783693614500800800,3.16480078125,0.026711481314897537,-0.006927570773474872,-0.01334434248059988
1783693614510763800,3.174763671875,0.016855273211002348,0.007363551037944853,0.030838425051793454
1783693614520726000,3.18472607421875,0.04694821365773678,0.024736783708445727,0.10835348027832806
1783693614530688800,3.194688720703125,0.05751812298893928,0.055465282112359994,0.14087028687112033
1783693614540650800,3.204650634765625,0.046076691520214076,0.053220571925491095,0.14297273904308677
1783693614550613800,3.21461376953125,0.007999182060360908,0.05090703428611159,0.11935447450317442
1783693614560576000,3.224575927734375,-0.052989831909537315,0.0069576371181756256,0.07390263688303529
1783693614570538800,3.234538818359375,-0.13031155652105808,-0.0034673838496208187,0.014828370493277907
1783693614580500700,3.244500732421875,-0.1998310829490423,0.012174531516246498,-0.02014540079757571
1783693614590464000,3.254464111328125,-0.18463351381719112,0.010419687205553054,-0.03217369224354624
1783693614600426000,3.264426025390625,-0.12201660638451575,-0.012616137803904711,-0.006004135785624385
1783693614610388700,3.274388671875,-0.06276712955832481,0.0017395006110891699,0.03328011911548674
1783693614620350700,3.284350830078125,-0.03980360260009765,0.03361713251750916,0.06478643349148333
1783693614630314000,3.29431396484375,-0.03615501696467399,0.07674173276647925,0.08590491710491478
1783693614640277000,3.304277099609375,-0.01810088935792446,0.082513448035717,0.09218122089542448
1783693614650238700,3.31423876953125,-0.014370470657944678,0.07836717854384333,0.06652268269956112
1783693614660201700,3.32420166015625,0.014689035087823868,0.06159797618109732,0.06429470445178449
1783693614670164000,3.3341640625,0.06504793397188187,0.05649374837726354,0.02753573024459183
1783693614680127000,3.344126953125,0.06516776095926761,0.03418426488097757,-0.002736512291803956
1783693614690088700,3.354088623046875,0.07475508899390697,0.0037266558403149246,-0.012873583163693546
1783693614700051700,3.3640517578125,0.02033259393274784,0.005639065332897007,-0.008044409441575407
1783693614710014000,3.374013916015625,-0.026264906591176983,0.006619783465936779,-0.006308817820623517
1783693614719977000,3.38397705078125,-0.041699791610240934,0.004261676032468676,0.018324322850257157
1783693614729939000,3.39393896484375,-0.02269055523574352,0.01989255854766816,0.043083647184073925
1783693614739901700,3.403901611328125,0.010869184538722038,0.01794482201337814,0.07144421088024973
1783693614749864000,3.413864013671875,0.019916998869180677,0.03650094432551414,0.0987796693123877
1783693614759827000,3.423826904296875,0.014881342789530754,0.03934873497206717,0.11837269692420958
1783693614769789000,3.433788818359375,-0.024044892454147336,0.04187555003594607,0.12482369969449937
1783693614779751700,3.443751708984375,-0.07840367462933064,0.07607351464871316,0.09025741322599351
1783693614789714700,3.453714599609375,-0.10462941825389861,0.05869564233571291,0.0536425967298448
1783693614799677000,3.463677001953125,-0.09974339977800846,0.015324958371184765,0.0005319879848510027
1783693614809640000,3.473639892578125,-0.10169628741145133,0.009187588127329945,-0.029384572981670496
1783693614819601700,3.4836015625,-0.05988660568594932,0.028160912938229737,-0.030575828592851757
1783693614829565000,3.49356494140625,-0.029306173983216284,0.03896886880900711,-0.002667977100238204
1783693614839527000,3.50352685546875,0.004667991811037064,0.03998246629834175,0.009437982691824436
1783693614849490000,3.513489990234375,-0.0010293430477380753,0.05105740254223346,-0.011929580311849713
1783693614859451600,3.52345166015625,-0.01964110453724861,0.041479353792592884,-0.028529344391822812
1783693614869415000,3.533414794921875,-0.026273674419522285,0.0008841258907690643,-0.02586078276969492
1783693614879377000,3.543376953125,-0.05740121861100197,-0.012753683111071586,-0.047669513669610024
1783693614889340000,3.55333984375,-0.04237316082715988,-0.03278714796677232,-0.04226480508185923
1783693614899302000,3.563302001953125,-0.012035305708646773,-0.04984550600182265,-0.018089564246311782
1783693614909265000,3.573264892578125,0.03506897529363632,-0.027879940572381016,0.017043343129009007
1783693614919228000,3.583227783203125,0.029314941811561582,-0.02062525673639029,0.0630114597082138
1783693614929190000,3.59318994140625,0.006688099461793899,0.020513357327133417,0.10070756863504647
1783693614939153000,3.60315283203125,-0.04911503630280494,0.04226820261534303,0.1053097286682576
1783693614949115000,3.613114990234375,-0.11886954053044319,0.06159658794160932,0.08661350376568734
1783693614959078000,3.623077880859375,-0.18727146110534668,0.06076342505309731,0.03127579355575144
1783693614969040000,3.633039794921875,-0.20986264761984347,0.0210047210406512,-0.003759352533519268
1783693614979003000,3.6430029296875,-0.1723077007293701,0.005337598168291151,-0.034990430164709686
1783693614988964900,3.65296484375,-0.11847381921112536,-0.04062116606067866,-0.04905570733100176
1783693614998928000,3.662927978515625,-0.17539982152581213,-0.027193346547707914,-0.06820508282855153
1783693615008889900,3.672889892578125,-0.16918109314143656,-0.03527655362971127,-0.09504114037118852
1783693615018852900,3.682852783203125,-0.11055296308398246,-0.04409136292189359,-0.07277699385397136
1783693615028814800,3.69281494140625,-0.01872749682366848,-0.034344898802787065,-0.026268413722515104
1783693615038777900,3.70277783203125,0.026062077495455742,0.008669920928776264,0.038643618910014624
1783693615048739800,3.71273974609375,0.05303600913882255,0.03975388170685619,0.07017419094443321
1783693615058702800,3.722702880859375,0.12085457686781882,0.02477528908792883,0.08585720550566911
1783693615068665900,3.732665771484375,0.12535130376517772,0.017067673852667213,0.046808585991337893
1783693615078627800,3.7426279296875,0.022902736681699752,0.030263657371141013,0.004822378655150532
1783693615088590800,3.7525908203125,-0.02950900307893753,0.005760207494534552,-0.012543255230784416
1783693615098552800,3.762552734375,-0.03072363956570625,-0.03509790912717581,-0.05467997695356607
1783693615108516000,3.77251611328125,-0.06785831521749495,-0.037524990143626924,-0.055740299661457535
1783693615118477800,3.782477783203125,-0.14583587338924406,-0.007017112220451235,-0.054391807661950585
1783693615128440800,3.79244091796875,-0.15438625959157942,-0.0004522372795268893,-0.010017024688795208
1783693615138402800,3.80240283203125,-0.08924714020490646,-0.010531805810518562,0.008817439640685916
1783693615148366000,3.812365966796875,-0.05751169324815273,0.005078508840687572,0.026692119027301668
1783693615158327800,3.822327880859375,-0.10188917963504791,0.027852723771892487,0.013604527786746621
1783693615168290800,3.832290771484375,-0.08951426670849323,0.03415525798220187,0.01863901482261717
1783693615178253000,3.842253173828125,-0.021945874348282813,0.01753521829918027,0.017029679929837584
1783693615188216000,3.852216064453125,0.0466378325343132,-0.009649031626619398,-0.003635433892905712
1783693615198177800,3.862177734375,0.06463935317099094,0.006837481337226927,-0.0035315351270139217
1783693615208140800,3.872140869140625,0.04198094663918018,0.019137502396665514,0.02786868852600455
1783693615218103000,3.88210302734375,0.01293780750632286,0.005037738438881933,0.005377747515588998
1783693615228066000,3.892066162109375,-0.015772154149413107,0.018678396984934807,0.0034833120711147783
1783693615238028800,3.90202880859375,-0.02499240243732929,-0.003586808978207409,-0.02019939600713551
1783693615247990800,3.91199072265625,0.031796237233281135,-0.04617167632728815,-0.05021868669576943
1783693615257953800,3.921953857421875,0.03739128076136112,-0.050240971592813724,-0.04850874097272753
1783693615267916000,3.931916015625,-0.005934650745987892,-0.036968598369881506,-0.07585311336368322
1783693615277878800,3.941878662109375,-0.057931964486837385,-0.021017982381023464,-0.04681925351582467
1783693615287840800,3.9518408203125,-0.07872048549354076,0.002153451706841588,-0.016526698843762278
1783693615297803800,3.9618037109375,-0.14684358912706375,0.032003559841029344,0.020018632612749932
1783693615307766000,3.97176611328125,-0.19965514186024666,0.04422024999856949,0.01919979051053524
1783693615317728800,3.981728759765625,-0.15789339092969892,-0.00044288492929190395,0.02482625209018588
1783693615327690800,3.991690673828125,-0.08595686648786068,-0.027415939789824186,0.03566094983741641
1783693615337653800,4.00165380859375,-0.03147825732529163,-0.012771145702525973,0.009529095041379332
1783693615347616000,4.011615966796875,-0.00925999577641487,-0.0077547423126176,0.01159026535488665
1783693615357578800,4.021578857421875,0.008108487653732298,-0.006386486166715622,0.04325432757586241
1783693615367540700,4.031540771484375,0.05037351193130016,-0.002803366982936859,0.06994586208127439
1783693615377503700,4.041503662109375,0.044110944405198096,0.005434847997687757,0.07803674101307988
1783693615387467000,4.051467041015625,0.010203998628258704,0.0026662600671872494,0.06310688290670513
1783693615397428700,4.0614287109375,0.020513211196660993,-0.02682012932114303,0.04493643544390798
1783693615407391700,4.071391845703125,0.059919923433661454,-0.06431194784753025,0.016949381235241888
1783693615417354000,4.08135400390625,0.04324585200846195,-0.07176200812514871,-0.0036520927667617795
1783693615427317000,4.09131689453125,-0.004939794489741325,-0.04759414687845856,-0.01931282243095338
1783693615437279000,4.101279052734375,-0.023911621463298796,-0.04196224193871021,0.03210764127001166
1783693615447241200,4.1112412109375,-0.05315758969187736,-0.026759667838178573,0.060165349562093615
1783693615457203500,4.121203369140625,-0.16615794592797756,0.049386108329147096,0.07769443038143217
1783693615467166200,4.131166259765625,-0.21497662963271139,0.05623765472434461,0.06866181362010539
1783693615477128200,4.141128173828125,-0.19903964031040666,0.045445736672915515,0.07337773622609675
1783693615487091200,4.15109130859375,-0.1817974136084318,0.046431386709399516,0.04162336537316441
1783693615497053400,4.161053466796875,-0.10421733032166958,0.012366985348425804,0.005730506476014852
1783693615507016200,4.17101611328125,0.01258008010983467,-0.004687536761723459,-0.002360737781971693
1783693615516979200,4.180979248046875,0.0785264242261648,0.0003162263423204422,-0.013185352526605128
1783693615526941200,4.190941162109375,0.08648819688558577,-0.0013592325892299412,-0.03300422478355467
1783693615536904400,4.200904541015625,0.0735556500762701,0.03476794652044773,-0.03208623315580189
1783693615546866200,4.2108662109375,0.08281564585268497,-0.0062314782680943604,-0.04258183514177799
1783693615556829200,4.2208291015625,0.1063292079091072,-0.051518919106759126,-0.052013680353760715
1783693615566791400,4.23079150390625,0.11684651027023792,-0.0705467871164903,-0.054883755897358055
1783693615576754400,4.24075439453125,0.08971066606342792,-0.08102156551014632,-0.03701718675196171
1783693615586716200,4.250716064453125,0.06367255396544932,-0.06385561891477555,-0.03229921831935644
1783693615596679200,4.26067919921875,0.03079085958302021,-0.04435790490359068,0.0013872896399348973
1783693615606641400,4.270641357421875,-0.016935352709889412,-0.021460173190571367,0.02292809031866491
1783693615616604400,4.2806044921875,-0.132960025203228,0.012074541740491985,0.05276574083007872
1783693615626566100,4.290566162109375,-0.207726220113039,0.032731874115578825,0.022175079994276165
1783693615636529200,4.300529052734375,-0.19772797318994997,0.014529351014085113,0.014750921342894434
1783693615646491400,4.310491455078125,-0.20520459268093108,0.008551884039677679,0.01703201801739633
1783693615656454400,4.320454345703125,-0.19088789803683756,-0.005904986260086298,0.01432436649389565
1783693615666416000,4.330416015625,-0.13801672407090662,-0.015896365050971507,-0.001987082163989544
1783693615676379100,4.340379150390625,-0.14518588504791258,-0.019812405983544886,0.0035794659219682214
1783693615686342100,4.350342041015625,-0.14892682514190672,-0.00279459915459156,-0.02090330649279058
1783693615696304400,4.360304443359375,-0.16151684212386608,0.03513425908219069,0.02162877122312784
1783693615706267400,4.370267333984375,-0.1551502297013998,0.05035710878577083,0.08251593225374818
1783693615716229000,4.38022900390625,-0.0935895533233881,0.055428603363782164,0.09198189893104135
1783693615726192000,4.390192138671875,-0.0018014964640140532,0.04284351828526705,0.10048844599165022
1783693615736154400,4.400154296875,0.10869184538722038,-0.004401632492430508,0.11021671686694025
1783693615746117400,4.410117431640625,0.1843459290474653,-0.020677059988863766,0.0931156522013247
1783693615756079000,4.4200791015625,0.2030646580427885,-0.021948541229404508,0.07541479501165449
1783693615766042000,4.4300419921875,0.18120003223717213,-0.022349377115257082,0.03659698857851326
1783693615776004400,4.44000439453125,0.14717442851662635,-0.0016472192177549004,0.030394115350395438
1783693615785967400,4.44996728515625,0.03746668408513069,0.028636494560725985,0.019649287843704222
1783693615795929000,4.45992919921875,-0.08587211081385612,0.033412622921355065,-0.02024294288791716
1783693615805892400,4.469892333984375,-0.16493863326609134,0.019749021891131997,-0.05836049209721386
1783693615815854300,4.479854248046875,-0.20062252558767793,0.007472820098698139,-0.0735057465199381
1783693615825817300,4.4898173828125,-0.18367314435243606,-0.023452004594914613,-0.08033617706187068
1783693615835780400,4.4997802734375,-0.16347557497620582,-0.011439568305201828,-0.0463981785595417
1783693615845742300,4.509742431640625,-0.1160626664161682,0.01868924717251211,0.016674948208034036
1783693615855705300,4.519705322265625,-0.040430794587731356,0.03610664777830243,0.08854206067547202
1783693615865667300,4.529667236328125,-0.022373744371533392,0.054960730123706156,0.16011004406586288
1783693615875630300,4.53963037109375,-0.0641571226119995,0.07293576461225748,0.13712766627669334
1783693615885592300,4.54959228515625,-0.03974807302057743,0.07425057353787123,0.13448475055247544
1783693615895555300,4.559555419921875,0.05748831237256526,0.03458163016811013,0.1225805969428271
1783693615905517300,4.569517333984375,0.12192951262295246,0.008906469631008803,0.07188026420995593
1783693615915480300,4.579480224609375,0.15185001911222934,-0.023576763485744594,0.05095869140811264
1783693615925442300,4.5894423828125,0.15087445207834244,-0.0458783559365198,-0.05350180001966655
1783693615935405300,4.5994052734375,0.1224631811082363,-0.04929265789203346,-0.12279233999736607
1783693615945367300,4.6093671875,0.05533259564340114,-0.029452267923019824,-0.11348419423028826
1783693615955330300,4.619330322265625,-0.06494856525063514,0.019801336600258946,-0.044778468403220174
1783693615965292300,4.629292236328125,-0.17981997605562208,0.00755012311860919,-0.04054916027039289
1783693615975255300,4.63925537109375,-0.21142858176231383,-0.012585450404696165,-0.09123305332511662
1783693615985217300,4.64921728515625,-0.20027941123843193,-0.011979337737709284,-0.058631710254028434
1783693615995180300,4.65918017578125,-0.1819119798988104,0.012003522330895066,-0.005880655536428093
1783693616005143000,4.66914306640625,-0.16483809550106523,0.0531740293700248,0.04667655710950493
1783693616015105300,4.679105224609375,-0.1341840140402317,0.06162950383052229,0.04426766933687031
1783693616025068300,4.689068359375,-0.11868950778841972,0.06496489533092827,0.026369682139903306
1783693616035030300,4.6990302734375,-0.08832242657542229,0.05047635125126689,0.0220274882171303
1783693616044993300,4.7089931640625,-0.08301321425139903,0.030909371396154163,0.0212875565700233
1783693616054955300,4.718955322265625,-0.056310500764846796,0.02294580863844603,0.01957797617316246
1783693616064918300,4.728918212890625,-0.02163490870296955,-0.015032185969687997,-0.019906769736111163
1783693616074880300,4.73888037109375,0.01194002864062786,-0.028181334671750664,-0.030574951810017226
1783693616084843500,4.748843505859375,0.06608546032607555,-0.016679039861261843,0.001669467582181096
1783693616094805200,4.75880517578125,0.10698094981610774,-0.012086962830647826,0.029529899736493823
1783693616104768300,4.768768310546875,0.107497082644701,-0.006872954509407282,0.03230082575455308
1783693616114730200,4.778730224609375,0.059527124723792076,0.008085179843381047,0.041871714111045004
1783693616124693500,4.788693603515625,0.02440028176307678,0.015173201875574886,0.0431104621257633
1783693616134655200,4.7986552734375,0.015483400335907935,0.00872943256366998,0.05701543416380882
1783693616144618200,4.8086181640625,-0.007200140637159347,-0.023176365991309286,0.04921944652535021
1783693616154581200,4.818581298828125,-0.05573299313783645,-0.013812033057585358,0.011614888339489697
1783693616164543500,4.82854345703125,-0.07289864747226238,-0.0030919381333515046,0.021690292152017353
1783693616174506200,4.83850634765625,-0.04752455224096775,-0.0018227949803695082,0.07412599731013178
1783693616184468200,4.84846826171875,-0.03896539821028709,-0.00888659588675946,0.08842508323229849
1783693616194431200,4.85843115234375,-0.026408698976039886,-0.0035441388802602883,0.07983100401870906
1783693616204393500,4.8683935546875,-0.03617313714325428,0.03659443129524589,0.07597191743776202
1783693616214356200,4.878356201171875,-0.08934709344804287,0.05213621075488627,0.05905132390558719
1783693616224318200,4.888318115234375,-0.10495148981511593,0.03513860646374523,0.026304654079675673
1783693616234281200,4.89828125,-0.09628361471295356,0.04154346853736788,0.020664967692270875
1783693616244243500,4.908243408203125,-0.07710895864367484,0.026092691829428076,0.049775619103386994
1783693616254206200,4.918206298828125,-0.023683657926321027,0.004989332719892263,0.05028663736544549
1783693616264168200,4.928168212890625,0.013589549413323401,-0.008884330864436924,0.015435396475717424
1783693616274131200,4.938131103515625,0.06328443143069744,-0.04545629459954798,0.004153758678585291
1783693616284093400,4.948093505859375,0.06318097105622292,-0.05082392257992178,-0.012811039321497082
1783693616294056200,4.95805615234375,0.04341185622513294,-0.05346464634705335,-0.016606924473121763
1783693616304018200,4.96801806640625,0.017923779225349424,-0.027366218896582722,-0.006730696494504809
1783693616313981200,4.977981201171875,-0.001225157880783081,-0.015719254918396472,0.04718275306597352
1783693616323944400,4.9879443359375,0.010579261681437491,0.009217691004648804,0.06730353087894618
1783693616333906200,4.99790625,-0.02118424232602119,0.02805116895344108,0.11429806789644062
1783693616343869200,5.007869140625,-0.03769464762210846,0.029300109568610785,0.1026863944273442
1783693616353831200,5.0178310546875,-0.035867432194948194,0.008688625629246235,0.06968984149359166
1783693616363794400,5.02779443359375,-0.03961480202972889,0.0040429917804896826,0.04529715851508081
1783693616373756200,5.037756103515625,-0.004135492369532585,-0.011311265750415623,0.0193905638422817
1783693616383719200,5.04771923828125,0.042133506852388376,-0.04426580617334693,-0.008985855010151863
1783693616393681400,5.057681396484375,0.03879880947172642,-0.04508837460260838,-0.03353394774608314
1783693616403644400,5.06764453125,-0.035409751555323596,-0.02665222540833056,-0.02249693235978484
1783693616413606100,5.077606201171875,-0.08899521127045154,-0.02665332138687372,-0.00443425612039864
1783693616423569200,5.087569091796875,-0.16810966451764106,0.01336297411583364,-0.008746127970144152
1783693616433531400,5.097531494140625,-0.17550912711918354,-0.032575112651288506,0.00523410126119852
1783693616443496000,5.107495849609375,-0.13955986185967922,-0.02443133448846638,0.04290748689956963
1783693616453458200,5.117458251953125,-0.11690963863432406,-0.013894377578794956,0.041406361621618266
1783693616463421200,5.127421142578125,-0.10579378585815429,-0.006117459966987371,0.07272299864441156
1783693616473384000,5.137384033203125,-0.07617956883907318,0.023392529492639005,0.09863207753524184
1783693616483346000,5.147345947265625,-0.12191782218515872,0.012073116968385875,0.08165368940122425
1783693616493309000,5.157308837890625,-0.16286533412337303,-0.014393376609496772,0.047788317743688816
1783693616503271200,5.167271240234375,-0.16188859804570674,-0.026737200278043747,0.025885551884770392
1783693616513234000,5.17723388671875,-0.1507628083974123,-0.03886745426114648,0.003188566908240318
1783693616523196000,5.18719580078125,-0.11765724213123321,-0.025029044653289017,0.033991847581416365
1783693616533159000,5.197158935546875,-0.09786942259967327,0.017661657690443096,0.031070187981054185
1783693616543121200,5.20712109375,-0.05824760630726814,0.028205811525881287,0.015914923620969055
1783693616553084000,5.217083984375,-0.05869535007476806,0.043356472776085134,0.011884645191580057
1783693616563046000,5.2270458984375,-0.07697510313093661,0.060778220763429994,-0.036845629577338695
1783693616573009000,5.2370087890625,-0.04940203655064106,0.041446547501534224,-0.09326587432697415
1783693616582971100,5.24697119140625,0.0246434428691864,-0.010915434833243488,-0.11045403275415301
1783693616592934000,5.256933837890625,0.09576748188436031,-0.026699096757359802,-0.10344736886247992
1783693616602896000,5.266895751953125,0.1660685140788555,-0.052381381154991684,-0.09697883043549954
1783693616612859100,5.276859130859375,0.17776128996014595,-0.032017624898999925,-0.05460881141349673
1783693616622821000,5.286821044921875,0.06653788026869296,0.01371726744621992,-0.023893501284718514
1783693616632784000,5.296783935546875,-0.03619125732183456,0.04304711456596851,0.00659136108905077
1783693616642747000,5.306746826171875,-0.06886953808665275,0.037759712214954194,0.0008146043185144662
1783693616652709000,5.316709228515625,-0.06799100168645382,0.006217413210123777,-0.01482347512245178
1783693616662672100,5.326672119140625,-0.037298341780900954,-0.009123254186846315,-0.01156447332650423
1783693616672633900,5.3366337890625,-0.019900047734379766,-0.02352744445130229,0.020483108319342136
1783693616682596900,5.346596923828125,-0.02196224096119404,-0.0014852335890755057,0.05514182231165468
1783693616692559000,5.35655908203125,-0.07939677731990814,0.010984956405498087,0.06114909990243613
1783693616702522000,5.366522216796875,-0.09000701866149902,0.019427790580131114,0.06228416834697127
1783693616712483800,5.37648388671875,-0.08782616749107837,0.007983692230284214,0.054240270362049335
1783693616722446800,5.38644677734375,-0.08332651798427104,-0.00721500941272825,0.05692286050952971
1783693616732409000,5.3964091796875,-0.0863040724903345,0.0040430283131077886,0.032745281586423515
1783693616742372000,5.4063720703125,-0.06397299821674823,0.03338803646937012,0.05390840805917978
1783693616752333800,5.416333740234375,-0.021142741271853446,0.020348960545659062,0.09335201824046671
1783693616762296800,5.426296875,-0.004497311419248581,0.03478252303507179,0.06873714387863875
1783693616772259000,5.436259033203125,-0.0177636202275753,0.06615816023610532,0.018959698144346473
1783693616782222000,5.44622216796875,0.03018295681774616,0.06504249061178416,-0.010424144184961914
1783693616792185000,5.45618505859375,0.0642097295820713,0.03522712499741465,-0.04148571046814322
1783693616802146800,5.466146728515625,0.08496493284106255,0.008747845003195106,-0.07341507256180048
1783693616812109800,5.47610986328125,0.08169570191204548,-0.03257799872811883,-0.11535437201634048
1783693616822072000,5.486072021484375,0.04719254380762577,-0.03448792400266975,-0.11000950385704636
1783693616832035000,5.49603515625,-0.023351064971089363,-0.04452865836061537,-0.08188464861288666
1783693616841996800,5.505996826171875,-0.08159925580024718,-0.022793321490474045,-0.06872158098332584
1783693616851960000,5.5159599609375,-0.12543138326406478,-0.027612046883814034,-0.04663059907592833
1783693616861922000,5.525922119140625,-0.09207914876043796,-0.03678947894331067,0.009462605676427482
1783693616871885000,5.535885009765625,-0.07062836445271968,-0.04175042581893503,0.05752857131771743
1783693616881846800,5.5458466796875,-0.060012862414121626,-0.029190840507857498,0.06701221978217363
1783693616891810000,5.55581005859375,-0.05900163954496383,-0.020212584282271562,0.08128397930599748
1783693616901772000,5.56577197265625,-0.0795505065768957,0.0010878683019429445,0.09690379243791103
1783693616911735000,5.575735107421875,-0.11133154624104499,0.04595240755341947,0.12627652885131538
1783693616921697000,5.585697021484375,-0.1352086809128523,0.028527919619716704,0.11653678673394023
1783693616931660000,5.595659912109375,-0.13667933798730372,0.00800148361530155,0.06320552097558975
1783693616941623000,5.605623046875,-0.10709434706270694,-0.01984510267674923,-0.004354615012928843
1783693616951585000,5.6155849609375,-0.0857902777493,-0.05323675587531179,-0.0335633930362761
1783693616961548000,5.625548095703125,-0.09021627749800681,-0.06281071297172457,-0.04164703850969672
1783693616971510000,5.635510009765625,-0.061925418037176126,-0.04720847202911973,-0.006901376886293291
1783693616981473000,5.64547314453125,-0.023550971457362173,-0.015799115221574903,0.03183773828744888
1783693616991435000,5.65543505859375,0.03161328188180923,-0.013507460620440542,0.061729530138894914
1783693617001398000,5.66539794921875,0.10969839208126067,-0.016492906172014772,0.09334873030483722
1783693617011360000,5.675360107421875,0.12333353420197964,-0.0028220716834068296,0.09760653387978672
1783693617021323000,5.685322998046875,0.1226250936716795,0.023842538282461464,0.09122223967015743
1783693617031285000,5.695284912109375,0.0884480987817049,0.02796973774768412,0.09194251676872373
1783693617041248000,5.705248046875,0.03175122904777527,0.019002258644439277,0.03422339131496847
1783693617051210000,5.7152099609375,0.010565233156085013,0.00992090737055987,-0.023515461752563714
1783693617061173000,5.725173095703125,-0.02365560087561607,-0.0035917408816516397,-0.049441053386777636
1783693617071135000,5.735135009765625,-0.0650683922380209,-0.006551540535315871,-0.055639761896431446
1783693617081098000,5.745097900390625,-0.13342238201797008,-0.0053268941111862655,-0.08184899277761579
1783693617091060000,5.75506005859375,-0.17199088986515998,-0.022523491573147474,-0.08402385259866714
1783693617101023000,5.76502294921875,-0.15969605643749235,-0.018721542006917297,-0.04509688670262694
1783693617110986000,5.774986083984375,-0.14055062646269798,-0.012379041112400591,-0.005154898545145988
1783693617120948000,5.784947998046875,-0.12956862919926643,-0.021715061267092824,0.037024712471291424
1783693617130911000,5.794910888671875,-0.11810440137684344,-0.0011868716970086096,0.08494542442299426
1783693617140873000,5.804873046875,-0.1484831730276346,0.03660097063388675,0.11111973012126981
1783693617150836000,5.8148359375,-0.1584609616845846,0.029656594856083393,0.09848032103963196
1783693617160798000,5.8247978515625,-0.13769465250968932,0.02916537727303803,0.06511698062010109
1783693617170761200,5.83476123046875,-0.12278057649433612,0.023189042809791862,0.03279460062086582
1783693617180723000,5.844722900390625,-0.07804886984229087,-0.016955591780319808,-0.0018022271163761615
1783693617190686000,5.85468603515625,0.00878244139254093,-0.031685068476386365,-0.051914092436805365
1783693617200648200,5.864648193359375,0.06541326015293598,-0.04207636983767152,-0.05732976080998778
1783693617210611200,5.874611083984375,0.07883797439336776,-0.023079627618566155,-0.061976563702523704
1783693617220573000,5.884572998046875,0.09918167424201965,0.015688494453951714,-0.027493644668534396
1783693617230536000,5.894535888671875,0.048861938324570656,0.05451185384504497,0.012403919825330376
1783693617240498200,5.904498291015625,-0.014597265151143074,0.08992978870682418,0.02576375213600695
1783693617250461200,5.914461181640625,-0.029358780953288078,0.05911375814992934,0.04082958464697003
1783693617260423000,5.9244228515625,-0.027637363988161086,0.041074389720894396,0.014135858184471725
1783693617270386000,5.934385986328125,0.0011795651733875275,0.007946575090289116,0.005652838129922747
1783693617280349000,5.944348876953125,0.01204115092754364,0.005933408636972308,-0.006663695672899484
1783693617290311200,5.954311279296875,0.014355273088812827,-0.0006621171705424785,-0.017974194238334892
1783693617300274000,5.96427392578125,-0.04605564873218536,0.027283216788247227,-0.00981383026689291
1783693617310236000,5.97423583984375,-0.07894786450862884,0.03548124588895589,0.016656024311855436
1783693617320199000,5.984198974609375,-0.08013561298847198,0.02714505042657256,0.030315935547649858
1783693617330161200,5.9941611328125,-0.07667875053286552,0.009442951127886772,0.016523045581951737
1783693617340124000,6.0041240234375,-0.04956920981109142,-0.001172514378093183,0.0174281046628952
1783693617350086000,6.0140859375,-0.02329845800101757,0.0042359936019405724,0.04100253006108105
1783693617360049000,6.024048828125,0.05224398197829723,0.016927753925323485,0.057340793660655615
1783693617370011100,6.03401123046875,0.07178688683807849,0.036784656637720764,0.04950111301094293
1783693617379974000,6.043973876953125,0.023331191226840017,0.04877327366042882,0.05459193334393203
1783693617389935900,6.053935791015625,-0.07349544432163238,0.05099431071076542,0.011858926228433847
1783693617399899000,6.06389892578125,-0.13332009068727493,0.033679968620650466,-0.05901442596130073
1783693617409861000,6.073861083984375,-0.13185410978794096,0.020645605404675006,-0.07555040409006178
1783693617419823900,6.083823974609375,-0.12185703190863131,0.00026573826409876343,-0.033134719295427204
1783693617429785900,6.093785888671875,-0.08648293618857861,-0.007491342136077582,-0.015117416567727922
1783693617439749000,6.1037490234375,-0.0574257685303688,-0.0005809416931122541,-0.022928747905790803
1783693617449710600,6.113710693359375,-0.04679565344452858,0.0190563999844715,-0.007431099848821759
1783693617459672600,6.123672607421875,-0.03737491414844989,0.020797873356938362,0.03448277290351689
1783693617469635800,6.1336357421875,0.030255437532067296,0.018502930820174516,0.057673751942068335
1783693617479597600,6.14359765625,0.05316694204211235,0.018448058827780184,0.07691139024496078
1783693617489560600,6.153560546875,0.048451019436120984,0.002137304289638996,0.07677439292706549
1783693617499522600,6.1635224609375,0.04932487966120243,-0.01258709437251091,0.05119184257686138
1783693617509485800,6.17348583984375,0.05923018760383129,-0.03150079795066267,0.058952247445285315
1783693617519447600,6.183447509765625,0.023653262788057326,-0.02796568262707442,0.07148088962882757
1783693617529410600,6.19341064453125,-0.034790742874145505,0.025613128151558338,0.09637005088739097
1783693617539372800,6.203372802734375,-0.099240710952878,0.08261858891062437,0.09466631570942699
1783693617549335800,6.213335693359375,-0.12812076847851275,0.08425258332062512,0.06515585132576525
1783693617559297500,6.223297607421875,-0.15661445703506469,0.06402819900270551,0.026127251686155796
1783693617569260500,6.233260498046875,-0.17303776856958866,0.04572013316750526,-0.0451985204461962
1783693617579222800,6.243222900390625,-0.16492577378451823,-0.000022979016788303852,-0.11102401466183363
1783693617589185800,6.253185791015625,-0.16938567580282687,-0.038637737158499656,-0.1301720019198954
1783693617599148500,6.2631484375,-0.1265554188579321,-0.02480261548627168,-0.11227891009375453
1783693617609110500,6.273110595703125,-0.07817571109235286,-0.016265417559072376,-0.06304974589198828
1783693617619073500,6.283073486328125,-0.025915947023034094,0.0017923998421058057,0.030877295757457613
1783693617629035800,6.293035888671875,0.023646248525381088,0.03182780141532421,0.09661394264586269
1783693617638998500,6.30299853515625,0.06302665727734566,0.03569309854134917,0.16050795734226703
1783693617648960500,6.31296044921875,0.09559387888312339,0.034013511423952876,0.17956000994518398
1783693617658923500,6.322923583984375,0.12075228553712368,0.023283516160212455,0.15797602771185337
1783693617668885800,6.3328857421875,0.10855214465558528,-0.006450454781018197,0.13975604201890526
1783693617678848500,6.3428486328125,0.07393792739212512,-0.021427695693075656,0.09015351446010172
1783693617688810500,6.352810546875,0.053766076979041094,-0.014696706937626003,0.03058686144351959
1783693617698773500,6.3627734375,0.034060090512037275,-0.007130838260613381,-0.004634308737143874
1783693617708735700,6.37273583984375,-0.039099838244915,0.023697796049527823,-0.006690729810297489
1783693617718698500,6.382698486328125,-0.10238076254427432,0.01611632794458419,-0.01073883615732193
1783693617728660500,6.392660400390625,-0.13484803090691566,0.00455989179406315,-0.023384309653565288
1783693617738623700,6.402623779296875,-0.16586042428612707,0.00018869097251445055,-0.03498816514238715
1783693617748586800,6.412586669921875,-0.17639993847906588,0.02446461570356041,-0.010304536393284797
1783693617758548500,6.422548583984375,-0.16185644934177398,0.04747998244687915,0.014398893034830688
1783693617768511500,6.432511474609375,-0.11089257030189037,0.053289983899891376,0.0313680018838495
1783693617778473700,6.4424736328125,-0.10640928740799427,0.053284650137647986,0.043011604861170054
1783693617788436700,6.452436767578125,-0.12245207519233225,0.054798525299318133,0.028608181781694293
1783693617798398700,6.462398681640625,-0.12787585380673408,0.03581226794160902,0.03961063731126487
1783693617808361500,6.472361572265625,-0.10411036281585692,0.014033164994977414,0.008151376947388052
1783693617818323700,6.48232373046875,-0.07854746701419353,-0.004670549094304442,0.0014662000950425862
1783693617828286700,6.49228662109375,-0.007169160977005958,0.002728292452730238,0.01388232181482017
1783693617838248700,6.502248779296875,0.08684533976018428,0.01326272861175239,0.013744082387909293
1783693617848211500,6.51221142578125,0.13049918804764746,0.001983027043379843,0.004313844611123204
1783693617858173700,6.522173583984375,0.14865093080997466,-0.019459902751445768,-0.04469524709917605
1783693617868136700,6.53213671875,0.15021511138677596,-0.0048589478058740495,-0.03747749774008989
1783693617878099700,6.542099609375,0.09045710051655768,-0.000340264805033803,-0.02718428645841777
1783693617888061400,6.5520615234375,0.021610358783602714,-0.00013926234021782873,-0.024956454341113567
1783693617898024400,6.5620244140625,-0.026986791124939916,0.0008948664804920553,-0.02350070257484913
1783693617907986700,6.571986572265625,-0.05415653760135174,0.009307122853770852,-0.010507438554242252
1783693617917949700,6.58194970703125,-0.09477613275945186,0.026937435557879506,-0.008641425486654043
1783693617927911400,6.591911376953125,-0.12881401143968105,0.045574148825556035,0.015335004841163754
1783693617937874400,6.60187451171875,-0.1482528714030981,0.04046451419424266,0.006119798054546118
1783693617947836700,6.611836669921875,-0.16536182711422442,0.038350298519246276,0.006675605306401849
1783693617957799700,6.621799560546875,-0.15768647018074988,0.014741422862187027,-0.005620762491226196
1783693617967761400,6.631761474609375,-0.09752923085987568,-0.006631437371112406,0.007658259668201208
1783693617977724700,6.641724609375,-0.030943419796228406,-0.008195289154350758,0.013174465806409717
1783693617987686700,6.651686767578125,0.03985504052639007,-0.000573562104254961,0.06552044685445725
1783693617997649700,6.661649658203125,0.09285071765482425,-0.015001681233569979,0.10372187495492398
1783693618007612700,6.67161279296875,0.08482640115320682,0.02017605166416615,0.11968195289187132
1783693618017574700,6.68157470703125,0.06097498544454574,0.036925234152190387,0.12524952389113606
1783693618027537700,6.69153759765625,0.048828620576858515,0.03355791314356029,0.12718801767304538
1783693618037499600,6.701499755859375,0.04521043007969856,0.030759368466213344,0.07347820092588662
1783693618047462700,6.711462646484375,-0.007739654341340064,-0.0002098433583974838,0.004691080425679684
1783693618057424600,6.721424560546875,-0.026507483175396918,0.0050480041045695544,-0.060577510559558866
1783693618067387600,6.7313876953125,-0.013923895934224127,-0.03160919022858143,-0.09509959256015717
1783693618077349600,6.741349609375,-0.012938976550102232,-0.05864069727808237,-0.1290425594985485
1783693618087312600,6.751312744140625,0.0035001170754432676,-0.06347315893583,-0.11887041731327772
1783693618097274600,6.761274658203125,-0.016452537629008293,-0.05524539228398353,-0.07473068520501255
1783693618107237600,6.771237548828125,-0.06222644681036472,-0.01604921752512455,-0.008896203965321182
1783693618117200600,6.78120068359375,-0.11677344503402709,0.017506649791821836,0.044657983828708524
1783693618127162600,6.79116259765625,-0.12874854498803615,0.05247625636421144,0.07611475997455418
1783693618137125600,6.801125732421875,-0.12906652489602566,0.02572093590758741,0.10594261974431574
1783693618147087600,6.811087646484375,-0.07972177149057388,-0.013615377974323927,0.09843845465928315
1783693618157050600,6.821050537109375,-0.043003859946131706,-0.01877835022807121,0.06709880208708345
1783693618167012600,6.8310126953125,-0.03237608294785022,-0.05388754793424159,0.027261004956439135
1783693618176975600,6.8409755859375,-0.0396054496794939,-0.04932886171657592,-0.0045798020709306
1783693618186937600,6.8509375,-0.0862350989073515,-0.05122793680354953,-0.03530607198514044
1783693618196900600,6.860900634765625,-0.11701777518391608,-0.03857698341459036,-0.044499505331367255
1783693618206862600,6.870862548828125,-0.12922785293757916,-0.011850012269616126,-0.058757455525547266
1783693618216825600,6.88082568359375,-0.09263970525264739,-0.03180931591056287,-0.03813515793122351
1783693618226787600,6.89078759765625,-0.021903204250335692,-0.036402781180664895,-0.00579151594825089
1783693618236750600,6.90075048828125,0.003830371943116188,-0.012152904206328093,0.023890140283852813
1783693618246713600,6.910713623046875,0.0403898780554533,0.006048851710185408,0.04407959941886365
1783693618256675800,6.92067578125,0.05904138703346252,0.02195570162255317,0.09338855085857212
1783693618266638600,6.930638671875,0.08449263915419578,0.011482749859802424,0.11636420664601027
1783693618276600600,6.9406005859375,0.10981529645919799,0.018955168099701405,0.12012180561386047
1783693618286563600,6.9505634765625,0.0800169550448656,0.027468400629423555,0.14429799629747866
1783693618296525800,6.96052587890625,-0.06322188758850097,0.044423517485708,0.11252689350545406
1783693618306488600,6.970488525390625,-0.12787468476295472,0.025301760647445916,0.04007489382214844
1783693618316450600,6.980450439453125,-0.1748790125221014,-0.030315643286705014,0.0008818974010646343
1783693618326413600,6.99041357421875,-0.16508593278229236,-0.051125207081437106,-0.034676395779475566
1783693618336375800,7.000375732421875,-0.14261223516762256,-0.037860578773543235,-0.03766819800660014
1783693618346338600,7.010338623046875,-0.14738251830935478,-0.019266645201668143,-0.009089826841279864
1783693618356301600,7.020301513671875,-0.0829407335370779,-0.013574571039900183,0.017154110027104614
1783693618366263600,7.030263671875,-0.034900632989406585,0.0038551775908097622,0.04022591966539621
1783693618376226600,7.0402265625,-0.01648410181105137,0.035201150305941696,0.023517288383468983
1783693618386188500,7.0501884765625,0.024575638329982757,0.03189896695539355,-0.005551935038715601
1783693618396151600,7.060151611328125,0.08467851711511612,-0.019614106932468713,-0.016726166938617823
1783693618406113500,7.070113525390625,0.06854629748165607,-0.011123561158590018,0.023496026399731636
1783693618416076500,7.08007666015625,0.024534137275815007,-0.016043810697644947,0.011885156648233532
1783693618426038500,7.09003857421875,-0.000009352350234985351,-0.027216106368787584,0.025904475780948996
1783693618436001500,7.10000146484375,-0.0030891981869935986,-0.021382468311861157,0.05608998988196254
1783693618445964000,7.109964111328125,-0.03977086937427521,-0.00991469682548195,0.08186893958710134
1783693618455927000,7.119927001953125,-0.07846680299341678,0.004878821550123393,0.07449899534098804
1783693618465889300,7.12988916015625,-0.09877601605057716,0.01443191852159798,0.05415639147087931
1783693618475852000,7.13985205078125,-0.1067781207203865,0.013892550947889685,0.055832507989555594
1783693618485815000,7.14981494140625,-0.08541852182745933,-0.014690021468512712,0.02196224096119404
1783693618495777000,7.159777099609375,-0.0527028316617012,-0.038774405682832,0.0005845218896865845
1783693618505740300,7.169740234375,-0.014458733463287353,-0.035913645956851536,-0.009140241854265332
1783693618515702000,7.179701904296875,-0.02352232988476753,-0.017428762250021098,-0.008299480181187391
1783693618525665000,7.1896650390625,-0.08215045994222164,0.008516410867497324,-0.020745997039228678
1783693618535627000,7.199626953125,-0.11743395476937293,0.04759341622609645,-0.013406228735670447
1783693618545590300,7.20959033203125,-0.14462123690247536,0.056154798746481535,-0.018366846817731857
1783693618555552000,7.219552001953125,-0.06616203269362449,0.043265543089620766,-0.0005519347943365574
1783693618565515000,7.229514892578125,-0.022579496076703072,0.048902599128521976,-0.011658435220271348
1783693618575477200,7.239477294921875,0.04457096313238144,0.044097792662680144,-0.0318500132471323
1783693618585440300,7.249440185546875,0.07184124737381935,0.017502594671212134,-0.03047156450077891
1783693618595403300,7.2594033203125,0.11758300785124301,-0.000044131402671337126,-0.031650033695623275
1783693618605365000,7.269364990234375,0.11246201157569885,-0.016195238399691878,-0.06214300631061196
1783693618615328000,7.279327880859375,0.06272329041659831,-0.005973923310451209,-0.04729936518296599
1783693618625290200,7.289290283203125,0.02223053650856018,-0.0019605960158631205,-0.0011294424213469027
1783693618635253200,7.299253173828125,-0.035678631624579425,-0.00814542213063687,0.029454715608432887
1783693618645215000,7.309215087890625,-0.11413549774587153,-0.009192373900301753,0.025353710030391812
1783693618655178000,7.319177978515625,-0.16337036103606223,-0.00566953353639692,0.01167721298597753
1783693618665140200,7.32914013671875,-0.14479600894749164,-0.012123678111843764,0.016325038791820404
1783693618675103200,7.339103271484375,-0.138683663547039,-0.021411804004199803,0.031725948476046324
1783693618685065000,7.34906494140625,-0.19487609089016913,0.014821611958928406,0.03339110520929098
1783693618695028000,7.359028076171875,-0.2207318321585655,0.03530698530059308,0.05423040655516088
1783693618704990200,7.368990234375,-0.1671972258478403,0.022517025299742817,0.04673201362378895
1783693618714953200,7.378953125,-0.08319383151531219,0.009409852575883268,0.04352444975413382
1783693618724916200,7.388916259765625,-0.01765606819987297,-0.0019368132814764976,0.05362513413839042
1783693618734878000,7.3988779296875,0.04010404685139656,0.013361658941581844,0.07604812447912991
1783693618744841200,7.40884130859375,0.06650865417420863,0.028410284589417276,0.08340192130804061
1783693618754803200,7.41880322265625,0.079372811922431,0.04086158722043037,0.08137728361263871
1783693618764766200,7.42876611328125,0.06446925730109214,0.04393266522884369,0.03830028536505997
1783693618774728000,7.43872802734375,0.05110533333718777,0.03471888321433216,-0.004345189597457647
1783693618784691200,7.448691162109375,0.00947743791937828,0.024174912041984496,-0.017106179232150315
1783693618794653200,7.458653076171875,-0.05424012423157692,-0.005826916055195033,-0.06573131312616169
1783693618804616200,7.4686162109375,-0.06806815857589245,-0.03333173970486968,-0.0895296834733337
1783693618814578200,7.478578125,-0.062138768526911733,-0.058164421535842115,-0.05558423231691122
1783693618824541200,7.488541259765625,-0.059065936952829357,-0.03749430274441838,0.006898673472553491
1783693618834503200,7.498503173828125,-0.07167232054769992,-0.01772102319486439,0.0447948350161314
1783693618844466200,7.508466064453125,-0.058218964734673494,0.007747435788996517,0.0598283726926893
1783693618854429000,7.518428955078125,-0.03386369115710258,0.028896424138545988,0.09613923780620097
1783693618864391200,7.52839111328125,0.027581249886751175,0.05933430556543171,0.13978081113398075
1783693618874354200,7.538354248046875,0.06718260791301726,0.037178660923987625,0.12688238578997552
1783693618884316200,7.548316162109375,0.10846388185024261,0.018349165030568836,0.08545578509792685
1783693618894279000,7.55827880859375,0.10249006813764572,0.02716821210645139,0.07771255056001246
1783693618904241200,7.5682412109375,0.01902326489984989,0.02811177656687796,0.06529445607885719
1783693618914204200,7.5782041015625,-0.06234802736341953,0.03597874708231538,0.015577362229675054
1783693618924166100,7.588166259765625,-0.12474340099990368,0.03836217162013054,-0.06301394392624497
1783693618934129000,7.59812890625,-0.16301497172713278,-0.04833868163544684,-0.08936433684378862
1783693618944091100,7.608091064453125,-0.1351198335856199,-0.07842051616627722,-0.0780369602087885
1783693618954054100,7.61805419921875,-0.05799450832903385,-0.05516560504604131,-0.04785414952151477
1783693618964017200,7.62801708984375,-0.00898117883503437,-0.05918254906982183,0.004281842037662863
1783693618973979100,7.637979248046875,0.010441314515471457,-0.01829469489697367,0.051693362358212466
1783693618983942100,7.647942138671875,0.05008826524913311,0.0018541399667039514,0.07125358367897569
1783693618993904000,7.657904052734375,0.051686932617425914,0.029976949384249746,0.1247078912951052
1783693619003867100,7.6678671875,0.0038280338555574415,0.07965060595050454,0.14464965927936135
1783693619013829000,7.6778291015625,-0.07443769360780715,0.08326711594723164,0.14104242856763302
1783693619023792000,7.687792236328125,-0.11457681177258491,0.059846383273415266,0.10077668834850191
1783693619033754000,7.697754150390625,-0.1426321089118719,0.015332447557896374,0.03404511213861405
1783693619043717000,7.707717041015625,-0.1568266384810209,-0.029585283185541628,-0.045089872439950704
1783693619053679000,7.71767919921875,-0.18181611830890176,-0.02896718781981617,-0.08008337134458124
1783693619063642000,7.72764208984375,-0.20138357308804988,-0.04830145489759743,-0.11015278478525578
1783693619073604000,7.73760400390625,-0.17776947326660156,-0.033657829854078586,-0.09055128160603344
1783693619083567000,7.747567138671875,-0.1663128442287445,-0.0067214902747422456,-0.04480542947538197
1783693619093529300,7.757529296875,-0.10726678102016449,-0.017835004963353274,-0.013966566032171248
1783693619103492000,7.7674921875,-0.03162263423204422,-0.01246518502589315,0.01468216695562005
1783693619113455000,7.777455078125,0.03741173902750015,-0.0025230156715959308,0.028548195222765204
1783693619123417000,7.7874169921875,0.09133622143864631,-0.008822846468165516,0.04254669076316058
1783693619133380000,7.797380126953125,0.11112754810154438,0.008995426556095481,0.06838401959203183
1783693619143342000,7.807342041015625,0.07956044344902038,0.02296031208783388,0.06244922271557152
1783693619153305000,7.81730517578125,-0.0145481653124094,0.031502880309894676,0.008576543556898832
1783693619163267000,7.82726708984375,-0.10948504159152507,0.01950217099059373,-0.044004049964621664
1783693619173230000,7.83722998046875,-0.06970072821378707,-0.0054920580776408314,-0.05407265871018171
1783693619183192000,7.847192138671875,-0.026001287218928335,-0.03822075385544449,-0.04103548248261213
1783693619193155000,7.857155029296875,-0.014914660537242889,-0.05332607812657952,-0.06487162755690515
1783693619203117000,7.867116943359375,0.011440846946835517,-0.042263014983572066,-0.04866889997050166
1783693619213080000,7.877080078125,0.01742518205344677,-0.01608995139431208,-0.019774667789041994
1783693619223043300,7.887043212890625,-0.046834231889247895,0.044529571676068004,0.021377572941035032
1783693619233005000,7.897005126953125,-0.1364671565413475,0.05999846856258809,0.02296761861145496
1783693619242968000,7.906968017578125,-0.18003508011102676,0.07540705009661615,0.004244286506250501
1783693619252930000,7.916929931640625,-0.13621698117256165,0.027226481632329522,-0.014623933962360024
1783693619262893300,7.926893310546875,-0.09971651177108287,0.008691803967021405,-0.02575578802525997
1783693619272855000,7.93685498046875,-0.05508651192784309,-0.011058934957161546,-0.045522126377373934
1783693619282818000,7.946818115234375,0.05079086056053638,-0.07330602269675582,-0.045448330488801
1783693619292780300,7.9567802734375,0.1307633919417858,-0.07949146986603736,-0.051955666556209326
1783693619302743300,7.966743408203125,0.10327040486037731,-0.044760421289876104,-0.024007409987971184
1783693619312705000,7.976705078125,0.0183779527336359,0.017821232166327534,0.029680267992615698
1783693619322668000,7.98666796875,-0.001651274338364601,0.03989599359128624,0.05415405338332056
1783693619332630300,7.99663037109375,0.033391397470235826,0.025043803831003606,0.08401734979264437
1783693619342593300,8.00659326171875,-0.0036772272080183026,0.015331424644589423,0.08160290906205774
1783693619352556300,8.016556396484376,-0.012105448335409164,0.0007845379738137126,0.046718861881271
1783693619362518000,8.02651806640625,0.051177229529619214,-0.03420019310247153,0.043238545484840865
1783693619372481000,8.03648095703125,0.08973112432956695,-0.05677172506842762,0.010145400308817625
1783693619382443300,8.046443359375,-0.03965571856200695,-0.015284370632469653,-0.005305851323157549
1783693619392406300,8.05640625,-0.16950725635588168,0.0029517624776810407,-0.02297434061318636
1783693619402368000,8.066367919921875,-0.19703531475067138,0.003356982277706265,-0.054245531059056516
1783693619412331000,8.0763310546875,-0.18121406076252458,0.024144370773248373,-0.049637818067893386
1783693619422293200,8.086293212890626,-0.19806524232029915,0.015823117151670157,-0.0076264032252132885
1783693619432256300,8.09625634765625,-0.1809656389594078,0.00873936943579465,0.003663856269791722
1783693619442218000,8.106218017578126,-0.07946341281533241,-0.02728939080070704,0.015276917978376148
1783693619452180700,8.1161806640625,0.011552490627765654,-0.06127882722932845,0.03415449079722166
1783693619462143000,8.12614306640625,0.010364157626032829,-0.04228091596644371,0.06407192854657769
1783693619472106000,8.13610595703125,0.006052139645814895,-0.02340005521196872,0.07028700366914271
1783693619482067700,8.146067626953124,0.043221302089095116,-0.02162478916775435,0.09385025008618832
1783693619492031000,8.156031005859376,0.03175006000399589,0.017271781590022146,0.11427921706549822
1783693619501994000,8.165993896484375,0.02511749012172222,0.023956666181422767,0.08676905965358019
1783693619511956000,8.1759560546875,0.041001287952065466,0.004053257446177304,0.05138181219100952
1783693619521918700,8.185918701171875,0.0488338812738657,-0.023329072334989903,0.010299714087694882
1783693619531881000,8.195880859375,0.012553776624798774,-0.020685462491028008,-0.02282017296478152
1783693619541844000,8.205843994140626,-0.005298106408119201,-0.02754975876994431,-0.03126680653169751
1783693619551806000,8.215805908203125,-0.021650106272101403,-0.03722578800134361,-0.03356982277706265
1783693619561768700,8.225768798828126,-0.07392039173543453,-0.04840129854287952,-0.02262362747937441
1783693619571731000,8.23573095703125,-0.10265899496376514,-0.02177376918438822,0.005419248569756746
1783693619581694000,8.24569384765625,-0.08696633579134941,-0.022108261835761367,0.03494491052255034
1783693619591656000,8.255656005859375,-0.10041793803870677,0.023763445164263246,0.06939933411441743
1783693619601618700,8.26561865234375,-0.17564239811003207,0.05716116277743131,0.10032653342820703
1783693619611581000,8.275580810546876,-0.19134324058890342,0.04321925626248121,0.11428082450069486
1783693619621544000,8.2855439453125,-0.18554302987754343,0.025462431101873517,0.10077230443432926
1783693619631507000,8.2955068359375,-0.1459521932452917,0.01483359465766698,0.05811681953445077
1783693619641468700,8.30546875,-0.08167875077724457,-0.008750986808352172,0.04364961050376296
1783693619651431700,8.315431640625,-0.032978140494227405,-0.03151778561808169,0.029294848871603607
1783693619661394000,8.325393798828125,0.019189853638410567,-0.032558234581723806,0.009431114559620618
1783693619671357000,8.33535693359375,0.08127893780469894,-0.036493053280003365,0.003802241827175021
1783693619681318700,8.345318603515626,0.1032967083454132,-0.030804522782191632,0.021598814476281404
1783693619691282000,8.355281982421875,0.0945569370508194,0.005448218935914338,0.009758008426427841
1783693619701244000,8.365243896484374,0.11342822625935077,0.013235475278645752,0.012365706706792115
1783693619711207000,8.37520703125,0.11006021113097667,0.024011538173817095,0.013877353378757834
1783693619721168600,8.385168701171875,0.0809931066006422,0.03062094637621194,0.0037540918365120885
1783693619731132000,8.3951318359375,0.03712298521399498,0.022255378688871858,-0.03559994036518037
1783693619741094000,8.405093994140625,-0.029761516535282133,0.009773534789122641,-0.046015316721796984
1783693619751057000,8.415056884765624,-0.07552607336640357,0.0031042861582711335,-0.03832607739344239
1783693619761019000,8.425018798828125,-0.09120119688212872,0.01093286089207977,-0.04582826971709728
1783693619770982000,8.43498193359375,-0.09433306516706944,0.012228818986751138,-0.05055887843556702
1783693619780945000,8.44494482421875,-0.14045651843845844,0.0200717510394752,-0.033495515431836244
1783693619790907000,8.454906982421875,-0.13405892635583877,0.009715922850370406,-0.010696969776973127
1783693619800870000,8.464869873046876,-0.09090484428405761,-0.004335033529624343,0.02777626100219786
1783693619810832000,8.474831787109375,-0.08117430838644504,-0.00040949411634355783,0.04220160365253687
1783693619820795000,8.484794921875,-0.06996727019548415,0.013786752485856413,0.0596110036149621
1783693619830756900,8.4947568359375,-0.022898645028471946,-0.02255626133158803,0.06400324722453951
1783693619840720000,8.504719970703125,-0.0230225636690855,-0.018565255466662347,0.0510907202899456
1783693619850681900,8.514681884765626,-0.03388414942324161,-0.00022580811250954864,0.02132445451430976
1783693619860644900,8.524644775390625,-0.01326630880832672,0.011343706715293228,0.023253157554566858
1783693619870606800,8.53460693359375,-0.010313888743519782,0.01677285562455654,0.012600246115028857
1783693619880569900,8.54456982421875,0.027816812208294867,0.029946627311222253,0.0012867518749088047
1783693619890531800,8.55453173828125,0.012851882788538932,0.0039119492793455715,-0.0050385786890983575
1783693619900494800,8.564494873046876,-0.022181436669826506,-0.001040412431024015,0.030599720925092694
1783693619910456800,8.574456787109375,-0.08430793023705482,0.000781030842475593,-0.011124547539278865
1783693619920419800,8.584419921875,-0.12291034035384654,0.014229162491112947,-0.020195231288671494
1783693619930382800,8.5943828125,-0.12411562449038029,-0.0035754838665947317,-0.02079232039898634
1783693619940344800,8.6043447265625,-0.07327858670055866,-0.02318714311365038,-0.02594407713897526
1783693619950307800,8.614307861328125,-0.017788170146942138,-0.011681487302295863,-0.03450980704091489
1783693619960269800,8.624269775390625,0.05030512287020683,0.007045278869010508,0.0018201280992478132
1783693619970233000,8.634233154296876,0.06303016440868377,0.016623839075304566,0.04094853485152125
1783693619980194800,8.64419482421875,0.003143558722734451,0.08849328963030129,0.07135945520624518
1783693619990157800,8.65415771484375,-0.041649522727727886,0.08549582484737038,0.07547770418003201
1783693620000119800,8.664119873046875,-0.07568038714528083,0.06740260733924806,0.049997445160523055
1783693620010083000,8.6740830078125,-0.09805296247303485,0.04077752566616982,-0.004133154281973838
1783693620020044800,8.684044921875,-0.114843353754282,0.003443345386907458,-0.05100559928975999
1783693620030007800,8.6940078125,-0.06231646318137645,-0.04888338297139853,-0.05735730640403926
1783693620039970000,8.703969970703126,0.021981530183553696,-0.05631444628760218,-0.04239712622463703
1783693620049933000,8.71393310546875,0.10015607223212718,-0.06374342724457382,-0.023571064397320148
1783693620059894800,8.723894775390624,0.06891863792538643,-0.028293087950535117,0.014897344076260923
1783693620069857800,8.73385791015625,-0.003686579558253288,0.050336029465124006,0.056279813365638254
1783693620079820800,8.74382080078125,-0.08798340387940407,0.06620926936883478,0.08770984763503074
1783693620089783000,8.753782958984376,-0.14013035522401332,0.06077237554453313,0.07721110384389758
1783693620099745800,8.763745849609375,-0.15385259110629557,0.032474721016734834,0.06816694277524948
1783693620109707800,8.773707763671876,-0.1566664794832468,0.019089169742912054,0.04319514473453164
1783693620119670800,8.7836708984375,-0.16369301711916923,-0.011751702994294464,0.006356894746050238
1783693620129633000,8.793633056640624,-0.14069149623811245,-0.019610672866366804,0.010596212816238402
1783693620139596000,8.803595947265626,-0.08794774804413318,-0.016999796248227356,0.02019303933158517
1783693620149557800,8.813557861328125,-0.05988660568594932,0.0007842091802507639,0.03283201002180576
1783693620159520800,8.823520751953126,-0.043932080706954,0.012249898307397962,0.041700960654020305
1783693620169483000,8.83348291015625,0.001678162345290184,0.03663417878374457,0.05022117091380059
1783693620179446000,8.843446044921874,0.08997077830433844,0.02397131576128304,0.07666596411652862
1783693620189407700,8.85340771484375,0.1376215872734785,0.010605199840292333,0.08705467166192829
1783693620199370800,8.863370849609375,0.1629062506556511,0.0204545032793656,0.05907580075971782
1783693620209333000,8.8733330078125,0.15158815330564976,0.028679018528200685,0.02636040285490453
1783693620219296000,8.8832958984375,0.11875438971817492,0.03831957458741963,0.024578195613250135
1783693620229258800,8.8932587890625,0.03998831151723861,0.05032240279857069,0.012822802824527024
1783693620239220700,8.903220703125,-0.032146365845203397,0.01626296987365931,-0.022714155307039616
1783693620249184000,8.91318408203125,-0.0552080924808979,-0.024143530523031947,-0.054038391114398836
1783693620259146000,8.92314599609375,-0.11809914067983626,-0.034148316784761844,-0.05451937956437468
1783693620269108700,8.933108642578125,-0.168430567035079,-0.031135873628407716,-0.023323154050856828
1783693620279071000,8.943071044921876,-0.16432722336947916,-0.03439571567457169,0.03391483682245016
1783693620289034000,8.953033935546875,-0.15758359432816504,-0.0011830357721075416,0.06444814144782722
1783693620298996000,8.962995849609374,-0.1508534092903137,0.02012877845633775,0.10569083694033324
1783693620308958700,8.972958740234375,-0.13967150554060936,0.04022833081819117,0.14585406663306055
1783693620318921000,8.9829208984375,-0.11286650072336196,0.055247291980125006,0.15541187631227074
1783693620328884000,8.992884033203126,-0.08760814082622527,0.06757036512158811,0.12885923882089553
1783693620338846000,9.002845947265625,-0.01537117213308811,0.054164976636134086,0.08820333024039864
1783693620348808700,9.01280859375,0.02708557532429695,0.013409041747264563,0.05106054434739053
1783693620358771700,9.022771728515625,0.02917524107992649,0.022315365247800947,-0.015788593827560544
1783693620368734000,9.03273388671875,0.02864917137920856,0.009032251435145735,-0.07891505821757018
1783693620378697000,9.042697021484376,0.04389759391546249,-0.0375876070510596,-0.09826704361513257
1783693620388658700,9.05265869140625,0.043621699583530425,-0.03333937502205372,-0.11296740381456911
1783693620398621700,9.06262158203125,0.03488777350783348,0.004116130081936717,-0.10705438037849963
1783693620408584000,9.072583984375,0.00821954681277275,0.026562866624444723,-0.03415376014485955
1783693620418547000,9.082546875,-0.008136544704437256,0.0447401456868276,0.003412365726754069
1783693620428508700,9.0925087890625,-0.06714052233695983,0.06997260395772754,0.046369244726002214
1783693620438471700,9.1024716796875,-0.07262099957466125,0.036453561519831416,0.062469315655529496
1783693620448433700,9.11243359375,-0.09269348126649855,0.020366678865440187,0.06273629602864385
1783693620458396700,9.122396728515625,-0.16670739650428293,0.03127696259953081,0.04105674446634948
1783693620468358400,9.1323583984375,-0.18971183999478816,0.027625052495859562,0.008293342701345682
1783693620478321700,9.14232177734375,-0.1554559346497059,0.005984590834937989,0.025897388453036546
1783693620488283600,9.15228369140625,-0.1285714348554611,0.021271043826639652,0.025652985237911343
1783693620498246700,9.16224658203125,-0.10735855095684528,0.01183254967816174,-0.004776493686810135
1783693620508209700,9.172209716796875,-0.04105857109725475,-0.006107230833917856,0.01630392293855548
1783693620518171600,9.182171630859376,0.03272504251599312,-0.022009294973313807,0.014405907297506928
1783693620528134700,9.192134765625,0.1165817218542099,-0.03381236282866448,0.029645196679234504
1783693620538096600,9.2020966796875,0.13990414525270461,-0.00876413855087012,0.028429756474867462
1783693620548059600,9.2120595703125,0.14603636439740658,0.007088496956229209,0.045428529809787864
1783693620558021600,9.222021728515625,0.12003390813469886,0.02217391095049679,0.05026091840229928
1783693620567984600,9.231984619140626,0.060084174084663385,0.03262048616297543,0.049819823571294546
1783693620577946600,9.241946533203125,-0.036298224827647205,0.015319661141559481,0.0376388988468796
1783693620587909600,9.25190966796875,-0.128558575373888,0.02665101983193308,-0.013597002067416906
1783693620597871600,9.26187158203125,-0.20648761822879313,0.014662000950425863,-0.06023403088413178
1783693620607834600,9.271834716796874,-0.2531523387700319,0.009018040246702731,-0.08393113281391561
1783693620617796600,9.281796630859375,-0.255052619433403,-0.004166362431831658,-0.09859021115489304
1783693620627759600,9.291759521484375,-0.259327228012681,0.01600515918768942,-0.09415032901130616
1783693620637721600,9.3017216796875,-0.1924023942530155,0.031359197522886094,-0.06251914614662528
1783693620647684600,9.3116845703125,-0.1152133561104536,0.02002327225524932,-0.005810512909665703
1783693620657646600,9.321646484375,-0.05438625470399856,0.03244648130293935,0.034139000967144964
1783693620667609600,9.331609619140625,-0.01498480316400528,0.027190935394912956,0.07048486432880163
1783693620677572600,9.341572509765625,0.05688800839185714,0.023321692746132612,0.09671331136710941
1783693620687534600,9.35153466796875,0.12530921818912027,0.022562508409284053,0.11447174396291375
1783693620697497600,9.36149755859375,0.141529700627923,0.04300495592467487,0.1082133411552757
1783693620707459600,9.37145947265625,0.11754150679707527,0.04347805332913995,0.09072481154203414
1783693620717422800,9.3814228515625,0.10144026682376861,0.018000534255988895,0.06388276265002786
1783693620727384600,9.391384521484374,0.09294131854772567,-0.022410423120111225,0.028958091197907924
1783693620737347600,9.40134765625,0.0964870283305645,-0.03359276526123285,-0.01896364366710186
1783693620747309600,9.4113095703125,0.09662322193086147,-0.041446255240589376,-0.014656813318654894
1783693620757272800,9.42127294921875,0.04906359837651252,-0.046941783916950225,-0.01881196023672819
1783693620767234600,9.431234619140625,-0.02770516852736473,-0.03249390064124018,-0.01735971560180187
1783693620777197600,9.441197509765624,-0.14000234493017197,-0.008772687183506786,-0.006547083555907011
1783693620787159800,9.451159912109375,-0.24186580560207366,0.04404503956213593,0.013122078032046555
1783693620797122800,9.461122802734375,-0.29569267285764217,0.05032222013548016,0.01800941168218851
1783693620807084500,9.47108447265625,-0.25980887404978276,0.029265586244501172,0.02522657651938498
1783693620817047600,9.481047607421875,-0.22087971619665622,0.008567629598081111,0.02495243575312197
1783693620827010600,9.491010498046874,-0.14024784412384034,-0.003417224564962089,0.030496772007271647
1783693620836972800,9.500972900390625,-0.03596972352564334,-0.010479929492808878,0.027363588548079132
1783693620846935600,9.510935546875,0.052121816903352734,-0.02172171020358801,0.02795724359229207
1783693620856897500,9.5208974609375,0.10880524263381958,0.0060800870986655355,0.04275258859880268
1783693620866860500,9.530860595703125,0.13581424559056757,0.045160234262421724,0.06384601083621383
1783693620876822800,9.54082275390625,0.1371773506373167,0.05240775770526379,0.0714642307549715
1783693620886785500,9.55078564453125,0.10387187788486481,0.057034431125223634,0.09314305166490375
1783693620896747500,9.56074755859375,0.06937456499934196,0.019180318625085055,0.054612830001488324
1783693620906710500,9.57071044921875,0.004093406793475151,0.0006915259281173348,-0.010209478520974516
1783693620916672800,9.5806728515625,-0.04673018699288368,-0.04234313101507723,-0.05082717398293316
1783693620926635500,9.590635498046876,-0.03483984271287918,-0.062295055067166684,-0.06759608408473432
1783693620936597500,9.600597412109375,-0.03783610191941261,-0.06253606074880808,-0.07231456397399307
1783693620946560500,9.610560546875,-0.09282207608222962,-0.012979783484525978,-0.030861659796908497
1783693620956522800,9.620522705078125,-0.139778473046422,0.024429617455415425,0.029823841181769964
1783693620966485500,9.630485595703124,-0.13923720577657223,0.02035385591648519,0.04059592202156782
1783693620976448500,9.640448486328125,-0.15159984374344349,0.04116502714641392,0.0389917747605592
1783693620986410500,9.650410400390625,-0.15853753405213356,0.04945263422671705,0.023449922235682607
1783693620996373800,9.660373779296876,-0.11517653123140334,0.03685052494816482,0.02113331585638225
1783693621006335700,9.670335693359375,-0.06150806940793991,0.06485920646674931,0.026570246213302014
1783693621016298500,9.680298583984374,-0.023234160593152045,0.04994805306084454,0.018530878273025155
1783693621026260700,9.6902607421875,0.04487374547123909,-0.005168123352900147,-0.01844261546768248
1783693621036223700,9.7002236328125,0.05923369473516941,-0.020885040183737873,-0.12843772547319532
1783693621046185700,9.710185791015626,0.011791560080647467,-0.07933266257513313,-0.03269077492021024
1783693621056148500,9.7201484375,0.06874269683659076,-0.024693382958136497,0.03118877285942435
1783693621066110700,9.73011083984375,0.06425590681135654,0.016626944347843526,0.02252082469202578
1783693621076073700,9.74007373046875,0.014520108261704445,0.007730338523723184,0.026551614578068254
1783693621086035700,9.75003564453125,0.033820436537265776,-0.014977021716348826,0.02586480135768652
1783693621095998500,9.75999853515625,0.033924481433629985,-0.02394669277667999,0.025119024491682646
1783693621105960700,9.769960693359375,-0.0051864627271890635,-0.02217288803718984,0.012932327613607048
1783693621115923700,9.779923828125,-0.033389059382677076,0.015474413311854004,0.009018076779320835
1783693621125885700,9.7898857421875,-0.11663315978050232,0.03112381786443293,0.024532822101563215
1783693621135848400,9.799848388671874,-0.19277941087186334,0.044513168530538674,0.03928462022729218
1783693621145811500,9.8098115234375,-0.2210422132819891,0.04491152019836008,-0.0029741204399615522
1783693621155773700,9.819773681640624,-0.21284780091047287,0.003995572442188859,0.01577500369362533
1783693621165736700,9.82973681640625,-0.18828326849639415,-0.0048055371182039374,-0.01740574670061469
1783693621175698400,9.839698486328125,-0.19380290870070457,-0.02558689773175865,-0.05821436162479222
1783693621185661400,9.849661376953126,-0.11493570821285247,-0.06511219484712928,0.004365793994069099
1783693621195623700,9.859623779296875,-0.033864860200881954,-0.03000102437958121,0.05366860795393586
1783693621205586700,9.869586669921874,0.06278817234635353,0.0020782310461625454,0.08059037101864815
1783693621215548400,9.87954833984375,0.13417758429944515,0.042945809615962206,0.13141352641358972
1783693621225511400,9.889511474609375,0.13689678013026713,0.05676646437142044,0.12439137269183993
1783693621235473700,9.8994736328125,0.10707681140601634,0.060223180696554475,0.07555398428663611
1783693621245436700,9.909436767578125,0.08306523669958114,0.04236768093444407,0.002179901322349906
1783693621255398400,9.9193984375,0.020536592072248457,-0.004339600106887519,-0.06685293756723404
1783693621265361700,9.929361572265625,-0.04359714966416359,-0.018708645992726085,-0.08497443132176995
1783693621275323600,9.93932373046875,-0.03647942661345005,-0.022450462869554755,-0.12765621970668434
1783693621285286700,9.94928662109375,-0.013186229309439659,-0.03862432968765497,-0.16189276276417075
1783693621295249700,9.959249755859375,0.004967267018556595,-0.06396784711759537,-0.0726253834888339
1783693621305211600,9.969211669921876,0.008227145597338677,-0.010202610388770699,-0.015814824247360228
1783693621315174700,9.979174560546875,-0.054065936708450314,0.01481631472930312,0.038068303240090605
1783693621325136600,9.98913671875,-0.10497370164692402,0.005490925566479564,0.03383775299824774
1783693621335099600,9.999099609375,-0.18884324046671389,-0.0038451676534488797,0.013165478782355784
1783693621345061600,10.0090615234375,-0.259101602563262,0.007863317253626883,0.0013683657437562943
1783693621355024600,10.019024658203126,-0.21777181330919265,-0.003667144205421209,0.028272958477959034
1783693621364986600,10.028986572265625,-0.15346739118099212,-0.007816957361251115,0.05106310163065791
1783693621374949600,10.03894970703125,-0.09427928915321826,-0.02430124183539301,0.06331687239557504
1783693621384911600,10.04891162109375,-0.017512860336899756,-0.05077840293776244,0.09482450194582343
1783693621394874600,10.05887451171875,0.02609948689639568,-0.025603045148961244,0.10282792178988456
1783693621404836600,10.068836669921875,-0.004857961425185203,0.0017787001103162765,0.08091653423309325
1783693621414799600,10.078799560546875,-0.0403068759471178,0.02771791841108352,0.08802132473699747
1783693621424761600,10.08876171875,-0.06325871246755123,0.0576869767498225,0.06873487885631621
1783693621434724600,10.098724609375,-0.06421148314774036,0.05493380558416247,0.0015535130523145198
1783693621444686600,10.1086865234375,0.02915770542323589,0.014994959231838583,0.008645955531299114
1783693621454649900,10.11864990234375,0.07727379381656646,0.003467566512711346,0.012818345845118165
1783693621464612900,10.12861279296875,0.10501169556975364,-0.0029051468569785354,-0.0002623041979968548
1783693621474574800,10.138574951171876,0.1070090068668127,-0.037032566984184084,0.0010411796160042285
1783693621484537900,10.148537841796875,0.04378478119075298,-0.024836956147290763,-0.03366846084594726
1783693621494499800,10.158499755859374,-0.0458405446767807,-0.024937895771116016,-0.04609378878548741
1783693621504462800,10.168462890625,-0.08420797699391841,-0.04127400394622236,-0.037090909575298425
1783693621514424800,10.1784248046875,-0.08004793470501899,-0.037155097385309636,-0.060081470670923585
1783693621524387800,10.188387939453126,-0.060305707880854605,-0.057919908722862595,-0.02548062434569001
1783693621534349800,10.198349853515625,-0.03518646419346332,0.011220591792277992,0.07411927530840039
1783693621544312800,10.208312744140626,-0.04395896871387958,0.02500697895195335,0.07039696684964
1783693621554274800,10.21827490234375,-0.09348726199269294,0.04145633824318647,0.05200315895974636
1783693621564237800,10.22823779296875,-0.12096797411441802,0.08299728602990508,0.09582396131195127
1783693621574199800,10.23819970703125,-0.15697043086588383,0.09824179957602172,0.08306867076568306
1783693621584163000,10.2481630859375,-0.10991875683367251,0.07311309394054115,0.08244608188793062
1783693621594124800,10.258124755859376,-0.09762509244978428,0.06617850890439003,0.053557475729659194
1783693621604087800,10.268087890625,-0.07512275326251983,0.013122662553936243,0.002885200047492981
1783693621614050800,10.27805078125,-0.02774608505964279,-0.04204615736249834,-0.07710399020761251
1783693621624013000,10.288012939453125,-0.0052139352560043335,-0.07557173913903534,-0.10384835087880491
1783693621633976000,10.29797607421875,0.010772153905034065,-0.07581055286359041,-0.09228490046560764
1783693621643937800,10.307937744140625,-0.021567688685655593,-0.02403378653824329,-0.03975537954419851
1783693621653900800,10.31790087890625,-0.024450550645589826,0.01367244192380458,0.045459801730886096
1783693621663863000,10.327863037109376,0.015813070681691167,0.02401102671716362,0.09689597445763647
1783693621673826000,10.337825927734375,0.045830607804656025,0.03233439923059195,0.03573642622642219
1783693621683787800,10.347787841796874,0.03172667912840843,0.020532463886402546,0.019404227041453122
1783693621693750800,10.357750732421875,0.12458674913346766,0.03257365134656429,0.14055574102923274
1783693621703713000,10.367713134765625,0.1281704528391361,0.041731648053228855,0.17505225019715726
1783693621713676000,10.377676025390626,0.016108254235982895,0.047496531722880896,0.042294469567760826
1783693621723637800,10.3876376953125,-0.10039572620689868,0.04329104285705834,-0.014012962457165122
1783693621733600800,10.397600830078124,-0.1973299137830734,0.046506132446043194,-0.03793583596684039
1783693621743563000,10.40756298828125,-0.2582382637321949,0.02748564402516931,-0.09468260925710201
1783693621753526000,10.417526123046875,-0.23790917693078517,0.007075418278947472,-0.12064699853174388
1783693621763487700,10.42748779296875,-0.1824433102965355,-0.0002466317048296332,-0.09106704910844564
1783693621773450800,10.43745068359375,-0.09406126248836517,-0.0028434432649984956,-0.05262604009844363
1783693621783413800,10.447413818359376,-0.02524433137178421,0.03757792590726167,-0.014664704364165664
1783693621793376000,10.4573759765625,0.013045944055914879,0.06032623921222984,0.026267683070152998
1783693621803339000,10.467339111328124,0.05182078813016414,0.0994095281811431,0.13473646029122174
1783693621813300700,10.47730078125,-0.03520399985015392,0.12236552942004054,0.1471343157019466
1783693621823264000,10.487263916015625,-0.13582009080946444,0.1369559629715979,0.10944719379916787
1783693621833226000,10.49722607421875,-0.14462299046814442,0.10062431079838424,0.07793357289955019
1783693621843189000,10.50718896484375,-0.09592997896969317,0.009882767317257821,0.03612644845731556
1783693621853150700,10.517150634765626,-0.07580898196101188,-0.05306044946033507,-0.014831512298434973
1783693621863114000,10.527114013671875,0.0017015432208776474,-0.07942655140366404,-0.0805496006168425
1783693621873076000,10.537075927734374,0.10365911191701889,-0.08976667056698352,-0.07522226811423897
1783693621883039000,10.5470390625,0.16374737765491007,-0.047240182341635226,-0.038865444967150685
1783693621893001000,10.5570009765625,0.2050637229055166,0.03589943476840853,0.05477152769453823
1783693621902964000,10.5669638671875,0.2274725385904312,0.10155114331971854,0.10468582461625336
1783693621912926000,10.576926025390625,0.1736854188233614,0.1282351155731827,0.028850758365914223
1783693621922889000,10.586888916015624,0.1065472345739603,0.12808423586040735,-0.031234511697292328
1783693621932851000,10.596850830078125,0.0839385124027729,0.09696323100756853,0.07601824079751968
1783693621942814000,10.60681396484375,0.2069032132923603,0.10881481417976319,0.1324625240098685
1783693621952777000,10.61677685546875,0.09159633367955684,0.13616368008274585,0.07605784215554595
1783693621962739000,10.626739013671875,0.11662439195215701,0.010168306260369717,0.21483773261867462
1783693621972702000,10.636701904296874,-0.28980712195038794,-0.07068520920649171,-0.05718099998906254
1783693621982664000,10.646663818359375,-0.6595376754432917,-0.095523042136617,-0.2910036382585764
1783693621992627000,10.656626953125,-0.7864666037887335,-0.09975099856257438,-0.2630613730397075
1783693622002589000,10.6665888671875,-0.7632523169398308,-0.16438567555844782,-0.26089791139550506
1783693622012552000,10.676552001953125,-1.0017857632488012,-0.053422853031940755,-0.3704188280180096
1783693622022514000,10.686513916015626,-1.1454752722591162,0.07586253877915441,-0.25944632434770465
1783693622032477000,10.696476806640625,-1.018060021701455,0.15749587951209396,-0.18949366719946265
1783693622042439000,10.70643896484375,-0.7131985384821892,0.2915215246528387,0.009269567322358488
1783693622052402000,10.71640185546875,-0.34930209797024725,0.16290321844834835,0.2528552555195987
