time,seconds_elapsed,z,y,x
1783693659266281500,0.064281494140625,0.28027707706093785,0.010689663253352046,0.16443587137572466
1783693659276244500,0.074244384765625,0.37688977759778497,0.008819777728244662,0.10401318605169653
1783693659286206500,0.08420654296875,0.4257300886124372,-0.004826031916961074,0.008981251900270581
1783693659296169200,0.094169189453125,0.4074818997383117,-0.03909830387495458,-0.05255180581845343
1783693659306131500,0.10413134765625,0.2948708350807428,-0.027805998553335664,-0.06730206957422197
1783693659316093400,0.114093505859375,0.17693419148623943,-0.00455313325971365,-0.10111388441361487
1783693659326056400,0.124056396484375,0.06845277397930621,0.017125468454509973,-0.07728964897282421
1783693659336018400,0.134018310546875,0.036706221106648444,0.03298701792042702,-0.0437822239074856
1783693659345981400,0.1439814453125,0.02878302689194679,0.006686272830888629,-0.01708952035829425
1783693659355943400,0.153943359375,0.006465981143712997,-0.023529965201951563,-0.016609116430208085
1783693659365906400,0.163906494140625,0.04136252247989178,-0.045318566629290576,-0.017163827703520654
1783693659375868400,0.173868408203125,-0.03577507773637771,-0.039811310982517896,0.030938889751583334
1783693659385831400,0.18383154296875,-0.12433131306767463,0.0310885273553431,0.06318791225366294
1783693659395793400,0.19379345703125,-0.17103227396607398,0.08156305197570472,0.09019260436147451
1783693659405756400,0.20375634765625,-0.250893746188283,0.0839344572821632,0.07638269019573926
1783693659415718400,0.213718505859375,-0.35278234130144115,0.08631930659208446,0.006137625972181558
1783693659425681400,0.223681396484375,-0.41006782457828517,0.06379055432192982,-0.03859736861549318
1783693659435643400,0.233643310546875,-0.3712590782344341,-0.0001505143865942955,-0.07172500058300793
1783693659445606400,0.2436064453125,-0.30649989807605743,-0.027443046992458402,-0.049531508149206635
1783693659455568400,0.253568359375,-0.2162140624731779,-0.041738333522342144,-0.018550678952038286
1783693659465531400,0.263531494140625,-0.126572369992733,-0.023501835086010395,0.04686433476656675
1783693659475493400,0.273493408203125,-0.030986089894175527,0.005946560379490256,0.08658698108494281
1783693659485456400,0.283456298828125,0.03463759813904762,0.02245400653351098,0.1419637081310153
1783693659495419000,0.2934189453125,0.0811591108173132,0.02349303072504699,0.13968005417324603
1783693659505381600,0.303381591796875,0.15469313358366488,0.022587971644103526,0.14883848927132784
1783693659515343600,0.313343505859375,0.16637772615849972,0.03531491287872195,0.08499335521794855
1783693659525306600,0.323306640625,0.18118951084315776,0.024960472929105162,0.0471529424495995
1783693659535268900,0.333268798828125,0.1869827072918415,0.03721307465024292,0.027679084238037464
1783693659545231600,0.343231689453125,0.13210253159105778,0.029549481219798324,-0.03834712018147111
1783693659555193600,0.353193603515625,0.03706628659069538,0.05562894824147224,-0.10914653035216033
1783693659565156600,0.363156494140625,-0.05281739795207977,0.05086093012206256,-0.15361410617530344
1783693659575118800,0.373118896484375,-0.11572656632959842,0.011184826359152793,-0.20146379871740935
1783693659585081600,0.38308154296875,-0.14362287351489067,-0.004886237671598792,-0.22863654086850582
1783693659595043600,0.393043701171875,-0.12069266430437564,-0.025806129973009226,-0.16552454339526593
1783693659605005800,0.403005859375,-0.06895195567309856,-0.044624227689579125,-0.08309965042583643
1783693659614968800,0.41296875,0.0075993690878152845,-0.05624050426855683,-0.019998320477083324
1783693659624930600,0.4229306640625,0.049556350329518314,-0.06525850798264146,0.0609780541844666
1783693659634893600,0.4328935546875,0.06577215659320354,-0.027915523342415687,0.12897380511127413
1783693659644855800,0.442855712890625,0.023638065218925475,0.015452201480045913,0.1639960186537355
1783693659654818800,0.45281884765625,-0.023146482309699058,0.030705519387125967,0.19716953558959066
1783693659664780500,0.462780517578125,-0.10853051734566688,0.027964988507330417,0.17473229752779007
1783693659674743600,0.47274365234375,-0.14720248556733131,0.026030732509121298,0.13841902126148342
1783693659684705800,0.482705810546875,-0.13468611834347247,0.004088438357412815,0.09106251906380057
1783693659694668800,0.492668701171875,-0.06946516589224339,-0.020611703135073184,0.04404438197501003
1783693659704630500,0.502630615234375,0.008771919998526573,-0.04473251036964357,0.014250059148669243
1783693659714593500,0.512593505859375,0.06137070676386356,-0.05482384240366518,-0.008609569043666124
1783693659724555800,0.5225556640625,-0.03693126203417778,0.010725246023386717,0.0006401975996792316
1783693659734518800,0.532518798828125,-0.19695348168611526,0.08467216043956577,-0.015773030932247637
1783693659744480500,0.54248046875,-0.331648367857933,0.09042765522636473,-0.012078779524192213
1783693659754443500,0.552443603515625,-0.4000824371367693,0.0992097312927246,-0.030222996567189693
1783693659764405800,0.56240576171875,-0.3584931201636791,0.0789267486553639,-0.04197817016020417
1783693659774368800,0.57236865234375,-0.24483400775790212,0.04450096663609147,-0.015887451092153785
1783693659784330500,0.58233056640625,-0.0812678318887949,0.026312910451367497,0.003657645724713802
1783693659794293800,0.592293701171875,-0.03367430606484413,-0.0064312020912766455,-0.007361687874421477
1783693659804255700,0.602255859375,-0.106861122828722,0.014182254609465598,-0.04493818900957703
1783693659814218800,0.61221875,-0.1418213770508766,0.05930252218768,-0.11813223923183977
1783693659824180500,0.622180419921875,0.0807055218309164,0.040181057610362766,-0.06434446187764406
1783693659834143700,0.632143798828125,0.32010990575551984,-0.05060235225111246,0.0958430313386023
1783693659844105700,0.642105712890625,0.37775077834129334,-0.08564604697301983,0.11943075460977852
1783693659854068700,0.65206884765625,0.2832546315670013,-0.013550021120533346,0.07022102576084435
1783693659864030700,0.66203076171875,0.2034007581293583,-0.008983955314010382,0.05282390075810253
1783693659873993700,0.67199365234375,0.17690262730419634,0.007513225174322724,0.09142353439591824
1783693659883955700,0.681955810546875,0.1292161624997854,0.027479689208418128,0.0776588476113975
1783693659893917700,0.691917724609375,0.10121113424301147,0.03657097735442221,0.06207016027010977
1783693659903880700,0.701880615234375,0.079324296605587,0.021805662159994244,0.07289557873234152
1783693659913842700,0.7118427734375,0.015203998872637748,0.015664236795529723,0.05054974528104066
1783693659923805700,0.7218056640625,-0.10774316636025905,0.009540054826810956,0.021534297872707248
1783693659933767700,0.731767578125,-0.2096604030460119,-0.00045841129198670384,-0.025693098052591085
1783693659943730700,0.741730712890625,-0.24826339768469333,-0.0014390198271721601,-0.03072955784983933
1783693659953692700,0.751692626953125,-0.2899626047730446,-0.008259951888397336,-0.026826266800984738
1783693659963655700,0.76165576171875,-0.29969255614876744,0.017642405000701546,-0.031657997806370256
1783693659973618000,0.771617919921875,-0.2717997560948133,0.004292728757858276,-0.0032256109829992053
1783693659983580700,0.78158056640625,-0.18147417300343513,-0.00039542905837297435,0.04794058569595217
1783693659993542700,0.791542724609375,-0.08208031731545924,-0.0051535103056579825,0.052050870558992025
1783693660003505700,0.801505615234375,-0.0034901802033185957,0.002886807482689619,0.06509717994108796
1783693660013468000,0.811468017578125,0.01598725820481777,0.02354614915177226,0.09311623672321438
1783693660023430700,0.8214306640625,0.02800795086622238,0.05991195932291448,0.06970949604213238
1783693660033392600,0.831392578125,0.010910685592889786,0.10183883768729865,0.0840073398552835
1783693660043355600,0.841355712890625,-0.02574351306557655,0.11857435697615146,0.0766002784691751
1783693660053318000,0.85131787109375,-0.027392449316382406,0.0777668380305171,0.03929652986079454
1783693660063280600,0.86128076171875,-0.018829203632473944,0.043492374115437264,-0.001709872657805681
1783693660073242600,0.87124267578125,0.018107319098711012,-0.0252105021674186,-0.030718744194880125
1783693660083205600,0.88120556640625,0.07026479183733463,-0.08822247333228588,-0.08566957397907972
1783693660093167900,0.89116796875,0.13883154758512972,-0.09214300777688622,-0.06838540783151983
1783693660103130600,0.901130615234375,0.21951836471557615,-0.08332944059371948,-0.026920009499043225
1783693660113092600,0.911092529296875,0.2930231613874435,-0.0503494734685868,0.0476234825707972
1783693660123055600,0.9210556640625,0.26605975113809105,0.012444178770482539,0.1335452777452767
1783693660133017900,0.931017822265625,0.1108732810795307,0.08127484615147114,0.22440664821378886
1783693660142980600,0.940980712890625,-0.028484920728206634,0.10272986824288964,0.2144426688864827
1783693660152942600,0.950942626953125,-0.08666413797438144,0.06437668364681304,0.17713102923259139
1783693660162905600,0.960905517578125,-0.12266951733529567,0.017433511490374802,0.10195143121629953
1783693660172867800,0.970867919921875,-0.23900047929883003,0.03869366859681904,0.043766441816464066
1783693660182830600,0.98083056640625,-0.3516875318020582,0.043534021300077434,-0.025033538165315984
1783693660192792600,0.99079248046875,-0.35149522410035133,0.014468231943994759,-0.04968187640532851
1783693660202754800,1.0007548828125,-0.25148586686253543,-0.026169994849339125,-0.0839323749229312
1783693660212717800,1.0107177734375,-0.2012824508011341,-0.012227832606062292,-0.06982508524581789
1783693660222679600,1.020679443359375,-0.18495090920329094,0.03658515201024711,-0.06321984176188707
1783693660232642600,1.030642578125,-0.12988134841024876,0.053658524951338764,-0.035230157204717394
1783693660242604800,1.040604736328125,0.005049100083112716,-0.0012415244936943054,0.01902224198654294
1783693660252567800,1.05056787109375,0.1073532902598381,-0.02677555952705443,0.004651259871944785
1783693660262529500,1.060529541015625,0.1250257250726223,-0.013956775290518999,0.04070829635486006
1783693660272492500,1.070492431640625,0.11228607048690319,0.03381846377588808,0.05550181473046541
1783693660282454800,1.080454833984375,0.06300853709876537,0.044527635447308415,0.03263473388403654
1783693660292417800,1.090417724609375,0.033902854123711586,0.03294182707183063,0.04393536864258349
1783693660302379500,1.100379638671875,0.06248480548560619,0.00878952872045338,0.027084040954336523
1783693660312342500,1.110342529296875,0.12341127561330795,-0.015922595470771194,0.03287161137983203
1783693660322304800,1.1203046875,0.13482757264077663,-0.02596263570897281,0.013420914848148823
1783693660332267800,1.130267822265625,0.10967618024945258,0.001701250959932804,0.021631839963048696
1783693660342229500,1.1402294921875,0.05405424627065658,-0.003607888298854232,0.0043042730651795865
1783693660352192800,1.15019287109375,-0.013409516671299934,0.010007745403796434,-0.015075038730725646
1783693660362154800,1.16015478515625,-0.11102759485840796,0.01911203916184604,-0.014293167638033628
1783693660372117800,1.17011767578125,-0.22338614605963228,0.03328179961591959,-0.017040420519560576
1783693660382079500,1.18007958984375,-0.27447861991524697,0.06707512895055115,-0.027356939611583947
1783693660392042800,1.190042724609375,-0.26877543983757496,0.04775010462515056,-0.013772870090976356
1783693660402004700,1.200004638671875,-0.17921324233412742,0.04912774965390563,0.02210552188940346
1783693660411967700,1.2099677734375,-0.08925123185813426,0.027927067649737,0.034004195606335996
1783693660421929500,1.219929443359375,-0.029658640682697295,0.004006166901439428,0.014488763275370001
1783693660431892700,1.229892822265625,0.041000703430175776,0.004756400746852159,0.050530748319625854
1783693660441854700,1.239854736328125,0.03875672389566898,0.019637012884020803,0.10204619682766497
1783693660451816700,1.249816650390625,-0.007913841864466666,0.06090118955597281,0.10978278242908418
1783693660461779700,1.25977978515625,-0.025767478463053703,0.07248743632286786,0.1080392266973853
1783693660471741700,1.26974169921875,0.007135843229293823,0.020938597001880405,0.09956490140594541
1783693660481704700,1.27970458984375,0.06400397787690162,-0.052218409145623444,0.046732305884733795
1783693660491666400,1.28966650390625,0.0995189433723688,-0.09547149461247026,-0.0038906507629901167
1783693660501629400,1.29962939453125,0.10559680198132991,-0.1030279744066298,-0.028450580067187547
1783693660511591200,1.309591064453125,0.019243045130372047,-0.050588615986704825,-0.0368200567446649
1783693660521554200,1.31955419921875,-0.09061492142677306,-0.0015693682085722684,-0.04073606114462018
1783693660531516400,1.329516357421875,-0.1680599801570177,0.03453377243839204,-0.020728315252065657
1783693660541479400,1.3394794921875,-0.21221242561638354,0.05863982049524784,-0.010268661362305283
1783693660551441200,1.349441162109375,-0.20386486850976943,0.06212240191400051,-0.00950586029626429
1783693660561404200,1.359404052734375,-0.13316753047406674,0.01839198125898838,-0.01751410244591534
1783693660571366400,1.369366455078125,-0.0820908387094736,-0.0014944763414561748,-0.01131502861008048
1783693660581329400,1.379329345703125,-0.03307517112791538,0.003354278863966465,0.014970336247235535
1783693660591291100,1.389291015625,0.024620646515488624,-0.022840996557101607,0.054724765943363306
1783693660601254100,1.399254150390625,0.05611702401936054,-0.020791808942332863,0.07329941029287874
1783693660611216400,1.40921630859375,0.05634907920956611,-0.022374913415312767,0.06842310949340462
1783693660621179400,1.419179443359375,0.05542670366764068,-0.05914082881994545,0.0575358047761023
1783693660631141000,1.42914111328125,0.02821370257139206,-0.038218160039559,0.054188247913867234
1783693660641104100,1.439104248046875,-0.06839315274655819,0.00849471049234271,0.03143324913978576
1783693660651066400,1.44906640625,-0.0966477718502283,0.004165814442560077,0.055310091550648206
1783693660661029400,1.459029296875,-0.049583238336443895,0.006756269327178597,0.08026793413124977
1783693660670991000,1.4689912109375,-0.09254559722840786,0.0190429194483906,0.05835822707489133
1783693660680954000,1.4789541015625,-0.15393150156140326,0.020375556291639802,0.02260879523642361
1783693660690916400,1.488916259765625,-0.12958967198729515,-0.005645750802010297,0.01844685325138271
1783693660700879400,1.49887939453125,-0.049174657535552974,-0.03363894249051809,0.033041999510675664
1783693660710841000,1.508841064453125,-0.07886720048785209,-0.02563479199409485,-0.010377747759968041
1783693660720803300,1.51880322265625,-0.11166063206493854,0.021253727365657685,-0.057758872942253944
1783693660730766300,1.528766357421875,-0.028787118545174597,0.008787409828603267,-0.03766293730959296
1783693660740728300,1.538728271484375,0.09491992514431476,0.0029852994211018082,0.013854337829351424
1783693660750691000,1.548691162109375,0.054260582497715946,0.0556030100826174,0.021434563825279473
1783693660760653300,1.5586533203125,-0.007550269249081611,0.06811097480431198,-0.006923588718101382
1783693660770616300,1.5686162109375,0.012329904741048812,0.017422332509234546,0.004764584053307771
1783693660780578300,1.578578369140625,0.04865151044428348,-0.01544832902252674,0.0327546339366585
1783693660790541000,1.588541015625,0.010220365241169928,-0.010839593118056655,-0.001123597202450037
1783693660800503300,1.59850341796875,-0.08246902437210082,0.02232712875083089,-0.01961640848740935
1783693660810466300,1.60846630859375,-0.10461071355342864,0.018931641093641517,-0.0013023147702217101
1783693660820428300,1.61842822265625,-0.1095318033427,0.0017150602895766496,0.022741408640146253
1783693660830391300,1.628391357421875,-0.12154606626331806,0.003549655305594206,-0.038136473105475306
1783693660840353300,1.638353271484375,-0.10632979243099688,-0.007642550642415881,-0.06711787211373448
1783693660850316300,1.64831640625,-0.055063715574145314,-0.035545360633730885,-0.039342341763898725
1783693660860278300,1.6582783203125,-0.030740006178617475,-0.03543386308327317,-0.0272810248311609
1783693660870241300,1.6682412109375,-0.0677653762370348,-0.009064254008606075,-0.024079306180402636
1783693660880203300,1.678203369140625,-0.10657938327789306,0.05002104523181915,0.0016026859562844036
1783693660890166300,1.688166259765625,-0.09393383671641349,0.05732230815589428,0.04642389752268791
1783693660900128300,1.698128173828125,-0.02894727754294872,0.038615781055018304,0.05511727239228785
1783693660910091300,1.70809130859375,0.012424597287178039,0.03669628423452377,0.04647277816571295
1783693660920053200,1.71805322265625,0.03199731276333332,0.03584770458117127,0.03228592044636607
1783693660930016300,1.728016357421875,0.047401802644133566,0.019137173603102565,0.04640365845225751
1783693660939978200,1.737978271484375,0.05248363595306873,0.002031067436188459,0.04982318457216024
1783693660949941200,1.747941162109375,0.018881810602545738,0.033343612805753944,0.01849690293818712
1783693660959903200,1.7579033203125,-0.011075520765781402,0.01596132004596293,0.012706629098951816
1783693660969865200,1.767865234375,-0.009873743760585784,-0.011379472148418427,0.022807751874625682
1783693660979828500,1.777828369140625,0.020110475614666938,-0.0339731428809464,0.010700842234492301
1783693660989790200,1.787790283203125,0.015871522870659828,-0.027199922418966887,0.02649710791185498
1783693660999753200,1.797753173828125,0.02214285822510719,-0.022106033346056937,0.039863150767609476
1783693661009715200,1.807715087890625,0.032461423143744464,-0.017223229740560054,0.04873663144446909
1783693661019678500,1.817678466796875,-0.009636427873373031,0.0184602972548455,0.06552154283300042
1783693661029640200,1.82764013671875,-0.06779810946285725,0.031284196057915686,0.06505860149636865
1783693661039603200,1.837603271484375,-0.10460486833453178,0.05676803527399897,0.04946399587094784
1783693661049565400,1.8475654296875,-0.11977613398134708,0.07250497197955846,0.07475538125485182
1783693661059528400,1.857528564453125,-0.12363690106272697,0.04674604214914143,0.06611863194331527
1783693661069490200,1.867490234375,-0.11119652168452739,0.025218100951984523,0.013978402600437402
1783693661079453200,1.877453125,-0.0845265414237976,-0.016099413342401385,-0.03309409502409398
1783693661089415400,1.88741552734375,-0.06218260766863823,-0.02786145506761968,-0.0505297254063189
1783693661099378400,1.89737841796875,-0.06279635565280914,-0.025443653336167334,-0.04059161117263138
1783693661109340200,1.907340087890625,0.00011690437793731689,-0.03426116604208946,-0.03314231807999313
1783693661119303200,1.91730322265625,0.07007306865751743,-0.04888378483019769,0.02750219330117106
1783693661129265400,1.927265380859375,0.08000526460707187,-0.020321268821135163,0.08397665245607495
1783693661139228400,1.937228515625,0.016135726764798162,0.015068901250883936,0.09733670396246015
1783693661149190100,1.947190185546875,-0.02323649868071079,0.003936535731330514,0.12830993437506258
1783693661159153200,1.957153076171875,-0.06204232241511345,0.025988793063536283,0.13844693218171597
1783693661169115400,1.967115478515625,-0.1367728614896536,0.02875124351419508,0.12177483351789414
1783693661179078400,1.977078369140625,-0.16020342143774033,0.043223128720000385,0.09255516877435148
1783693661189040000,1.9870400390625,-0.1167950723439455,0.02162672539651394,0.08043649563118815
1783693661199002400,1.99700244140625,-0.07863222268819808,-0.00567965307161212,0.0549022414021194
1783693661208965400,2.00696533203125,-0.052422261154651636,-0.031800109690800306,0.03204232094883919
1783693661218927400,2.01692724609375,-0.0618090981811285,-0.026845409892871975,-0.006461597229540348
1783693661228890000,2.02689013671875,-0.03496551491916179,-0.014848098107054829,0.012759309134259818
1783693661238852400,2.036852294921875,-0.01093406646847725,-0.007461056595668196,0.013174100480228662
1783693661248815400,2.0468154296875,-0.007520458632707595,0.012009002223610878,0.010318199592456221
1783693661258777300,2.05677734375,0.008496025666594504,0.015095935388281941,0.017329978050664066
1783693661268740000,2.066739990234375,0.01824468174278736,0.010508461467549204,0.04309051531627774
1783693661278702300,2.076702392578125,0.0319458748370409,0.026860534396767614,0.04809723756238818
1783693661288665300,2.086665283203125,0.03786006731688976,0.03990465182177722,0.051331762504205104
1783693661298627300,2.09662744140625,0.02998305033147335,0.011380495061725377,0.04313048200048506
1783693661308590000,2.106590087890625,0.007457330268621444,-0.016702420736849306,0.014610855285078286
1783693661318552300,2.11655224609375,-0.04284603903591633,-0.007350728088989854,-0.020478359078988432
1783693661328515300,2.126515380859375,-0.058712885731458664,-0.005668327959999442,-0.014387348727509379
1783693661338477300,2.136477294921875,-0.051287704166769976,0.005484130499511957,0.01650923625230789
1783693661348440000,2.146440185546875,-0.05300853661000728,0.038433191029727455,0.010698650277405977
1783693661358402300,2.15640234375,-0.09066694387495518,0.04257883946709334,-0.011875877363234758
1783693661368365300,2.166365234375,-0.09977905561327934,0.016491262204200028,-0.02421557284593582
1783693661378327300,2.176327392578125,-0.09409399571418761,-0.01808313450552523,-0.02691518719345331
1783693661388290000,2.1862900390625,-0.08888707472085952,-0.010634937391430139,-0.016971227740868924
1783693661398252300,2.196252197265625,-0.10617080247700214,0.024282792863249778,0.007533902636170387
1783693661408215300,2.20621533203125,-0.08686872063577175,-0.005793707905337214,0.04354359284602105
1783693661418177300,2.21617724609375,-0.045912440869212146,-0.01798383884951472,0.0308664090372622
1783693661428139300,2.22613916015625,-0.04277238927781581,-0.01847476417161524,-0.01646488565392792
1783693661438102300,2.236102294921875,-0.010372340932488441,-0.02059709008783102,-0.0204801857098937
1783693661448064300,2.246064208984375,0.05366963086724281,-0.022900471659377215,0.002397416530549526
1783693661458027300,2.25602734375,0.0682049366980791,-0.017836027876660228,0.014831731494143604
1783693661467989200,2.2659892578125,0.04268354195058346,0.0068093146886676545,0.02239047631062567
1783693661477952300,2.2759521484375,0.03294306918084621,0.011742167980968951,0.0412560664307326
1783693661487914200,2.285914306640625,-0.0034141923576593396,0.036236776963993904,0.06288396087102592
1783693661497877200,2.295877197265625,-0.016008885514736174,0.026255554240942,0.06957958605214953
1783693661507839200,2.305839111328125,-0.02007423525750637,-0.012631810297071933,0.037494814201071855
1783693661517802200,2.31580224609375,-0.043566170004010196,-0.009301789091527462,-0.01187339314520359
1783693661527764000,2.325763916015625,-0.03621872985064983,-0.024890038041397926,-0.031031098079681393
1783693661537727200,2.335727294921875,-0.015554712006449698,-0.03259235604703426,-0.032223522734642025
1783693661547689200,2.345689208984375,-0.013656184908747673,0.0026698037311434744,0.01753982140906155
1783693661557652200,2.35565234375,-0.06657295158207416,0.04155862957388162,0.020043547858297824
1783693661567614000,2.365614013671875,-0.09843582431077956,0.056814285568520424,0.030725758457556367
1783693661577577200,2.3755771484375,-0.10055939233601092,0.05772489760741591,0.017607114491611717
1783693661587539200,2.385539306640625,-0.11724047802388668,0.06357260072231292,-0.001531958807632327
1783693661597502200,2.395502197265625,-0.11717968774735926,0.026098683178797363,-0.05661109114661812
1783693661607464200,2.405464111328125,-0.09122750036716461,-0.005512260615453124,-0.06345204308256507
1783693661617427200,2.41542724609375,-0.05088906023800373,-0.027479543077945708,-0.07036839834228158
1783693661627389200,2.42538916015625,0.023604162949323652,-0.05052329566553235,-0.0331543007787317
1783693661637352200,2.435352294921875,0.09214636877775191,-0.03496953350715339,0.023375103433802724
1783693661647314200,2.445314208984375,0.10728548572063445,-0.030713410432636735,0.050045668216422194
1783693661657276200,2.455276123046875,0.07933189539015292,-0.005083586874604225,0.05355601442493498
1783693661667239200,2.4652392578125,0.01502396613061428,0.005296645103394985,0.04598090299554169
1783693661677201200,2.475201171875,-0.03852642227113247,0.0016819617375731467,0.05436952276490628
1783693661687164200,2.4851640625,-0.10512100116312503,0.04509308731034398,0.028559155008196828
1783693661697126100,2.495126220703125,-0.11203414155244827,0.05108487507104873,0.0034460488006472587
1783693661707089200,2.505089111328125,-0.0827361508756876,0.030825346374511717,-0.02456460547931492
1783693661717051100,2.515051025390625,-0.08248656002879143,0.02499232937209308,-0.042195831498876214
1783693661727014100,2.52501416015625,-0.07973346192836761,-0.003481339309737086,-0.05988002981469035
1783693661736976100,2.53497607421875,-0.07669745523333549,-0.01748304972052574,-0.030313086003437635
1783693661746939100,2.544939208984375,-0.06709609867334365,-0.029186493126302955,-0.03858136732876301
1783693661756901400,2.5549013671875,-0.05572948600649833,-0.016121844369918106,-0.013992211930081247
1783693661766864100,2.564864013671875,-0.06814180833399296,-0.010936404556035995,0.02224390744678676
1783693661776826000,2.574826171875,-0.06182078861892223,0.026980288318917155,0.05804419268965721
1783693661786789000,2.5847890625,-0.04606967725753784,0.04141154925338924,0.08137998702637851
1783693661796751400,2.59475146484375,-0.005824760630726814,0.05437719461470842,0.1318237877149135
1783693661806714000,2.604714111328125,-0.0016746552139520643,0.05281652116924524,0.1346614222936332
1783693661816676000,2.614676025390625,-0.016349077254533766,0.05978679857328534,0.12206154150478542
1783693661826639000,2.62463916015625,0.011029343536496162,0.01384425482675433,0.09890000775642692
1783693661836601300,2.634601318359375,0.02076689369678497,-0.034730537119507784,0.035548575504124165
1783693661846564000,2.644564208984375,0.0022948329389095305,-0.0223859462659806,-0.00014876082092523573
1783693661856526000,2.654526123046875,0.011593407160043716,-0.03632343233413994,-0.016495426922664046
1783693661866489000,2.664489013671875,0.026883915272355077,-0.029196429998427628,-0.03070230451673269
1783693661876451300,2.674451416015625,-0.010182955840229987,-0.005032002817839384,-0.04006897553801536
1783693661886413000,2.6844130859375,-0.07044599362313747,0.04480477188825607,-0.0222873812623322
1783693661896376000,2.6943759765625,-0.04589432069063187,0.03470284539498389,-0.0047153380841016765
1783693661906338300,2.70433837890625,0.008995791882276534,0.017959946517273784,0.01693272236138582
1783693661916301300,2.71430126953125,-0.05327683215737342,-0.0009025748629122972,0.008222031030803918
1783693661926263000,2.724262939453125,-0.10604746835827827,0.011857537988945841,-0.00502279659807682
1783693661936226000,2.73422607421875,-0.060926470127701755,-0.008734072206169367,0.03280482975393534
1783693661946188300,2.744188232421875,-0.018841478592157363,-0.015212328309565782,0.06914477483145892
1783693661956151300,2.7541513671875,-0.03438800729215145,0.0010498743791133164,0.09727803257778286
1783693661966113000,2.764113037109375,-0.0391699808716774,0.01589585359431803,0.13063618536554275
1783693661976076000,2.774075927734375,-0.03650573009848594,0.02083352919220924,0.1557975876942277
1783693661986038300,2.784038330078125,-0.07340133629739284,0.008436258303374052,0.13306633512191474
1783693661996001300,2.794001220703125,-0.12317512876987456,0.015261208952590822,0.0924507585518062
1783693662005963000,2.803962890625,-0.12055413261651993,0.004834726680070162,0.08551116854697466
1783693662015926000,2.813926025390625,-0.07051262911856174,-0.02698891001679003,0.08192483449280262
1783693662025888300,2.82388818359375,-0.052014849397540086,-0.0234647544786334,0.02116436858177185
1783693662035851300,2.833851318359375,-0.00012917933762073515,-0.02558693426437676,0.009830635271221399
1783693662045813000,2.84381298828125,0.06718436147868632,-0.025281229316070675,0.04317958183921873
1783693662055776000,2.85377587890625,0.07900397861003876,0.004160407615080476,0.0478658399593085
1783693662065738200,2.86373828125,0.01812660832107067,0.028090003126487136,0.02855652465969324
1783693662075701200,2.873701171875,-0.026699790877103804,0.05805602925792336,0.009276289324089883
1783693662085663000,2.8836630859375,-0.0071568860173225396,0.052730669516697526,0.005524024118483066
1783693662095626200,2.893626220703125,0.04010521589517593,0.02247749700695276,-0.009572861117869615
1783693662105588200,2.903588134765625,-0.03782967217862606,0.01778743949458003,-0.048930619646608824
1783693662115551200,2.91355126953125,-0.0853156459748745,0.010280059539154172,-0.0639059243299067
1783693662125513000,2.923512939453125,-0.053040685313940045,-0.029198841151222586,-0.05181435838937759
1783693662135475200,2.93347509765625,-0.03487725211381912,-0.04938713124245405,-0.009612097149714827
1783693662145438200,2.943438232421875,-0.029148353073000906,-0.009011939299479126,0.03238287801481783
1783693662155400000,2.95339990234375,-0.006844751328229904,0.0010098346296697855,0.10931289989501237
1783693662165363200,2.96336328125,0.03634498657882213,0.00843691589049995,0.14567768715284765
1783693662175325200,2.9733251953125,-0.006707973206043243,0.01868592270426452,0.08952763764671981
1783693662185288200,2.9832880859375,-0.07491700155735015,0.07329319974780082,0.04919876906350255
1783693662195250000,2.99325,-0.1329904203414917,0.10230031771920621,0.023624402019754052
1783693662205213200,3.003213134765625,-0.17615911546051502,0.10191833266429602,-0.028318185859173534
1783693662215175200,3.013175048828125,-0.184669169652462,0.08731902168653904,-0.11939626781828701
1783693662225138200,3.02313818359375,-0.18122107502520082,0.06134257664792239,-0.14697715237885714
1783693662235100000,3.033099853515625,-0.10746551846265792,-0.010531038625538348,-0.1697874615367502
1783693662245063200,3.043063232421875,-0.034766777476668356,-0.07281886023432016,-0.1829037674151361
1783693662255025200,3.053025146484375,0.007469020706415176,-0.06260222132019698,-0.17091770767569542
1783693662264988200,3.06298828125,0.06965747359395026,-0.02859926782287657,-0.0852232184510678
1783693662274950100,3.0729501953125,0.1294745211750269,0.00545775394923985,0.013536504051834344
1783693662284913200,3.0829130859375,0.14295359595119952,0.04752250641435384,0.07047317389100789
1783693662294875100,3.092875244140625,0.1022030678898096,0.07658179296441375,0.09340776701569557
1783693662304838100,3.102838134765625,0.0808317785590887,0.061232832663133736,0.11105294849537313
1783693662314800400,3.11280029296875,0.05666705911755562,0.05176562387682497,0.10330401486903429
1783693662324762000,3.12276220703125,0.029850363862514495,0.03301072758957743,0.0889071676608175
1783693662334725000,3.13272509765625,-0.0012748422414064406,0.02260879523642361,0.05860628355182707
1783693662344687000,3.14268701171875,-0.04212123189270496,-0.013336013043671846,0.04239003889672458
1783693662354650400,3.152650390625,-0.0797206024467945,-0.05434760319404304,0.0019648703321814534
1783693662364612000,3.162612060546875,-0.15538228489160535,-0.04894523269385099,-0.03727941788472235
1783693662374575000,3.1725751953125,-0.18408172515332696,-0.04237557197995483,-0.04274871614128351
1783693662384537300,3.182537353515625,-0.1428197404384613,-0.039276729181781406,0.027680034086108207
1783693662394500400,3.192500244140625,-0.13401158008277417,-0.018471330105513332,0.0589980593483895
1783693662404462000,3.202462158203125,-0.16716975331902503,0.010216492783650756,0.0659993894778192
1783693662414425000,3.212425048828125,-0.13304478087723254,0.024686478293314575,0.0964641589116305
1783693662424387300,3.22238720703125,-0.07516717692613602,0.010663505898788572,0.10928520817048847
1783693662434350300,3.232350341796875,-0.03734510353207588,0.026510698045790194,0.07927526983208955
1783693662444312000,3.24231201171875,-0.013745616757869719,0.05156147960685193,0.06437887560389935
1783693662454275000,3.252275146484375,-0.05275310054421425,0.08301314118616282,0.046738881755992764
1783693662464237300,3.2622373046875,-0.08644961844086646,0.0939257264751941,-0.00777918263413012
1783693662474200300,3.272200439453125,-0.09365092812180519,0.08212116078250109,-0.0666737085428089
1783693662484162000,3.282162109375,-0.09679214875698089,0.043481633525714276,-0.11105784386619925
1783693662494125300,3.292125244140625,-0.07595218982398509,-0.028793256025016305,-0.14839016098193825
1783693662504087600,3.302087646484375,-0.03741933781206608,-0.08817191218882799,-0.18392288132980464
1783693662514050600,3.312050537109375,0.04336509447395801,-0.10766790916696191,-0.1616002095583826
1783693662524012300,3.32201220703125,0.12273147665560245,-0.1317295335602015,-0.13320881233252585
1783693662533974500,3.331974609375,0.17153846992254257,-0.1371233554277569,-0.09513305643834173
1783693662543937500,3.3419375,0.22285949183702466,-0.0999252591509372,-0.0015011252779513597
1783693662553899300,3.351899169921875,0.1788134293615818,-0.010499912834912539,0.09368870284892618
1783693662563862300,3.3618623046875,0.07523381242156028,0.06146971015892923,0.15097309014722704
1783693662573824500,3.371824462890625,-0.014330138647556305,0.11239676431976259,0.18174626794308424
1783693662583787500,3.38178759765625,-0.1211608663380146,0.10226473494917154,0.17466076666153965
1783693662593749200,3.391749267578125,-0.2101011325508356,0.0943936362478882,0.11404277796112
1783693662603712300,3.401712158203125,-0.23848493099212645,0.05254493768624961,0.04152794217467308
1783693662613674500,3.411674560546875,-0.23279577943980692,0.005197787838801741,-0.01605389370024204
1783693662623637500,3.421637451171875,-0.17341829231977463,-0.03362462170422077,-0.03736256612353027
1783693662633599200,3.43159912109375,-0.10689502509832381,-0.06769559893645345,-0.01620842667482793
1783693662643562200,3.441562255859375,-0.06298398717939853,-0.0365682008754462,-0.0014428192194551228
1783693662653524500,3.4515244140625,-0.004143675675988197,-0.030473391131684183,0.03174501850269735
1783693662663487500,3.461487548828125,0.025939912420511243,-0.009714826871827243,0.06387238738648593
1783693662673449500,3.471449462890625,0.026714988446235655,0.005035948340594768,0.09674714057147503
1783693662683412200,3.481412109375,0.02934767503738403,0.0038633974298834797,0.10037168774418533
1783693662693374500,3.49137451171875,0.03218202168047428,-0.004753624267876148,0.11269501661397516
1783693662703337500,3.50133740234375,0.017400047612190245,-0.005246376220881938,0.07887845253422855
1783693662713299500,3.511299560546875,0.005500935503840446,0.004578413831442594,0.04588708723224699
1783693662723262200,3.52126220703125,-0.018398410999774933,-0.04178315904475748,0.008773162107542157
1783693662733224400,3.531224365234375,-0.0652466714143753,-0.050731093197315925,-0.015776391933113337
1783693662743187500,3.5411875,-0.133830962818861,-0.03821319160349667,-0.011333002658188342
1783693662753149400,3.5511494140625,-0.1550368324548006,-0.04032726114802062,0.0017024200037121771
1783693662763111400,3.561111328125,-0.16252864951491355,-0.026978461688011882,0.03885682326927781
1783693662773074400,3.571074462890625,-0.12795534878373147,-0.0012344371657818556,0.07837298723012208
1783693662783036400,3.581036376953125,-0.06616846243441105,0.024696634361147878,0.11281572038419543
1783693662792999400,3.59099951171875,0.020911855125427245,0.051179859878122805,0.21838234642297027
1783693662802961400,3.60096142578125,0.09635843351483345,0.07646247743368148,0.17980960079208017
1783693662812924400,3.61092431640625,0.05319324552714824,0.08767894104011356,0.11395495354719459
1783693662822886400,3.620886474609375,0.05526420658230781,0.07743789833709597,0.0918843568406999
1783693662832849400,3.630849365234375,0.027743746972084045,0.03420088722221553,0.023837971705198288
1783693662842811400,3.640811279296875,-0.07813421003818512,0.0096780750580132,-0.03782061208933592
1783693662852774400,3.6507744140625,-0.16077391480207442,-0.012064531803131103,-0.08909677194878458
1783693662862736400,3.660736328125,-0.13199556408524513,-0.02485730481557548,-0.07077310668565333
1783693662872699400,3.670699462890625,-0.06720423522293567,-0.03176248109415173,-0.04916859312094748
1783693662882661400,3.680661376953125,-0.05463000033199787,-0.0061185559455305336,-0.023948957799002527
1783693662892624400,3.690624267578125,-0.02129120983183384,0.017348317424952985,0.00600464724227786
1783693662902586400,3.70058642578125,0.022905074769258498,0.0323961758878082,0.062081412316486236
1783693662912549400,3.71054931640625,0.018268062618374825,0.047727673597633836,0.09673903033025562
1783693662922511400,3.720511474609375,-0.03690963472425937,0.04834836277924478,0.07844546794444322
1783693662932474400,3.730474365234375,-0.043940848535299296,0.04185739332474768,0.054236982426419854
1783693662942436400,3.740436279296875,0.020346622458100316,0.005677314984053373,0.08830050700455903
1783693662952399600,3.750399658203125,0.08001870861053466,-0.0218168411411345,0.1087007593460381
1783693662962361300,3.760361328125,0.07102642385959625,0.0032283143967390057,0.10307678198441862
1783693662972323300,3.7703232421875,0.05170739088356495,0.03428542370051146,0.11385763065256178
1783693662982286300,3.780286376953125,-0.010467033478617667,0.05999927228018641,0.11763188849426805
1783693662992248300,3.790248291015625,-0.09229775994718074,0.06660100863277912,0.08777334132529795
1783693663002211300,3.80021142578125,-0.16066986990571022,0.07152085631303488,0.009383110699430108
1783693663012173300,3.81017333984375,-0.18553309300541876,0.04082688123323023,-0.03516556753590703
1783693663022136600,3.820136474609375,-0.14594517898261547,0.025103753857314587,-0.03990582086555659
1783693663032098300,3.830098388671875,-0.12807692933678627,-0.008134937269240618,-0.031022111055627462
1783693663042061300,3.840061279296875,-0.06385258670747279,-0.017674334508925676,-0.01047799326404929
1783693663052023300,3.850023193359375,-0.0184913499802351,-0.02250380049198866,0.017274813797324894
1783693663061986600,3.859986572265625,0.004868482819199562,0.013038710597530007,0.015227525878697632
1783693663071948300,3.8699482421875,-0.03428045526444912,0.04860957099869847,0.00907981690391898
1783693663081911300,3.879911376953125,-0.04573123908340931,0.09559256370887159,0.002399681552872062
1783693663091873300,3.889873291015625,0.0068085109710693354,0.07034326390102505,0.00513020249530673
1783693663101836500,3.89983642578125,0.027625673550367352,0.05579363728389144,0.018715441059693694
1783693663111798300,3.90979833984375,0.0476835421949625,0.033687530872598286,-0.023630466434359548
1783693663121761300,3.91976123046875,0.06012859774827957,0.003582461596652865,-0.032893019494041796
1783693663131723500,3.9297236328125,0.05846329488456249,0.015646262747421858,-0.0285717952940613
1783693663141686500,3.9396865234375,0.0316670578956604,0.03266717484891415,-0.00837561415731907
1783693663151648300,3.949648193359375,-0.01988777277469635,0.034177944738045335,0.037153526482731104
1783693663161611300,3.959611328125,-0.02766249842941761,0.02687434372641146,0.014777370958402753
1783693663171573500,3.969573486328125,-0.06314414617717266,-0.008930836887285113,-0.003208002261072397
1783693663181535500,3.979535400390625,-0.07799450930655003,-0.04228234073854983,0.011714841582626104
1783693663191498200,3.989498291015625,-0.07271452307701111,-0.053495370278879996,0.021614815763011573
1783693663201460500,3.99946044921875,-0.11360007569491863,-0.025280279467999933,0.03755794256515801
1783693663211423500,4.009423583984375,-0.14122107307016848,-0.010635668043792247,0.04774579377621412
1783693663221385500,4.019385498046875,-0.14703122065365315,0.007679302456229924,0.06453837701454758
1783693663231348500,4.029348388671875,-0.13791209465265272,0.017132628847658635,0.06569185789860785
1783693663241310500,4.039310546875,-0.13061901503503323,0.03525010401420295,0.06063223642148077
1783693663251273500,4.0492734375,-0.14417173956930637,0.057003305334597826,0.1009757911171764
1783693663261235500,4.0592353515625,-0.07366261758208274,0.02272789157144725,0.08247114326395094
1783693663271198500,4.069198486328125,-0.009065934509038925,0.011209230148047209,0.06094144850112498
1783693663281160400,4.079160400390625,-0.04698386949300766,0.039081718066334724,0.0503811837811023
1783693663291123500,4.08912353515625,-0.0676601622968912,0.07041231054924428,0.007362564657256007
1783693663301085400,4.09908544921875,-0.0449035560876131,0.028263021605834365,-0.03355236018560827
1783693663311048400,4.10904833984375,-0.01779167727828026,-0.005262888964265584,-0.08329999530352651
1783693663321010400,4.119010498046875,0.009950900650024413,0.006167363523319363,-0.08949344311617315
1783693663330973400,4.128973388671875,0.033384383207559584,-0.006524433332681655,-0.10251374127417802
1783693663340935400,4.138935302734375,0.0366208809107542,-0.01718742777481675,-0.0910275938808918
1783693663350898400,4.1488984375,-0.0018617022186517714,-0.004018441861122846,-0.07945077252946793
1783693663360860400,4.1588603515625,-0.04644552483260631,0.004834507484361529,-0.06665668434277176
1783693663370823400,4.168823486328125,-0.06337561684548855,0.010003069228678942,-0.027814839446917174
1783693663380785400,4.178785400390625,-0.08627952257096767,0.006479936603829264,0.016753201076015828
1783693663390747400,4.188747314453125,-0.0723749158591032,-0.02273468663841486,0.00901939195357263
1783693663400710400,4.19871044921875,-0.04021276792287826,-0.02837795322239399,0.010103387797996402
1783693663410672400,4.20867236328125,-0.015411504143476485,0.007169234042242169,0.05356843551509082
1783693663420635400,4.218635498046875,-0.03013853315412998,0.050035804409533736,0.0861925749398768
1783693663430597400,4.228597412109375,-0.034956747090816497,0.03462605383172631,0.07830847062654793
1783693663440560400,4.238560302734375,-0.05156944371759891,0.03567622047178447,0.03554777178652584
1783693663450522400,4.2485224609375,-0.03539630755186081,0.00973937679119408,0.03203289553336799
1783693663460485400,4.2584853515625,-0.0107096100628376,0.008130407224595546,0.026871055790781972
1783693663470447400,4.268447265625,-0.01681727928817272,0.007518924262747168,0.012845891439169645
1783693663480410400,4.278410400390625,-0.017535072168707845,0.011430398618057369,-0.022184943801164626
1783693663490372400,4.288372314453125,-0.008075169906020164,-0.00023870412670075892,-0.01606887207366526
1783693663500335600,4.298335693359375,-0.006661211454868316,0.021403730295598507,-0.007029460245370865
1783693663510297900,4.3082978515625,-0.007549684727191925,0.04374627581126988,0.015942103888839484
1783693663520260600,4.318260498046875,-0.014672668474912642,0.039400793952867386,0.04278269147612154
1783693663530222600,4.32822265625,-0.025537761360406874,0.030272973188757896,0.06424567767828702
1783693663540185600,4.338185546875,-0.045207507470250125,0.028511443408951162,0.08456716569513081
1783693663550147800,4.34814794921875,-0.07656769137382508,0.02480586688928306,0.09028276686295866
1783693663560110800,4.35811083984375,-0.10351648857593536,0.028142463966086505,0.07663279249928891
1783693663570072600,4.368072509765625,-0.1206295359402895,0.039522520636394616,0.06190057585686445
1783693663580034800,4.378034912109375,-0.1050391680985689,0.019580387325957415,0.03896890534162521
1783693663589997800,4.387997802734375,-0.08682780410349368,0.010394260503351687,0.02322561196051538
1783693663599959600,4.39795947265625,-0.06368775153458119,0.014365794482827186,0.012848083396255969
1783693663609922600,4.407922607421875,-0.036731355547904965,0.017016528187319635,-0.0031755612961947917
1783693663619884800,4.417884765625,0.017234043395519257,0.012942556746676563,0.0006742459997534752
1783693663629847800,4.427847900390625,0.07456395033597946,-0.0126430623434484,0.04335428081899881
1783693663639809500,4.4378095703125,0.06552665739953517,-0.006258402807638049,0.04569982103183865
1783693663649772500,4.4477724609375,0.04220189591348171,-0.00320113412886858,0.03043327831700444
1783693663659734800,4.45773486328125,0.04598725967109203,-0.02328530625849962,0.04077076713182032
1783693663669697800,4.46769775390625,-0.0038151743739843367,0.004304053869470954,0.0542582444101572
1783693663679659500,4.477659423828125,-0.057981064325571055,0.0543851587254554,0.07186404372751712
1783693663689622500,4.48762255859375,-0.10276596246957778,0.06740881788432598,0.0983611516393721
1783693663699584800,4.497584716796875,-0.1247030689895153,0.06480959517136216,0.07297273562178015
1783693663709547800,4.5075478515625,-0.12990356024205685,0.04306370037458837,0.024458514756336806
1783693663719509500,4.517509521484375,-0.09498948324918746,-0.0017891484390944242,-0.00009863806888461112
1783693663729472500,4.527472412109375,-0.05620820943415165,-0.022631664655357597,-0.02804097635298967
1783693663739434800,4.537434814453125,-0.011711480581760405,-0.028623890807479617,-0.028864348499849438
1783693663749397800,4.547397705078125,0.016222236004471778,-0.008406155426055193,-0.032806437189131975
1783693663759359500,4.557359375,0.01602700569331646,0.023616876300424337,-0.013759060761332511
1783693663769321700,4.56732177734375,0.03095335666835308,0.04062982429116964,0.026604002352431416
1783693663779284700,4.57728466796875,0.021054478466510772,0.034223537445440884,0.04903671036958694
1783693663789246700,4.587246826171875,0.03839490484595299,-0.0032486265324056145,0.051467079321667546
1783693663799209500,4.59720947265625,-0.0165524908721447,0.024503376811370253,0.0409752036627382
1783693663809171700,4.607171630859375,-0.05097615399956703,0.038843306200578805,0.04686930320262909
1783693663819134700,4.617134765625,-0.05996726970672607,0.02209397758208215,0.04245959700159728
1783693663829096700,4.6270966796875,-0.05716565628945827,0.021468246899172663,0.023792525128275156
1783693663839059700,4.637059814453125,-0.05378010550439358,0.0222671421919018,0.015379939961433409
1783693663849021700,4.647021728515625,-0.07284428693652152,0.040889352010190484,0.02353212062641978
1783693663858984700,4.656984619140625,-0.07397533679306506,0.03965228449590504,0.0003386573698371649
1783693663868946700,4.66694677734375,-0.039075872847437854,0.011313128913938998,-0.025536007794737813
1783693663878909700,4.67690966796875,-0.009231354203820229,0.006000701719522476,-0.06754113902710378
1783693663888871700,4.68687158203125,0.00853811124265194,0.002107566738501191,-0.0834699450429529
1783693663898834700,4.696834716796875,-0.02457505380809307,0.014198328961431979,-0.06950345207601785
1783693663908796700,4.706796630859375,-0.01895487583875656,0.010463087955862283,-0.05262275216281414
1783693663918759700,4.716759765625,-0.0051005380094051355,-0.022688363278657198,-0.050677609444409605
1783693663928721700,4.7267216796875,-0.047800446572899814,-0.040033611963689326,-0.0698331954870373
1783693663938684700,4.7366845703125,-0.07670563853979111,-0.025143501345813273,-0.051464960429817436
1783693663948646700,4.746646728515625,-0.05340659601688385,-0.027685952370241282,0.016822613050416112
1783693663958609700,4.756609619140625,-0.022086159601807594,-0.02404788812883198,0.0029366379737854
1783693663968571600,4.766571533203125,-0.0187789347499609,0.004864902622625232,0.0038633974298834797
1783693663978534700,4.77653466796875,-0.015511457386612892,0.019873525053635238,0.03343238706775009
1783693663988497000,4.786496826171875,-0.008068155643343925,0.0069583677705377335,0.0637546792909503
1783693663998458600,4.796458740234375,-0.018352233770489692,0.007042100531235337,0.05200586237348616
1783693664008421600,4.806421630859375,-0.034414895299077035,-0.007862477003410457,0.032403482411429284
1783693664018383600,4.816383544921875,-0.021016484543681144,-0.019378873404487965,0.05550049955621361
1783693664028347000,4.826346923828125,-0.05539630852937698,-0.019986630039289594,0.061900868117809295
1783693664038308600,4.83630859375,-0.12771569480895995,-0.0026840514522045848,0.03981456238552928
1783693664048271600,4.846271728515625,-0.12365209863185882,0.024909400328993796,0.04577434757277369
1783693664058233900,4.85623388671875,-0.13103051844537258,0.023765929382294416,0.022782471302896738
1783693664068196900,4.86619677734375,-0.16567688441276548,0.020423706282302737,0.0070603668402880425
1783693664078158600,4.87615869140625,-0.13943769678473472,0.0026937691286206245,-0.017850787054374814
1783693664088121600,4.88612158203125,-0.07731412582695484,-0.026324747019633648,-0.03952770826816559
1783693664098083800,4.896083740234375,-0.05530103146135807,-0.04139890896752477,-0.040059403992071745
1783693664108046800,4.906046875,-0.028012627041339874,-0.033246947498247026,-0.06301577055715024
1783693664118008600,4.916008544921875,0.01993745713531971,-0.03293605491816997,-0.03424428797252476
1783693664127971600,4.9259716796875,0.018365093252062797,-0.04003609618172049,-0.011450418492779136
1783693664137933800,4.935933837890625,0.027895722663402556,-0.018955095034465193,-0.004362871384620666
1783693664147896800,4.945896728515625,0.048096214649081225,-0.0050307607088238,0.024820772197470066
1783693664157858600,4.955858642578125,0.06250526375174523,-0.0003964519716799259,0.05129859088696539
1783693664167820800,4.96582080078125,0.04314940589666366,0.01983538500033319,0.0651237756870687
1783693664177783800,4.97578369140625,-0.015430793365836143,0.024248086876049638,0.06641396162807942
1783693664187745500,4.98574560546875,-0.05709960531592369,0.022089228341728447,0.044012598597258326
1783693664197708500,4.99570849609375,-0.11466565909981727,0.04168773584626615,0.04215338059663772
1783693664207670800,5.0056708984375,-0.1535766967743635,0.019545389077812433,0.009471665765717625
1783693664217633800,5.0156337890625,-0.11050152515769004,-0.0205740014731884,0.00205598268173635
1783693664227595800,5.025595703125,-0.06655833853483199,-0.03138685271479189,-0.0019316256497055291
1783693664237558500,5.03555859375,-0.038189153140783305,-0.018730419433116912,0.00232055190205574
1783693664247520800,5.045520751953125,-0.04227905280292034,0.010136340219527482,0.03683671561852097
1783693664257483800,5.05548388671875,-0.018533435556292534,0.029821283898502585,0.03945003992207348
1783693664267445800,5.06544580078125,0.009562778115272522,0.04651406002417206,0.04706994034126401
1783693664277408500,5.075408447265625,-0.003617605975270271,0.04490969356745481,0.05782397406771779
1783693664287370800,5.085370849609375,0.012573065847158432,0.04102423043623566,0.026836568999290464
1783693664297333800,5.095333740234375,0.005171849679946899,0.014752236517146229,-0.013419380478188395
1783693664307295700,5.105295654296875,0.0012263269245624542,-0.014039777398854493,-0.050416108964011074
1783693664317258500,5.115258544921875,0.008569675424695014,-0.019158581717312335,-0.0688218995526433
1783693664327220700,5.125220703125,-0.013697101441025733,-0.014792641592770814,-0.05006166950315237
1783693664337183700,5.135183837890625,-0.008104396000504494,0.0017628449540585279,-0.020909151711687446
1783693664347145700,5.145145751953125,0.00008124854266643523,-0.001599251890182495,-0.0008025485545396804
1783693664357108500,5.1551083984375,0.028597148931026457,-0.0006971154186874627,0.01509147840887308
1783693664367070700,5.16507080078125,-0.0371960504502058,0.030753157921135425,0.056209743804112075
1783693664377032700,5.17503271484375,-0.12480652936398982,0.04903415308631956,0.09262596898823976
1783693664386995700,5.18499560546875,-0.10319149440526962,0.04983684777133166,0.07566358214095234
1783693664396957700,5.194957763671875,-0.09903437472581862,0.04161445141434669,0.09456088257357477
1783693664406920700,5.204920654296875,-0.1062684176325798,0.025663871958106755,0.1076888058245182
1783693664416882700,5.214882568359375,-0.03822130184471607,-0.007980404294654726,0.0875035844732076
1783693664426845700,5.224845703125,0.03643032677471637,-0.026609847571328282,0.07642587175033987
1783693664436807700,5.2348076171875,0.023894670328497885,-0.01929112205579877,0.07032236724346876
1783693664446770700,5.244770751953125,-0.0064256491333246225,0.013358882462605833,0.0537620583910495
1783693664456732700,5.254732666015625,-0.019990064105391503,0.014853139608353376,0.04937924019694328
1783693664466695700,5.26469580078125,-0.05794599301218986,0.018792159557715057,0.01911978407688439
1783693664476657700,5.27465771484375,-0.08393617431521415,0.018957140861079094,0.02616436882615089
1783693664486620700,5.28462060546875,-0.08463760058283805,0.011372969342395662,-0.0053081163454800845
1783693664496582000,5.294581787109375,-0.10420563988387584,-0.00047762744911015033,-0.008462854049354792
1783693664506545000,5.304544921875,-0.0676607468187809,0.012094561615213752,-0.0027685148652642965
1783693664516507000,5.3145068359375,-0.06987140860557556,0.016922347097843883,-0.01442388134561479
1783693664526469600,5.3244697265625,-0.060689154240489006,-0.0013460077814757823,-0.0005387099865823984
1783693664536431900,5.334431884765625,-0.046123453271389,-0.0028728520225733516,0.017136282109469176
1783693664546395000,5.344394775390625,-0.023674305576086043,0.0003165916685014963,0.029759909100085497
1783693664556356900,5.35435693359375,-0.03825286602675915,0.03919979148805141,0.047875192309543485
1783693664566318800,5.36431884765625,-0.07306815882027148,0.049034226151555775,0.05911963990144431
1783693664576281900,5.37428173828125,-0.08517010002434253,0.041316272185370324,0.05085946881733835
1783693664586243800,5.384243896484375,-0.06402268257737159,0.029778467670083044,0.019896321407333016
1783693664596206800,5.394206787109375,-0.04310732032060623,0.028848566408827898,-0.006777092919498681
1783693664606168800,5.4041689453125,0.036869302713871,0.00651150078587234,-0.03912110022865235
1783693664616131800,5.4141318359375,0.1078407815158367,-0.012667758393287657,-0.04235014527775347
1783693664626093800,5.42409375,0.15346096144020557,-0.02462853756099939,-0.028605551433190702
1783693664636056800,5.434056884765625,0.16041092670857907,-0.03324365956261754,-0.02399455050639808
1783693664646018800,5.444018798828125,0.14928689062595366,-0.004006239966675639,0.00784501441195607
1783693664655981800,5.45398193359375,0.05316986465156078,0.0029863953996449705,0.027086671302840114
1783693664665943800,5.46394384765625,-0.04490238704383373,0.004690057512372732,-0.00944192821457982
1783693664675906800,5.47390673828125,-0.12011632572114467,-0.007753975127637386,-0.02415244448184967
1783693664685868800,5.483868896484375,-0.13969313285052776,0.01387969146631658,-0.02910166438706219
1783693664695831800,5.493831787109375,-0.13493454014658926,0.014186492393165826,-0.02756561392620206
1783693664705793800,5.503793701171875,-0.12471242133975029,-0.006382321448251605,-0.015372925698757171
1783693664715756800,5.5137568359375,-0.11321838290095329,-0.009243921424448489,0.007966960291191936
1783693664725718800,5.52371875,-0.11597498813271521,-0.013565730146318674,0.039351694114133716
1783693664735681800,5.533681884765625,-0.06417173565924167,-0.014507687171548603,0.06911905586831271
1783693664745643800,5.543643798828125,-0.08931260665655136,0.027149653536453842,0.06816131675206125
1783693664755605800,5.553605712890625,-0.07315408353805541,0.029058775093406437,0.07648476233072578
1783693664765568800,5.56356884765625,-0.009264671951532364,0.035104777259379626,0.07323854695111513
1783693664775530800,5.57353076171875,0.02473229019641876,0.05157711556740105,0.05933474395684898
1783693664785493800,5.58349365234375,0.03585807984471321,0.034438276174664495,-0.0022327274881303307
1783693664795456000,5.5934560546875,0.02020633720457554,0.04348280256949365,-0.062344008775427937
1783693664805418800,5.603418701171875,0.01637713430523872,0.02098258227407932,-0.08500256143771111
1783693664815380700,5.613380615234375,-0.0028489596903324126,0.01631108333170414,-0.08587291453145444
1783693664825343700,5.62334375,-0.04584580537378788,0.011257599334418772,-0.08325827505365013
1783693664835306000,5.633305908203125,-0.11097206527888774,-0.02086268222145736,-0.1212540975794196
1783693664845268700,5.643268798828125,-0.11685878522992134,-0.02180383552908897,-0.10584756187200546
1783693664855230700,5.653230712890625,-0.102547351282835,-0.01651274338364601,-0.0565899752933532
1783693664865193700,5.66319384765625,-0.0665717825382948,-0.01980192112214863,-0.010491364202275871
1783693664875156000,5.673156005859375,-0.01362578977048397,-0.013189151918888092,0.07030249349921941
1783693664885118700,5.68311865234375,-0.02434241409599781,-0.004215279607474804,0.09189400145187973
1783693664895080700,5.693080810546875,-0.03687923958599567,0.015081322341039776,0.10451704392060637
1783693664905044000,5.7030439453125,-0.028320670077204704,0.011721490519121289,0.10719006252214312
1783693664915006000,5.713005859375,-0.03785948279500007,0.03488492396362126,0.08397519115135073
1783693664924967700,5.7229677734375,-0.0624450579971075,0.03243380448445678,0.03258380741439759
1783693664934930700,5.7329306640625,-0.055880292654037475,0.013060776298865675,0.030486250613257288
1783693664944893000,5.742892822265625,-0.026938860329985617,0.005675415287911892,0.01402180335074663
1783693664954856000,5.75285595703125,-0.04055003705322742,-0.021872297655418513,0.015054945790767668
1783693664964817700,5.762817626953125,-0.09339081588089465,-0.02955437659062445,-0.037658772591128944
1783693664974780700,5.77278076171875,-0.14116612801253794,-0.023741306397691366,-0.04085866461098194
1783693664984743000,5.782742919921875,-0.12323825713396072,-0.00809964676015079,-0.015058818248286842
1783693664994706000,5.792705810546875,-0.08117489290833473,0.004110504058748484,-0.01537372941635549
1783693665004667600,5.802667724609375,0.018100304836034774,0.005899067975953221,0.01107084459066391
1783693665014631000,5.812630859375,0.07147182953953743,-0.010548720412701367,0.04975443018488586
1783693665024593000,5.822593017578125,0.10395955616831778,-0.0030640637457370755,0.07659194903224706
1783693665034556000,5.832555908203125,0.10177812047600746,0.02528108318559825,0.08904745291434228
1783693665044517600,5.842517578125,0.05562544111013412,0.03853467864282429,0.09043817662037909
1783693665054481000,5.85248095703125,-0.0077519293010234825,0.057437385902926325,0.08796163043901324
1783693665064443000,5.86244287109375,-0.05497428372502327,0.048300066658109424,0.05079648658372461
1783693665074406000,5.872406005859375,-0.05594517458379268,0.02315459255091846,0.012875190598890184
1783693665084368000,5.882367919921875,-0.014811200162768363,-0.012550269493460655,-0.02581519006229937
1783693665094331000,5.892330810546875,-0.018930325919389722,-0.042947745844721795,-0.028530294239893554
1783693665104292900,5.90229296875,-0.008296119180321693,-0.04514905528128147,-0.0474688765309751
1783693665114256000,5.912255859375,0.004463993671536446,-0.026580767607316372,-0.03783953598551452
1783693665124217900,5.9222177734375,-0.011258476117253302,-0.0347906698089093,0.00003185644298791885
1783693665134179800,5.932179931640625,-0.05743044470548629,0.008950783696770668,0.037302725695073605
1783693665144142800,5.942142822265625,-0.1144248360812664,0.004050152173638344,0.08123049555309117
1783693665154104800,5.952104736328125,-0.13882687141001224,0.025815409258008,0.06647014879472553
1783693665164067800,5.96206787109375,-0.15054945790767668,0.01733655392192304,0.09445807978622615
1783693665174029800,5.97202978515625,-0.14722645096480846,-0.026856223547831175,0.14727182447649537
1783693665183992800,5.981992919921875,-0.12679682639837264,-0.009238441531732679,0.09750015089586377
1783693665193954800,5.991954833984375,-0.1266027651309967,-0.002519654670730233,0.08816299823001027
1783693665203917800,6.001917724609375,-0.09966624288856983,-0.011703078079596162,0.07868746000677347
1783693665213879800,6.0118798828125,-0.0953887116998434,-0.0064813979085534806,0.059095236112549895
1783693665223842800,6.0218427734375,-0.13196458442509174,0.022000819405913353,0.02773965531885624
1783693665233804800,6.0318046875,-0.11095745223164558,0.03576090308055281,0.029874329259991644
1783693665243767800,6.041767822265625,-0.08372223930358887,0.016246347532421348,0.01319791974723339
1783693665253729800,6.051729736328125,-0.06412205129861831,0.01388232181482017,-0.02183561890684068
1783693665263692800,6.06169287109375,-0.048667877057194706,0.008500409580767154,-0.05532550831548869
1783693665273654800,6.07165478515625,0.004217909955978393,-0.011303776563704014,-0.05521094202511012
1783693665283617800,6.08161767578125,0.06295709917247296,-0.016592019164934753,-0.03493300088904798
1783693665293579800,6.091579833984375,0.11291501604020594,0.0026961802814155817,0.0002934299886226654
1783693665303542000,6.1015419921875,0.13197744390666485,0.0002652998726814985,0.023541399911418556
1783693665313504800,6.1115048828125,0.08545826931595801,0.028105127630382774,0.05413396044336259
1783693665323466800,6.121466796875,0.05191372711062431,0.05034180161878466,0.09181874425858258
1783693665333429800,6.1314296875,0.06688391722738743,0.04935016023293137,0.1226223902579397
1783693665343392000,6.14139208984375,0.07502630715072155,0.0214921392314136,0.10611191189661622
1783693665353355000,6.15135498046875,0.06406827528476715,-0.0018535189121961593,0.09859788300469517
1783693665363316700,6.161316650390625,0.04103869735300541,-0.0012256693374365568,0.06617270021811127
1783693665373279700,6.17127978515625,0.0017529811471700667,-0.012080752285569905,0.028926088624447583
1783693665383242000,6.181241943359375,-0.0491910241484642,-0.00462327588647604,-0.00990450422503054
1783693665393205000,6.191205078125,-0.09029460343122482,0.001946165631711483,-0.05548055274672806
1783693665403166700,6.201166748046875,-0.11287702211737632,0.000950140331685543,-0.0776183694705367
1783693665413129700,6.211129638671875,-0.11048106689155102,0.01605199400410056,-0.08017346078082918
1783693665423092000,6.221092041015625,-0.09719488433897494,0.028471988181397317,-0.053623307507485146
1783693665433055000,6.231054931640625,-0.09162731333971023,0.06996727019548415,0.024030644733086227
1783693665443016700,6.2410166015625,-0.1453039584696293,0.08824410064220428,0.08360489653423428
1783693665452979700,6.250979736328125,-0.19848375999331472,0.07780877747610211,0.12008373862579465
1783693665462942000,6.26094189453125,-0.1917798784404993,0.043228754743188616,0.1279233462102711
1783693665472905000,6.270905029296875,-0.15896481955349445,-0.004537424233928323,0.08287716678157449
1783693665482866700,6.28086669921875,-0.10639116722941398,-0.04050210625827312,0.034924598386883735
1783693665492829400,6.290829345703125,-0.07492343129813671,-0.06464286030232906,0.00942592692784965
1783693665502792700,6.300792724609375,-0.044504327636957164,-0.06621734307743608,-0.013510273632034659
1783693665512754700,6.310754638671875,-0.06466039595901965,-0.04264540189728141,-0.01608114703334868
1783693665522717400,6.320717529296875,-0.06010229426324367,-0.019673691632598637,-0.006717617817223072
1783693665532679700,6.3306796875,-0.03385784593820572,-0.006414177891239523,-0.011074936243891715
1783693665542642700,6.340642578125,-0.0077723875671625135,0.0369172335088253,0.02107113734036684
1783693665552604700,6.350604736328125,0.0114198041588068,0.04405819130465388,0.03344385830983519
1783693665562567400,6.3605673828125,0.04992343007624149,0.02840849449113011,0.03146035634241998
1783693665572529700,6.37052978515625,0.03987082261741161,0.01595255221761763,0.006826923410594463
1783693665582492700,6.38049267578125,0.05923252569139004,0.011748086265102028,-0.041484906750544906
1783693665592454700,6.39045458984375,0.055334933730959886,0.007903174339979887,-0.046045419599115844
1783693665602417400,6.40041748046875,0.03577858486771583,0.022183117170259354,-0.033629590140283105
1783693665612379600,6.410379638671875,0.004436521142721176,0.03851012872345745,-0.033673648477718233
1783693665622342700,6.4203427734375,-0.026590485283732413,0.03640037002786994,-0.006452171814069151
1783693665632304600,6.4303046875,-0.03876373815834522,0.016609920147806406,0.015208382786810398
1783693665642267400,6.440267333984375,-0.04017886565327644,0.014238514841347931,0.04256334963701665
1783693665652229600,6.450229736328125,-0.11088321795165539,0.03872252936512231,0.06793116125799716
1783693665662191600,6.460191650390625,-0.13970657685399054,0.037457550930604336,0.0916953370746225
1783693665672154600,6.470154541015625,-0.08584872993826866,-0.0011200900711119174,0.10679287989810109
1783693665682116600,6.48011669921875,-0.060172436890006065,-0.019093626722320914,0.09598229367882012
1783693665692079600,6.49007958984375,-0.03839899649918079,-0.00652041474469006,0.09539594515822827
1783693665702041600,6.50004150390625,-0.007827332624793052,-0.008913812687247991,0.09530505200438201
1783693665712004600,6.510004638671875,-0.04119651826322079,0.009109481389820576,0.07145254031717777
1783693665721966600,6.519966552734375,-0.10763736789822578,0.049630219283327455,0.04740845158062875
1783693665731929600,6.5299296875,-0.12380524336695671,0.041567762728407974,0.00260725988894701
1783693665741891600,6.5398916015625,-0.10874386783540248,0.013452405964955687,-0.013327391345798969
1783693665751854600,6.5498544921875,-0.06402911231815815,-0.0007449731484055519,-0.04048289010114967
1783693665761816600,6.559816650390625,0.007816226708889007,0.004688377011939883,-0.03992416023984551
1783693665771779600,6.569779541015625,0.07701017444431782,-0.002462298460304737,-0.002348755083233118
1783693665781741600,6.579741455078125,0.10197042817771435,-0.0012456161469221114,0.011944193359091877
1783693665791704600,6.58970458984375,0.08857903168499469,0.005444017684832215,-0.037148484981432556
1783693665801666600,6.59966650390625,0.05194996746778488,0.02989602963514626,-0.023161314552649855
1783693665811629600,6.609629638671875,0.01851180824637413,0.06271028480455279,0.026554171861335633
1783693665821591600,6.619591552734375,-0.03829436708092689,0.06545286151096225,0.03692183661870658
1783693665831553500,6.629553466796875,-0.06058335577845573,0.05313274751156568,0.024897052304074168
1783693665841516500,6.6395166015625,-0.05522679718136787,0.022368556739762423,0.025357728618383406
1783693665851478500,6.649478515625,-0.05778817210197448,-0.015236585967987775,-0.011676920725032687
1783693665861441500,6.659441650390625,-0.061246203601360315,-0.015868454130738972,-0.028535701067373156
1783693665871403500,6.669403564453125,-0.11324176377654074,0.008842062625288962,-0.04485460237935185
1783693665881366500,6.679366455078125,-0.1514203955233097,0.018716537038236856,-0.04396751734651625
1783693665891328500,6.68932861328125,-0.17669219942390918,0.034107655980810524,-0.04058868856318295
1783693665901291500,6.69929150390625,-0.17296061168015003,0.026229396886378525,-0.045833238153159615
1783693665911253500,6.70925341796875,-0.12222177356779575,0.015463672722131012,-0.004468085324764251
1783693665921216500,6.719216552734375,-0.05295768320560455,0.0038845863483846187,0.041949455522373315
1783693665931178500,6.729178466796875,0.00969312649667263,0.0012248656198382377,0.06220394271761179
1783693665941141500,6.7391416015625,0.0521580572605133,0.017620120103657246,0.08549757841303944
1783693665951103500,6.749103515625,0.05486556265354156,0.02149367360137403,0.11174560693465173
1783693665961066500,6.75906640625,0.03258767987191677,0.014163257648050783,0.10643763671964407
1783693665971028500,6.769028564453125,0.02097089183628559,0.01525470614656806,0.09009235885739326
1783693665980991500,6.778991455078125,-0.03975976345837116,0.01039447969906032,0.06606047201529144
1783693665990953500,6.788953369140625,-0.05855214221179485,-0.020006065392121672,0.024727614021301268
1783693666000916500,6.79891650390625,-0.02696224120557308,-0.05115194895789027,0.014335545475035905
1783693666010878500,6.80887841796875,-0.018697686207294464,-0.03481478133685886,-0.014046061009168625
1783693666020840700,6.8188408203125,-0.032550270470976826,-0.0294095612924546,-0.05324731380194425
1783693666030803700,6.8288037109375,-0.07349193719029426,0.01508256445005536,-0.046750937519967554
1783693666040765400,6.838765380859375,-0.1134136132121086,0.07549034446589649,-0.04769340600185096
1783693666050728400,6.848728515625,-0.10987725577950477,0.1118251019116491,-0.04135565434768796
1783693666060690700,6.858690673828125,-0.09458090244829655,0.11774740463271736,-0.012797887578979135
1783693666070653700,6.86865380859375,-0.0873889451175928,0.08898110967986285,0.010695508472248911
1783693666080615400,6.878615478515625,-0.041843583995103836,0.009112988521158695,-0.012761354960873722
1783693666090578400,6.888578369140625,0.03194470579326152,-0.03424757590815425,-0.05667538855448365
1783693666100540700,6.898540771484375,0.07672258967459201,-0.07625424151048064,-0.07770802051536739
1783693666110503700,6.908503662109375,0.11995967385470867,-0.10036555026434361,-0.0482270014218986
1783693666120465400,6.91846533203125,0.16250585316121577,-0.055083516253158445,0.028563904248550532
1783693666130428700,6.9284287109375,0.1269593234837055,-0.01111271097101271,0.06779533298388123
1783693666140390700,6.938390625,0.03378711878955364,0.025428894158452748,0.09690335404649376
1783693666150353700,6.948353759765625,-0.03864332664906978,0.027074688604101536,0.12137385150156914
1783693666160315400,6.9583154296875,-0.08677578165531158,0.037018794187158345,0.11051292333453892
1783693666170278700,6.968278564453125,-0.08600771989226341,0.06070296357013285,0.07225764615498483
1783693666180240600,6.97824072265625,-0.12354220851659774,0.010478577785938978,0.07726634116247295
1783693666190203600,6.98820361328125,-0.11245499731302261,-0.014285276592522858,-0.02279160445742309
1783693666200165600,6.99816552734375,-0.15374503907859324,-0.028029505110904573,-0.10437310540527105
1783693666210127600,7.008127685546875,-0.1792658493041992,-0.04939597213603556,-0.14087174817584455
1783693666220090600,7.018090576171875,-0.1282663144290447,-0.030821327786520122,-0.015564283552393317
1783693666230052400,7.02805224609375,-0.08894961856305598,0.014220248532295227,0.026508944480121133
1783693666240015600,7.038015625,-0.0709632954955101,0.06904153365269303,0.020284955398738383
1783693666249977600,7.0479775390625,-0.02136953576505184,0.04681289684027433,0.015480916117876766
1783693666259940600,7.057940673828125,0.07459551451802253,0.02408763561733067,0.015229498640075325
1783693666269902600,7.067902587890625,0.11326982082724571,0.02853694317638874,0.06415244643688202
1783693666279865600,7.077865478515625,0.11758709950447081,0.04144457474015653,0.08844546843320131
1783693666289827600,7.08782763671875,0.13351122934520243,0.0374175111811608,0.07133592820018529
1783693666299790600,7.09779052734375,0.09598317046165465,-0.0014651771817356348,0.020937574088573455
1783693666309752600,7.107752685546875,0.05718845264315605,-0.02546652275510132,-0.04989617674313485
1783693666319715600,7.117715576171875,0.007503507497906684,-0.07185410685539245,-0.12762611682936548
1783693666329677600,7.127677490234375,-0.031118191841244695,-0.07794044103175402,-0.12357574546001851
1783693666339640600,7.137640625,-0.13764730623662472,-0.01715717876702547,-0.06101999363005161
1783693666349602600,7.1476025390625,-0.22306465902030467,0.04815130583718419,-0.0017026391994208097
1783693666359565600,7.157565673828125,-0.2904179473251104,0.06259374575279653,0.01913505471125245
1783693666369527600,7.167527587890625,-0.2962608281344175,0.04293517862409353,0.08112243206873536
1783693666379489500,7.177489501953125,-0.24462357987761496,0.041581864318996666,0.14943550531640648
1783693666389452500,7.18745263671875,-0.16072072331011295,0.046381958077102894,0.15732786600142717
1783693666399414500,7.19741455078125,-0.10852701021432876,0.05417779958508909,0.14237389636710285
1783693666409377500,7.20737744140625,-0.02685410465598106,0.028324396404251453,0.1419610777825117
1783693666419339800,7.21733984375,0.06643851154744625,0.00267294553630054,0.11315949232056736
1783693666429302500,7.227302490234375,0.09973930812478064,-0.010035948584973812,0.10060235469490289
1783693666439264500,7.237264404296875,0.06994096671044826,-0.024950316861271856,0.038051498235762114
1783693666449227500,7.2472275390625,0.05759352631270885,-0.04349368928968906,-0.00627184681110084
1783693666459189800,7.257189697265625,0.09085457540154457,-0.0736238199416548,-0.006269874049723148
1783693666469152500,7.267152587890625,0.0928793592274189,-0.05188384342901409,-0.04769596328511834
1783693666479114500,7.277114501953125,0.08443418696522713,-0.04907609253190458,-0.04245338645651936
1783693666489077500,7.287077392578125,0.10117840101718902,-0.05267565139383077,-0.0073828037276864045
1783693666499040000,7.2970400390625,0.10956453656852244,-0.026680282459035514,0.04056223894767463
1783693666509003300,7.307003173828125,0.08343523905575274,0.014008286282047628,0.06869717719443141
1783693666518965200,7.31696533203125,0.053828036299347876,0.03048829643987119,0.05452610156610608
1783693666528928000,7.326927978515625,-0.009365794238448142,0.0715134767241776,0.06585925035476684
1783693666538890200,7.33689013671875,-0.11901800909042358,0.09253558729104697,0.07628361373543739
1783693666548852200,7.346852294921875,-0.20687574076354504,0.07011354679837822,0.029814708027243612
1783693666558815200,7.356815185546875,-0.2599269474714994,0.00440400711260736,-0.026297859012708067
1783693666568777000,7.36677685546875,-0.2470271338880062,-0.03127871616519987,-0.05287592320628464
1783693666578740200,7.376740234375,-0.22325755124390123,-0.06464337175898253,-0.023608035406842826
1783693666588702200,7.3867021484375,-0.15586393092870712,-0.06418298770561814,-0.01830576428025961
1783693666598665200,7.396665283203125,-0.08734744406342505,-0.052990708692371845,-0.023174831621348858
1783693666608627200,7.406627197265625,-0.05977203939557075,-0.029046354003250598,0.02852466821670532
1783693666618590200,7.416590087890625,-0.04154606235325336,0.01599434553273022,0.09595533260665834
1783693666628552200,7.42655224609375,-0.04098842847049236,0.05685206029564142,0.07814034751802683
1783693666638515200,7.43651513671875,-0.03439794416427612,0.04723382566608488,0.044243338613212106
1783693666648477200,7.446477294921875,0.005645312410593032,0.02771481313854456,0.02441160687468946
1783693666658440200,7.456440185546875,0.10489011501669883,-0.0023533581931143997,-0.011030366449803113
1783693666668402200,7.466402099609375,0.1482879427164793,-0.04945157478079199,-0.05775448902808129
1783693666678365200,7.476365234375,0.15586276188492773,-0.042488969226554034,-0.07442476106099784
1783693666688327200,7.4863271484375,0.11414894174933433,-0.012559402647987007,-0.023435674514621495
1783693666698290200,7.496290283203125,0.0595084200233221,-0.009092822515964508,-0.04562631740421057
1783693666708252200,7.506252197265625,-0.041862873217463493,0.021648937228322028,-0.07813150662444532
1783693666718214100,7.516214111328125,-0.13357143509984015,0.053425373782590026,-0.022780571606755257
1783693666728177200,7.52617724609375,-0.17550503546595572,0.044554742649942636,-0.007194953005388379
1783693666738139100,7.53613916015625,-0.18984978716075418,0.03301160437241196,0.015512772560864686
1783693666748102100,7.54610205078125,-0.1843634647041559,0.06172083537578582,0.029379020023718474
1783693666758064000,7.556064208984375,-0.14521978731751442,0.0774772804994136,0.038349896660447115
1783693666768027100,7.566027099609375,-0.0854682061880827,0.05123012876063585,0.0339076764293015
1783693666777989000,7.575989013671875,-0.043539866518974304,0.03151807787902653,-0.003460734913125634
1783693666787952000,7.5859521484375,-0.03155599873661995,0.003940846580266952,-0.03238353560194373
1783693666797914000,7.5959140625,0.0010609072297811507,0.01611256508491933,-0.04175071807987988
1783693666807877000,7.605877197265625,-0.03502338258624076,0.028676936168968676,-0.04743066341243684
1783693666817839000,7.615839111328125,-0.08380290332436562,0.021508432779088614,-0.0650359512731433
1783693666827802000,7.625802001953125,-0.07170037759840488,0.011171674616634845,-0.07123458671756089
1783693666837764400,7.635764404296875,-0.07611001073420047,-0.02731375805698335,-0.054767947497963904
1783693666847727000,7.64572705078125,-0.047865913024544716,-0.029943229777738452,-0.028056393117830154
1783693666857689000,7.655689208984375,0.0015150807380676268,-0.01777143820784986,-0.009516820081695914
1783693666867652000,7.665652099609375,0.0006768763482570648,-0.0027307401381433008,0.005967091710865497
1783693666877614300,7.6756142578125,-0.005182371073961258,0.0092581691455096,0.05052059225179255
1783693666887577000,7.6855771484375,0.03658990125060081,0.021985987162962555,0.11901632858999073
1783693666897539000,7.6955390625,0.07373451377451419,0.0341675694745034,0.12841792479418218
1783693666907501300,7.705501220703125,0.1116103631824255,0.029843203469365833,0.14590660053789614
1783693666917464300,7.71546435546875,0.08633739023804664,0.06952792893014847,0.14560286835096775
1783693666927426000,7.725426025390625,-0.017594693401455877,0.06356244465447962,0.10566847897805273
1783693666937389000,7.73538916015625,-0.09782558345794677,0.04579363679513335,0.04629289155416191
1783693666947351300,7.745351318359375,-0.12478840918540954,0.05313596238195896,-0.0127753834862262
1783693666957314300,7.755314208984375,-0.1287590663820505,0.0014906038839370011,-0.03711553255990147
1783693666967276000,7.765276123046875,-0.08711597339510917,-0.027207886529713867,-0.0641638446137309
1783693666977239000,7.775239013671875,-0.05730126536786556,-0.04999963711760938,-0.06759893362894653
1783693666987201300,7.785201171875,-0.03167699476778507,-0.015046324092894792,-0.03353935457356274
1783693666997164300,7.795164306640625,-0.02086100172102451,-0.010575681484863162,0.005884454928711057
1783693667007126000,7.8051259765625,-0.031143910804390905,0.020639175663888454,0.03825805365853011
1783693667017089000,7.815089111328125,-0.04742167638838291,0.057557651281729336,0.056689344014599914
1783693667027051300,7.82505126953125,-0.07524433381557465,0.06896079656668007,0.09197181592844426
1783693667037014300,7.83501416015625,-0.09694880062341689,0.06743059132471681,0.07630297602303325
1783693667046976000,7.84497607421875,-0.10590542953908443,0.028515608127415177,0.038025779272615905
1783693667056939000,7.85493896484375,-0.05469546678364277,-0.006956687270104885,0.014293094572797416
1783693667066901200,7.8649013671875,0.011937690553069114,-0.010364157626032829,0.037397345175966615
1783693667076863000,7.874863037109375,0.03130231623649597,-0.023878961302712557,0.04119607987180352
1783693667086826000,7.884825927734375,0.059521864026784894,-0.02842076945081353,0.024193799405544995
1783693667096788200,7.894788330078125,0.05646130741238594,-0.030070290223509072,0.038171398288384076
1783693667106751200,7.904751220703125,0.04338672178387642,-0.014711758376285433,0.04600274950116873
1783693667116713000,7.914712890625,-0.01905249099433422,0.007698080221936106,0.02573715639002621
1783693667126676000,7.924676025390625,-0.07192541852593422,0.04607296519316732,0.0004808423195034265
1783693667136638200,7.93463818359375,-0.10448153421580791,0.06262041456401347,0.023282237518578767
1783693667146601200,7.944601318359375,-0.15932956121265887,0.05824848309010267,0.03785539114177227
1783693667156563000,7.95456298828125,-0.1667442213833332,0.030564868807420133,0.036165757554396986
1783693667166526000,7.96452587890625,-0.11389642829298972,-0.017831570897251365,0.011732742565497755
1783693667176488200,7.97448828125,-0.0666150371581316,-0.029024507497623562,0.0759475136488676
1783693667186451200,7.984451171875,-0.03219137403070926,-0.004971650932729244,0.05267360556721687
1783693667196413000,7.994412841796875,-0.00016366612911224363,0.013379706054925918,0.059717751925066107
1783693667206376200,8.004376220703126,0.027209493964910507,0.02900127275250852,0.08178308793455362
1783693667216338200,8.014338134765625,0.028815760117769238,0.033580563366785644,0.1194994359318167
1783693667226301200,8.02430126953125,0.013832125997543333,0.062463762697577474,0.0981275620792061
1783693667236263000,8.034262939453125,0.043616438886523244,0.03398607542775571,0.06056282444708049
1783693667246226200,8.04422607421875,0.03696750239133834,0.01043707673177123,0.015362331239506602
1783693667256188200,8.054188232421875,0.033113749572634694,-0.014583601951971649,-0.01788607756346464
1783693667266150100,8.064150146484375,0.02069207489490509,-0.00641914632730186,-0.05927125026658177
1783693667276113200,8.074113037109376,0.018608254358172416,-0.02907126924879849,-0.07150653552673757
1783693667286075100,8.0840751953125,-0.02749649421274662,-0.033920024454221126,-0.07312346920408308
1783693667296038100,8.0940380859375,-0.06030804596841335,-0.03749517952725291,-0.06789850109741091
1783693667306000100,8.104000244140625,-0.08961889612674713,-0.04996624630466103,-0.07480623465925455
1783693667315963100,8.113963134765624,-0.16917875505387783,-0.02533763567842543,-0.03733282857239246
1783693667325925000,8.123925048828125,-0.2326484799236059,0.03615837796553969,0.020264716328307984
1783693667335888100,8.13388818359375,-0.21475977201163768,0.06677892248295247,0.05900945752523839
1783693667345850000,8.14385009765625,-0.16818740592896939,0.061774465259164565,0.06424940400533377
1783693667355813400,8.1538134765625,-0.10324702398478984,0.07026157696694135,0.06795841459110379
1783693667365775000,8.163775146484374,-0.010485738179087638,0.03408588254041969,0.07567527257874608
1783693667375738000,8.173738037109375,0.05528524937033653,0.00913483502678573,0.04080817653276026
1783693667385700400,8.183700439453125,0.06821487357020378,-0.002141395942866802,-0.012340718396008013
1783693667395663400,8.193663330078126,0.027914427363872528,0.003338058381527662,-0.035921427404507995
1783693667405625000,8.203625,0.029734628528356552,-0.004340805683284998,-0.05138290816955268
1783693667415588000,8.213588134765626,0.032818566018342966,-0.022437676453217863,-0.0867860107883811
1783693667425550300,8.22355029296875,-0.010244915160536765,-0.03437112922258675,-0.09194675455242395
1783693667435512000,8.233511962890624,-0.0011386486411094664,-0.03595679097883403,-0.06100698801800608
1783693667445475000,8.24347509765625,0.019037877947092056,-0.025914266522601245,-0.01163644258417189
1783693667455437000,8.25343701171875,-0.0007376666247844696,-0.01460588684901595,0.03613441256806254
1783693667465400300,8.263400390625,0.0023491934746503827,-0.01295826577246189,0.08149097312018275
1783693667475362000,8.273362060546875,-0.031150925067067143,0.016794848260655998,0.12949468718022109
1783693667485325000,8.283324951171876,-0.14144552947580813,0.07138407819084823,0.10945070093050599
1783693667495286500,8.29328662109375,-0.16590250986218452,0.07333499306291341,0.0726733142837882
1783693667505249500,8.30324951171875,-0.1388543439388275,0.059580973802879446,0.04108597056083381
1783693667515211500,8.31321142578125,-0.171854696264863,0.05384023819379508,0.01748926026560366
1783693667525174500,8.323174560546875,-0.1603659185230732,0.03739624919742346,-0.033374957792088385
1783693667535136500,8.333136474609375,-0.06941314344406127,-0.025049758647754786,-0.09017024639919399
1783693667545099500,8.343099609375,-0.007041735205054283,-0.05017638192400336,-0.06781783707663416
1783693667555061500,8.3530615234375,0.04175707475543022,-0.03745513977780938,-0.01387165429033339
1783693667565024500,8.3630244140625,0.10795125615298748,-0.019644173277169465,0.0022238135293126105
1783693667574986500,8.372986572265624,0.10579963107705116,-0.0021919570863246918,0.01518463658504188
1783693667584948500,8.382948486328125,0.061037529286742206,0.014182108478993177,0.027893019249662754
1783693667594911500,8.392911376953125,0.01961889270544052,-0.003924479967355728,0.022467779330536723
1783693667604873500,8.40287353515625,0.02339081245958805,-0.008719020767509937,0.03764627843573689
1783693667614836500,8.41283642578125,-0.040351299610733984,0.01053732223585248,0.05393931465409696
1783693667624798500,8.422798583984376,-0.14855740730762482,0.02085910202488303,0.06305011121816932
1783693667634761500,8.432761474609375,-0.1744949816405773,0.00551189528927207,0.05604417797885835
1783693667644723500,8.442723388671874,-0.12207388952970503,-0.02614449508190155,0.056674511771649116
1783693667654686500,8.4526865234375,-0.1176052196830511,-0.03388531846702099,0.06276654503643513
1783693667664648400,8.4626484375,-0.12350363007187842,0.009646876202151178,0.07078720827624202
1783693667674611500,8.472611572265626,-0.058653849020600314,0.0174456403195858,0.08850034042559564
1783693667684573400,8.482573486328125,-0.024066519764065743,0.03173712745718658,0.063991629851982
1783693667694536400,8.492536376953124,-0.05762158336341381,0.052707653967291115,0.06460501250997186
1783693667704498400,8.50249853515625,-0.10225509033799171,0.0856491887781769,0.057030266406759615
1783693667714461400,8.51246142578125,-0.06454992132186889,0.05571114663220942,0.03703450321294367
1783693667724423400,8.52242333984375,-0.013047697621583938,0.024942352750524876,0.008241320253163575
1783693667734386400,8.532386474609375,0.01876490622460842,0.025797654405608772,-0.015307459247112274
1783693667744348400,8.542348388671876,0.028973581027984616,0.013552578403800725,0.0003546586565673351
1783693667754310700,8.552310546875,0.06859364375472068,0.006622706075385213,0.010954963126033545
1783693667764273400,8.5622734375,0.1289601419121027,-0.01275149115398526,0.009115107413008808
1783693667774235400,8.5722353515625,0.11483692401349543,-0.015823080619052052,-0.007630860204622149
1783693667784198400,8.582198486328124,0.08231061893999576,0.0009885726459324359,0.017628741801530123
1783693667794160600,8.59216064453125,-0.021719664376974104,0.006018237376213074,0.03260631150715053
1783693667804123600,8.60212353515625,-0.10119359858632088,0.01511982772052288,-0.0051068216197192665
1783693667814085400,8.61208544921875,-0.11232757154107093,0.011979118542000651,0.009953896324709057
1783693667824048600,8.622048583984375,-0.12959434816241264,0.014158362277224659,0.019769334026798605
1783693667834010600,8.6320107421875,-0.10388239927887916,0.0037013387359678745,0.026596184372156856
1783693667843973600,8.6419736328125,-0.04649988536834716,-0.008899638031423091,0.050753524224832654
1783693667853935400,8.651935302734374,-0.05623509744107723,0.004768456510826945,0.08412738603837788
1783693667863898600,8.661898681640626,-0.08953764758408068,0.06027209787219762,0.0895580327849835
1783693667873860600,8.671860595703125,-0.11618658505678177,0.05096307532228529,0.08831592376939952
1783693667883823600,8.68182373046875,-0.11865794360637665,0.01900733667835593,0.06705912766382098
1783693667893785600,8.69178564453125,-0.10096271243989467,0.012291691622510552,0.01113748008608818
1783693667903748600,8.70174853515625,-0.05228139137923717,-0.003904167831689119,0.04123400072939694
1783693667913710600,8.711710693359375,0.011394669717550278,-0.030102585057914254,0.05436645402498543
1783693667923672300,8.72167236328125,0.03741583068072796,-0.050465427998453376,0.0172397424839437
1783693667933635600,8.731635498046876,0.016390578308701515,-0.013215017012506722,0.04286847006343305
1783693667943597600,8.74159765625,0.014860300001502036,-0.0009168225839734077,0.05869111229106783
1783693667953560600,8.751560546875,-0.031389409998059274,0.04723477551415562,0.07011793071255087
1783693667963522600,8.7615224609375,-0.08615326584279537,0.06711889502704144,0.058803559689596295
1783693667973485600,8.771485595703124,-0.10834639295041561,0.03998173564597964,0.05037431564889848
1783693667983447600,8.781447509765625,-0.0493523521900177,0.03484415356181562,0.054833194753900166
1783693667993410600,8.79141064453125,-0.0915367124468088,0.025960589882358907,0.010052899719774723
1783693668003372500,8.80137255859375,-0.14493161802589893,0.025600743594020602,-0.035924130818247794
1783693668013335600,8.81133544921875,-0.13815174862742424,0.0009447335042059421,-0.03952244757115841
1783693668023297500,8.821297607421876,-0.09548983398675918,-0.04004647144526243,-0.03448657229579985
1783693668033260500,8.831260498046875,-0.044482700327038764,-0.037280952254682774,-0.022796353697776793
1783693668043222500,8.841222412109374,0.030471710631251335,-0.050058089306578034,0.016034750608354804
1783693668053185500,8.851185546875,0.05651332986056804,-0.031909707545116545,0.04673559382036328
1783693668063147500,8.8611474609375,0.026184242570400237,0.004173705488070846,0.068386503810063
1783693668073109500,8.871109619140626,-0.002955342674255371,0.028850758365914223,0.04984305831640958
1783693668083072500,8.881072509765625,-0.02122223624885082,0.03845408768728375,0.05359072041213512
1783693668093034500,8.891034423828126,-0.07585340562462806,0.04972849202603102,0.035712314698472615
1783693668102997500,8.90099755859375,-0.09384498938918114,0.02548836926072836,0.033138518687710165
1783693668112959700,8.910959716796874,-0.0770107589662075,0.005173895506560802,0.03759089498668909
1783693668122922500,8.920922607421875,-0.08620821090042591,-0.03070924571417272,-0.005003799636662006
1783693668132884500,8.930884521484375,-0.07995908737778663,-0.047272404110804196,-0.021720468094572423
1783693668142847500,8.940847412109376,-0.01218494331240654,-0.040870428114011884,-0.028457813525572417
1783693668152809700,8.950809814453125,0.039189270094037054,-0.022740385726839302,-0.011242913221940397
1783693668162772500,8.9607724609375,0.055634208938479424,0.024219299172982572,0.005066781870275735
1783693668172734500,8.970734375,0.09863222366571425,0.02552672850973904,0.012461349100992083
1783693668182697500,8.980697509765625,0.10654372744262218,0.043544542694091797,-0.009616481063887477
1783693668192659700,8.99065966796875,0.1212391922712326,0.05000109842233359,-0.003478928156942129
1783693668202622500,9.00062255859375,0.07489011355042458,0.03521934354975819,0.00971621511131525
1783693668212584400,9.01058447265625,0.0021925416082143783,0.032578400586917994,-0.010256386402621864
1783693668222547500,9.02054736328125,-0.11888181549012661,0.03261076848655939,-0.034309754424169656
1783693668232509700,9.030509765625,-0.17596973036825656,0.040652036122977735,-0.05663856367543339
1783693668242472400,9.040472412109375,-0.18059212947189807,0.011638853736966848,-0.053874432724341746
1783693668252434400,9.050434326171874,-0.16955518715083598,0.010932824359461664,-0.05182392993532121
1783693668262396700,9.060396728515625,-0.12369710681736469,-0.004689180729538202,-0.047946138653904194
1783693668272359700,9.070359619140625,-0.04554653016626835,-0.01678447299711406,-0.025608123182877897
1783693668282321400,9.0803212890625,0.011975684475898743,-0.00150470547452569,-0.0005345452681183814
1783693668292284400,9.090284423828125,0.03691547994315624,0.0023675328489392994,0.02589789990969002
1783693668302246700,9.10024658203125,0.07149287232756614,-0.004840937225148082,0.04396941704265773
1783693668312209700,9.110209716796875,0.07665010896027087,-0.0028804508071392774,0.05482691114358604
1783693668322171400,9.12017138671875,0.045049686560034746,0.01923822282478213,0.08442432315833866
1783693668332134400,9.130134521484376,-0.009559855505824088,0.018419746048748492,0.0831236158233136
1783693668342096600,9.1400966796875,-0.012075053197145462,0.02096840761825442,0.0733112468611449
1783693668352059600,9.1500595703125,-0.0415051458209753,0.006628259033337235,0.06257905964031815
1783693668362021400,9.160021484375,-0.031118191841244695,-0.020356267069280145,0.03351633902415633
1783693668371984400,9.169984375,-0.013690087178349495,-0.04710143145807087,0.016655220594257114
1783693668381946600,9.179946533203125,-0.015834113469719885,-0.042806803004071116,0.00629851562231779
1783693668391909600,9.18990966796875,-0.01679156032502651,-0.047298999856784936,0.013555866339430213
1783693668401871400,9.199871337890626,-0.03320435046553612,-0.03611636545471847,0.008058364901691675
1783693668411834400,9.20983447265625,-0.0751151544779539,-0.017779475383833048,0.04073357692658901
1783693668421796600,9.219796630859374,-0.14552666130959988,0.045029009098187085,0.05374941810518503
1783693668431758300,9.22975830078125,-0.19776070641577242,0.058239349935576314,0.06336049234159291
1783693668441721300,9.239721435546874,-0.19276947399973868,0.049772915689647194,0.07845854662172495
1783693668451683600,9.24968359375,-0.1369815358042717,0.01380604170821607,0.026493746910989283
1783693668461646600,9.259646484375,-0.0931932474821806,-0.015920257383212445,-0.007590162868052721
1783693668471608600,9.269608642578126,-0.0477443324714899,-0.0399841467987746,-0.0430268024303019
1783693668481571300,9.2795712890625,-0.0048000937581062315,-0.04865845164172351,-0.055397550638392565
1783693668491533600,9.289533447265624,0.026209961533546447,-0.040910613993927834,-0.04017207058630883
1783693668501496300,9.299496337890625,0.030624855366349218,-0.012634586776047944,-0.006148001235723495
1783693668511458300,9.309458251953124,0.022181436669826506,-0.013431217046454547,0.029529972801730035
1783693668521421300,9.31942138671875,0.037844285225868225,0.0033336744673550128,0.06238404852487146
1783693668531383300,9.32938330078125,0.01582300755381584,-0.01800751198604703,0.07611885162778198
1783693668541346300,9.33934619140625,0.00627893413901329,-0.035802769460901614,0.05396181874684989
1783693668551308300,9.349308349609375,-0.0009609539866447448,-0.023267478340864182,0.037237186178192494
1783693668561271600,9.359271484375,0.028629882156848904,-0.025611411118507385,0.05041450152881443
1783693668571233300,9.3692333984375,0.032926118046045304,-0.049633361088484526,0.06950089479275047
1783693668581195300,9.3791953125,-0.041050387790799135,-0.019374270294606685,0.07155234742984175
1783693668591158300,9.389158203125,-0.09398352107703685,-0.008529197283834219,0.04521569077670574
1783693668601120300,9.399120361328125,-0.1555459510207176,-0.020821035036817193,0.053054786904528736
1783693668611083300,9.409083251953126,-0.1719856291681528,-0.03212619984000921,0.030558146805688736
1783693668621045200,9.419045166015625,-0.1525280645042658,-0.024303908716514704,0.0031830870155245064
1783693668631008500,9.429008544921874,-0.07940145349502563,-0.02129508228935301,0.02600961665585637
1783693668640970200,9.43897021484375,-0.07153495790362357,-0.015669862818717954,0.029237127334997056
1783693668650933200,9.448933349609375,-0.059919923433661454,0.04069214893765747,0.03634564416594803
1783693668660895200,9.458895263671875,-0.0002530979782342911,0.026986644994467495,0.03594356617107987
1783693668670858500,9.4688583984375,0.033247020563483234,0.0033013065677136182,0.016425211230665444
1783693668680820200,9.4788203125,0.02638882523179054,0.011158230613172053,0.008537599785998462
1783693668690783200,9.488783203125,0.03559153786301612,0.00394771471247077,-0.015104630151391029
1783693668700745500,9.498745361328124,0.009635258829593658,-0.013392784732207655,-0.04448489228412509
1783693668710708500,9.50870849609375,-0.013192074528336524,-0.018569675913453102,-0.057429129531234496
1783693668720670200,9.518670166015625,-0.058739773738384245,-0.008424348669871688,-0.02107186799272895
1783693668730632200,9.528632080078125,-0.08718670054376125,-0.016172113252431154,-0.011376038082316518
1783693668740595500,9.538595458984375,-0.06565992839038372,-0.03203735251277685,0.013996011322364211
1783693668750557400,9.548557373046876,-0.022169161710143086,-0.016858341950923204,0.04754530276805162
1783693668760520200,9.558520263671875,-0.010393968242406845,-0.00954487713240087,0.0687125939592719
1783693668770482200,9.568482177734374,0.02179915935397148,-0.01140913663432002,0.05506123135611415
1783693668780445400,9.578445556640625,0.07903378922641277,-0.019756912936642765,0.0545147764544934
1783693668790407400,9.588407470703125,0.07766366991698742,-0.0062028732281178235,0.06025003217086196
1783693668800370200,9.5983701171875,0.019575638085603714,0.027230609818175433,0.07749846941791474
1783693668810332400,9.60833251953125,-0.05859188970029354,0.04450476602837443,0.0682116586998105
1783693668820295400,9.61829541015625,-0.12574117986559868,0.015451397762447595,0.004170929009094834
1783693668830257400,9.62825732421875,-0.13608371018171309,-0.004482698372006416,-0.04132138675190508
1783693668840220200,9.63822021484375,-0.16487725846767426,-0.02019961520284414,-0.05970606148727238
1783693668850182400,9.648182373046875,-0.19299509944915771,-0.016939882754534483,-0.08319317392818629
1783693668860145400,9.6581455078125,-0.1720773991048336,-0.02085734845921397,-0.06950410966314376
1783693668870107400,9.668107421875,-0.12634206836819648,0.0036303193263709545,-0.026866891072317958
1783693668880070100,9.678070068359375,-0.0667062225729227,0.009141337832808493,-0.00656922232247889
1783693668890032400,9.688032470703124,-0.0003682487905025482,0.025880729579180476,0.05220255398936569
1783693668899994400,9.697994384765625,0.0018897592693567274,0.04596395186074078,0.09827588450871408
1783693668909957400,9.707957275390624,-0.013949614897370337,0.07826061289682984,0.10506466786600649
1783693668919919400,9.71791943359375,-0.031130466800928114,0.07893909668028354,0.07370718737617135
1783693668929882400,9.72788232421875,-0.0071212301820516586,0.05233231784887612,0.03827317816242575
1783693668939844400,9.73784423828125,0.04644786292016506,0.021091303345561026,-0.017714520388841627
1783693668949807400,9.747807373046875,0.09350012147426605,-0.0034890842247754334,-0.046939445829391475
1783693668959769300,9.757769287109374,0.09850070624053478,-0.025813144235685467,-0.06892901318892836
1783693668969732400,9.767732421875,0.08011866185367107,-0.01954093209840357,-0.10958725985698402
1783693668979694300,9.7776943359375,0.028981179812550543,-0.012338014982268214,-0.05889942127950489
1783693668989657300,9.7876572265625,-0.01918108581006527,0.016834888010099528,0.005437587944045663
1783693668999619300,9.797619384765625,-0.06888181304633617,0.027529738895222543,0.03526829725801944
1783693669009582300,9.807582275390626,-0.0972229413896799,0.03930778190717101,0.0823689980637282
1783693669019544300,9.81754443359375,-0.09688041156232356,0.025575024630874393,0.09728964995034038
1783693669029507300,9.82750732421875,-0.10477847133576869,0.026752178651466965,0.08828530943542719
1783693669039469300,9.83746923828125,-0.08456044369339942,0.04849697746969759,0.08031484201289713
1783693669049432300,9.847432373046875,-0.04323240800499916,0.04669394663572311,0.07063296756260097
1783693669059394300,9.857394287109376,-0.016247370445728302,0.00020713994465768336,0.052735491822287435
1783693669069356300,9.867356201171875,0.02151975789070129,-0.020602277719601988,0.020379355683922767
1783693669079319300,9.8773193359375,0.0019786065965890884,-0.012063801150768995,0.011142010130733251
1783693669089281300,9.88728125,-0.023244097465276718,-0.01327507663667202,-0.0015305705681443213
1783693669099244300,9.897244384765624,-0.02825637266933918,-0.002248363448679447,0.011583689483627676
1783693669109206300,9.907206298828125,-0.025311551389098165,0.021162468885630368,0.013085691544413566
1783693669119169300,9.917169189453125,-0.024009236618876457,0.021251900734752416,0.016742241290584204
1783693669129131300,9.92713134765625,-0.028864275434613226,0.026597134220227598,0.031027371752634644
1783693669139094300,9.93709423828125,-0.031924247527122494,0.04573876480273902,0.037930283008888364
1783693669149056300,9.94705615234375,-0.023451602736115455,0.04425437146387994,0.03782850313484668
1783693669159019300,9.957019287109375,-0.03429331474602222,0.038520869313180446,0.05119907603524625
1783693669168981200,9.966981201171874,-0.06068272449970245,0.03494447213113308,0.023795374672487376
1783693669178944300,9.9769443359375,-0.05445931994020939,0.03160604842342436,0.004509586378931999
1783693669188906500,9.986906494140625,-0.04703180028796196,-0.004122486757487058,-0.020210648053511977
1783693669198869200,9.996869140625,-0.04347323102355003,-0.006573240910470486,-0.059874330726265905
1783693669208831200,10.006831298828125,-0.04787351180911064,-0.006011880700662732,-0.08781491544470191
1783693669218793500,10.01679345703125,-0.057227615609765047,-0.01475055601671338,-0.01852422933652997
1783693669228756500,10.026756591796875,-0.01825286504924297,0.012815350170433521,0.026539339618384835
1783693669238718200,10.03671826171875,-0.01161678803563118,-0.007514101957157254,0.0019978958189487456
1783693669248681200,10.04668115234375,-0.035195816543698306,-0.017187793100997804,0.006086041915416717
1783693669258643500,10.0566435546875,-0.07047697328329086,-0.003711348673328757,0.022989172856137156
1783693669268606500,10.0666064453125,-0.04710661908984184,-0.00012910627238452434,0.06016016193032264
1783693669278568200,10.076568115234375,-0.022356208714842795,0.015425459603592753,0.09186024531275033
1783693669288531200,10.08653125,-0.05250818587243557,0.03932268721535802,0.10247019439339637
1783693669298493400,10.096493408203125,-0.03539455398619175,0.029145941920205948,0.11917568387016653
1783693669308456400,10.10645654296875,-0.018313655325770378,0.03800290985368192,0.09598265900500118
1783693669318418200,10.116418212890625,-0.03925649011135101,0.023088760773092507,0.0590722936283797
1783693669328381200,10.126381103515625,-0.061414545905590055,-0.008923091972246765,0.042227103419974446
1783693669338343400,10.136343505859376,-0.032708675903081894,-0.02566431034952402,0.02022000040374696
1783693669348306400,10.146306396484375,-0.03734451901018619,-0.018007073594629764,-0.007137742925435305
1783693669358268200,10.15626806640625,-0.08443360244333743,-0.01006327498331666,-0.0361253524787724
1783693669368230400,10.16623046875,-0.07401449975967407,-0.012236162042990327,-0.03985124113410711
1783693669378193400,10.176193359375,-0.025924714851379392,-0.015228841052949428,-0.03176686500832438
1783693669388155100,10.186155029296875,-0.018733342042565344,-0.01431640238314867,0.041124768201261756
1783693669398118100,10.1961181640625,-0.05062953251898288,-0.005060790520906448,0.013178265198692678
1783693669408080400,10.206080322265626,-0.1261363166630268,0.006196516552567481,-0.021296251333132385
1783693669418043400,10.21604345703125,-0.16773089433312416,0.04210851854160428,0.013117547987401485
1783693669428005000,10.226005126953124,-0.16838789693713188,0.06482903052419424,0.03840199217386543
1783693669437968100,10.235968017578125,-0.1068476788252592,0.027923779714107512,0.052398076561465855
1783693669447930400,10.245930419921875,-0.017463760498166083,-0.00911868760958314,0.06986220238581299
1783693669457893400,10.255893310546876,0.048043607679009434,-0.03352788333147764,0.0559608105443418
1783693669467855000,10.265855224609375,0.05424304684102535,-0.037805268389731646,0.015736936705559493
1783693669477818400,10.275818359375,0.04761106148064136,-0.02867284451574087,0.03704590138979256
1783693669487780400,10.2857802734375,0.02667524095773697,-0.013871362029388545,0.022266776865720747
1783693669497743400,10.295743408203125,0.03631400691866875,-0.0043387598566710945,0.017619389451295136
1783693669507705300,10.305705322265625,0.02667641000151634,-0.0025534108098596332,0.01976546156927943
1783693669517668600,10.315668701171875,-0.0270703777551651,0.032906901888921855,0.0238427940107882
1783693669527630300,10.32563037109375,-0.053150575429201125,0.06428425612300634,0.05226502476632595
1783693669537592300,10.33559228515625,-0.03661620473563671,0.03806728032678366,0.06357486574463546
1783693669547555300,10.345555419921874,-0.05856500169336795,0.016512524187937378,0.038864202858135105
1783693669557517300,10.355517333984375,-0.0962859528005123,-0.02044087661281228,-0.022122546089440583
1783693669567480300,10.365480224609374,-0.14124971464276312,-0.03427366019748151,-0.05758022843971848
1783693669577442300,10.3754423828125,-0.16112871958911418,-0.03996829164251685,-0.08098784590363502
1783693669587405600,10.385405517578125,-0.16476678383052348,-0.01538162046186626,-0.0871169232431799
1783693669597367300,10.3953671875,-0.11758943759202957,0.011681596900150179,-0.02616334591284394
1783693669607330300,10.405330322265625,-0.04843465282320976,0.025338804722204802,0.05084405205249786
1783693669617292300,10.415292236328124,-0.013282090899348259,0.0677904376130551,0.07350457747615874
1783693669627255600,10.425255615234375,-0.045483986324071884,0.07716960278972983,0.12665953681953251
1783693669637217300,10.43521728515625,-0.10146306317746638,0.0720873310893774,0.12654423987679184
1783693669647180300,10.44518017578125,-0.08948387157022952,0.07066745435409247,0.08043912597969174
1783693669657142500,10.455142578125,-0.03307634017169475,0.027472017358615992,0.07599149892106652
1783693669667105500,10.46510546875,0.025278818163275717,-0.02090812879838049,0.06146203830912709
1783693669677067300,10.4750673828125,0.08100479703843592,-0.028598537170514464,0.026806612252444028
1783693669687029200,10.485029296875,0.09289104966521262,-0.019617723661661146,-0.01968457835279405
1783693669696992500,10.494992431640625,0.10953414143025875,-0.013539791987463832,-0.03640584992058575
1783693669706954500,10.50495458984375,0.10741057340502738,0.0025351445008069276,-0.026347470308095214
1783693669716917500,10.51491748046875,0.039786651465296745,0.0379204192019999,-0.08258015659637749
1783693669726879200,10.524879150390625,-0.04026245228350162,-0.006518295852839947,-0.05817264137491583
1783693669736842500,10.534842529296874,-0.038491350957751275,0.014570961666107177,-0.050225554827973244
1783693669746804500,10.544804443359375,-0.08010463332831859,0.01529562267884612,-0.04002418654821813
1783693669756767500,10.554767578125,-0.10250292761921882,0.017536825734376905,-0.02789521120674908
1783693669766729500,10.5647294921875,-0.056660629376769064,0.007675210803002119,0.008515607149899006
1783693669776692500,10.5746923828125,-0.039625907945632935,0.0012440087117254733,-0.0027754560627043247
1783693669786654500,10.584654541015626,-0.1793880143791437,0.009457344979420303,-0.13223514499478042
1783693669796617500,10.594617431640625,-0.219552266985178,-0.009605959669873118,-0.053211731031909584
1783693669806579500,10.604579345703126,0.0821387695044279,0.08049750510342418,0.1593999230351299
1783693669816542500,10.61454248046875,0.4101449814677238,0.13893376585058867,0.29114363125115633
1783693669826504400,10.62450439453125,0.42418928891122337,0.2272221440259367,0.3558656212043017
1783693669836467500,10.634467529296876,0.6085200203895569,0.005369418078660965,0.5892949493072926
1783693669846429400,10.644429443359375,0.018517068943381308,-0.0355366658706218,0.11796513903662562
1783693669856391400,10.654391357421876,-0.552804562908411,-0.09852861716076732,-0.3462274397652596
1783693669866354400,10.6643544921875,-0.7203957565099001,-0.17360270897597074,-0.3528979305051267
1783693669876316400,10.67431640625,-0.7279734982877969,-0.2262107750263065,-0.41005876448899503
1783693669886279400,10.684279541015625,-0.805509157910943,-0.09257328895293175,-0.39222302887327964
1783693669896241400,10.694241455078124,-0.8588339208632707,0.005627849819138646,-0.298003214822337
1783693669906204400,10.704204345703126,-0.6110732120037079,0.04872399115860462,-0.1706754233524203
1783693669916166400,10.71416650390625,-0.2617699449896812,0.10473083280175924,0.04863872402794659
1783693669926129400,10.72412939453125,-0.05349368977844715,0.18688691876716912,0.3385602661382407
1783693669936091400,10.73409130859375,0.04688391624987125,0.15375008057989178,0.4084155273266136
