time,seconds_elapsed,z,y,x
1783693623665441800,0.06044189453125,-0.05898819554150104,0.013053871634043753,0.09184680130928755
1783693623675403800,0.07040380859375,-0.05262742833793163,-0.0013830518562346697,0.050581017202138895
1783693623685366800,0.08036669921875,-0.08732698579728602,-0.0008913593491539359,0.015474997833743691
1783693623695328800,0.090328857421875,-0.12821721459031105,-0.012320661988668142,-0.00980155530720949
1783693623705291800,0.100291748046875,-0.12975859881341456,-0.007126235150732099,-0.02543525083400309
1783693623715253800,0.110253662109375,-0.0420627797037363,-0.00979256828315556,-0.021606413260847328
1783693623725216800,0.120216796875,0.07065700602531433,-0.019452267434261736,-0.018889847778528927
1783693623735178800,0.1301787109375,0.12505962734222412,-0.0052021717529743905,-0.022128610504046083
1783693623745141800,0.140141845703125,0.15259469999969005,0.009775032626464963,0.005138678062707186
1783693623755103700,0.150103759765625,0.13944061939418315,0.011025105752795934,0.05826419211588799
1783693623765066800,0.160066650390625,0.11478840869665145,0.03348481137473136,0.09507394666224718
1783693623775028700,0.17002880859375,0.11565467013716697,0.019302118373848497,0.08303074990808963
1783693623784991700,0.17999169921875,0.08421206864714623,-0.016217815557681023,0.02276413192860782
1783693623794953700,0.18995361328125,0.04995090260505676,-0.02909936283212155,-0.02729702611789107
1783693623804916700,0.199916748046875,0.07058218722343444,-0.030831008930318055,-0.05132248321920633
1783693623814879700,0.209879638671875,0.09138824388682841,-0.02641874544601887,-0.027952421286702153
1783693623824841700,0.219841796875,0.056798576542735096,-0.01333604957628995,-0.002652341139689088
1783693623834804700,0.2298046875,0.021259061127901074,0.03238762725517154,0.016289163760840893
1783693623844767000,0.23976708984375,-0.03400046927928924,0.0639896205579862,0.05164418945424258
1783693623854729700,0.249729736328125,-0.1458119079917669,0.08740151233822106,0.05177146909572184
1783693623864691700,0.259691650390625,-0.21618717446625232,0.04748243013229221,-0.03148834032788873
1783693623874654700,0.26965478515625,-0.25032792899906636,0.056784182691201564,-0.03581029518023133
1783693623884617000,0.279616943359375,-0.22269991736114023,0.05256809936612844,-0.04346592449992895
1783693623894579700,0.289579833984375,-0.16730536239743232,0.010547222575359045,-0.014370762918889522
1783693623904541700,0.299541748046875,-0.14654139131009578,-0.02312814293541014,-0.0016461597718298434
1783693623914504700,0.309504638671875,-0.13060849364101887,-0.009313625659793615,0.015481354509294032
1783693623924467000,0.319467041015625,-0.0843394944190979,-0.023405425506830214,0.07489588570408523
1783693623934430000,0.329429931640625,-0.11132570102214813,-0.036644079123251135,0.06718735715337097
1783693623944391700,0.3393916015625,-0.14620996739864348,0.0231798365900293,0.026464959207922217
1783693623954354700,0.349354736328125,-0.1028571478843689,0.041948688337393104,0.039816754342615605
1783693623964317000,0.35931689453125,-0.006538461858034134,0.02210855409670621,0.08096855668127537
1783693623974280000,0.369280029296875,0.08543781104981898,0.026129443643242118,0.09392799149751663
1783693623984241700,0.37924169921875,0.1620738914847374,0.058672407590597865,0.09139321232289076
1783693623994204700,0.38920458984375,0.16547405531704426,0.06946143956519663,0.08582527599744498
1783693624004167700,0.399167724609375,0.13497370311319828,0.04187580576427281,0.03274835032634437
1783693624014130000,0.4091298828125,0.1489981368124485,0.00413768432661891,-0.00794423700273037
1783693624024092700,0.4190927734375,0.10755261222422122,-0.015197569131851196,-0.07656776443906128
1783693624034054700,0.4290546875,0.017525135296583175,0.0025155995501205323,-0.1193070551648736
1783693624044017700,0.439017578125,-0.03114624889194965,-0.004676430845819413,-0.09907054201774299
1783693624053980000,0.44897998046875,-0.029051322439312934,-0.007041004552692174,-0.07082374089434743
1783693624063942700,0.458942626953125,0.009563947159051895,0.03073854487389326,-0.025501301807537673
1783693624073904600,0.468904541015625,-0.009928104296326637,0.07086535154636948,0.053938876262679694
1783693624083868000,0.478867919921875,-0.10431962165236472,0.07210797201860696,0.06164141346402466
1783693624093830000,0.488829833984375,-0.17646423588693141,0.08616448135655373,0.04620031789988279
1783693624103792600,0.498792724609375,-0.2074339591681957,0.061008595453202724,0.02636390998624265
1783693624113754600,0.508754638671875,-0.20895313155949113,0.02444423050265759,-0.02379464402012527
1783693624123718000,0.5187177734375,-0.17579671188890933,0.004060600502416491,-0.032358255030214784
1783693624133679900,0.528679931640625,-0.11427812108695506,-0.027865948579646645,-0.034193946024775504
1783693624143642600,0.538642578125,-0.06449965243935585,-0.03894216346517205,-0.03411759285293519
1783693624153605600,0.548605712890625,-0.04096387855112552,-0.020353490590304134,-0.021003113605454562
1783693624163567900,0.55856787109375,-0.041944706282019614,0.015183431008644402,0.005204144514352083
1783693624173531000,0.56853076171875,-0.03663490943610668,0.05518726888857781,0.058907604585960505
1783693624183492600,0.57849267578125,-0.05643851105868816,0.050662959864549335,0.057018429838493465
1783693624193455600,0.58845556640625,-0.007447393396496772,0.04353562873527407,0.04322174048051238
1783693624203417900,0.59841796875,0.09203881675004959,0.048103301976993675,0.0795720608215779
1783693624213380900,0.608380859375,0.13781740210652352,0.07027242715451866,0.10577135483063757
1783693624223342600,0.618342529296875,0.14008476251661778,0.031108547230064867,0.09801862181201576
1783693624233305600,0.6283056640625,0.12416764693856239,-0.0010370879627764225,0.03542831012532115
1783693624243267800,0.638267822265625,0.07988952927291393,-0.037694026567600666,-0.031092984334751963
1783693624253230800,0.64823095703125,-0.013726912057399749,-0.022142200637981294,-0.06271357274018227
1783693624263192600,0.658192626953125,-0.061142158704996105,0.02680891380738467,-0.06918503377661109
1783693624273155600,0.668155517578125,-0.08424597091674804,0.015768427822366357,-0.05955693534016609
1783693624283118800,0.678118896484375,-0.14002572580575942,-0.09220449217315763,-0.08189115141890943
1783693624293080800,0.688080810546875,-0.13930559483766555,-0.03354483446627855,-0.0426426984835416
1783693624303043800,0.6980439453125,-0.13504033860862255,0.013296192489936947,0.028280776458233594
1783693624313005600,0.708005615234375,-0.12620762833356858,0.03872231016941368,0.13579977867379783
1783693624322968800,0.71796875,-0.11989070027172564,0.08164627327974885,0.18509258269630371
1783693624332930800,0.727930908203125,-0.19051263498365878,0.08575663120802492,0.19837788846604526
1783693624342893800,0.737893798828125,-0.2774468220710754,0.07795516367685049,0.20831563737355172
1783693624352855800,0.747855712890625,-0.31732056729793545,0.05288425264321267,0.1655244703300297
1783693624362818800,0.75781884765625,-0.28151217181384564,0.02087313055023551,0.14517368315346538
1783693624372780800,0.76778076171875,-0.21717793906927108,0.02351896888390183,0.14112550374120472
1783693624382743800,0.777743896484375,-0.16726444586515427,0.032351752224192024,0.1163994240898639
1783693624392705800,0.787705810546875,-0.11304477989971637,0.04208780454713851,0.07958112091086804
1783693624402668800,0.797668701171875,-0.10236498045325279,0.06036605976596474,0.022764424189552664
1783693624412631800,0.8076318359375,-0.048854924061894414,0.054872686514072115,-0.02178571535050869
1783693624422593800,0.81759375,0.042456162935495374,0.02784147172551602,-0.03724178928807378
1783693624432556800,0.827556884765625,0.14780571215748786,-0.023236206419765947,-0.06345547714866698
1783693624442518800,0.837518798828125,0.22228432229757308,-0.05185523838903754,-0.07525156727395951
1783693624452482000,0.84748193359375,0.27471242867112156,-0.019823219638504086,-0.03227116126865148
1783693624462443800,0.85744384765625,0.3275368408858776,0.0012372867099940776,0.018968612103164195
1783693624472406800,0.86740673828125,0.32119010220766064,0.020101890449412164,0.04886924484819174
1783693624482369000,0.877369140625,0.25042320606708524,0.05544288761746138,0.048623526458814736
1783693624492332000,0.88733203125,0.15027531714141368,0.06977971173413097,0.03570603108815849
1783693624502293800,0.897293701171875,0.03383446506261825,0.04257171560656279,0.017833397528156637
1783693624512256800,0.9072568359375,-0.12168050629794597,0.046137956720776856,-0.03723828215673566
1783693624522219000,0.917218994140625,-0.2560726101309061,0.0359808659741655,-0.06931362859234214
1783693624532182000,0.92718212890625,-0.3210661835670471,0.033038528911955654,-0.06423427950143813
1783693624542144800,0.937144775390625,-0.3110983317822218,0.03740300773177296,-0.019930077546462414
1783693624552106800,0.947106689453125,-0.34215281073749065,0.04653671024739742,0.0053861500177532435
1783693624562070000,0.957070068359375,-0.3639180678218603,0.06084752313997596,-0.001844897214323282
1783693624572032000,0.967031982421875,-0.35118893463015555,0.039404776008240876,-0.027850422216951845
1783693624581994800,0.976994873046875,-0.24951369000673293,0.018175269768387077,-0.05148483417406678
1783693624591956700,0.986956787109375,-0.13850012367367745,0.030566805036179718,-0.029655279681831598
1783693624601920000,0.996919921875,-0.010626607954502106,0.0193817960139364,0.008689648542553186
1783693624611882000,1.006882080078125,0.059625908923149104,0.01470167537368834,0.028207418961077927
1783693624621845000,1.016844970703125,0.08485270463824271,0.011382504355721175,0.0173045513484627
1783693624631807000,1.026806884765625,0.0870411545932293,0.020710889193229377,0.02043013602308929
1783693624641770000,1.03677001953125,0.1086298860669136,0.018983882737532258,0.03398512557968497
1783693624651732000,1.04673193359375,0.14497078099250793,-0.0023788214279338716,0.02214183531180024
1783693624661695000,1.056695068359375,0.1215221008658409,-0.007446918472461402,-0.03939589858204126
1783693624671657700,1.06665771484375,0.08034954800009728,0.002099566095136106,-0.05740881739556789
1783693624681620000,1.076619873046875,0.06274374868273734,0.004426730401068926,-0.05761252327412367
1783693624691583000,1.0865830078125,0.056223407003283495,-0.002733918475918472,-0.04651449841558933
1783693624701545000,1.096544921875,-0.006309913799166679,0.008431034138984978,-0.04322605132944882
1783693624711507700,1.1065078125,-0.0014870236873626708,0.009745587336272,-0.03258000802211463
1783693624721470000,1.116469970703125,0.027731472012400626,-0.0007819806905463337,0.009212722568586467
1783693624731433000,1.126432861328125,0.0007785831570625305,0.015202245306968688,0.010035217932611704
1783693624741395000,1.13639501953125,-0.07037702004015445,0.022170403819158673,-0.0017985007893294095
1783693624751357700,1.146357666015625,-0.18316519483029842,0.05162139310054481,0.02225041025280952
1783693624761320000,1.15631982421875,-0.2943623010367155,0.03729362907316536,0.006678016459196806
1783693624771283000,1.166282958984375,-0.33299335272610187,0.0057807753585278985,-0.02266556692495942
1783693624781246000,1.176245849609375,-0.2984358340859413,-0.022924765850417316,-0.02976575431898236
1783693624791207700,1.186207763671875,-0.2224444812953472,-0.03624828473869711,0.038847397853806614
1783693624801171000,1.1961708984375,-0.10149988805651664,-0.03076864775121212,0.08246383674032985
1783693624811133000,1.2061328125,0.000028057050704956055,-0.020278598723188043,0.1238227790236473
1783693624821096000,1.216095947265625,0.03805354406237602,-0.015934687767364085,0.1271252546351403
1783693624831057700,1.2260576171875,0.07098959898054599,-0.0034950755741447207,0.12060856621749698
1783693624841021000,1.23602099609375,0.07327858670055866,0.018458653287030755,0.1087817886929959
1783693624850983000,1.24598291015625,0.052775312376022336,0.04460702082645148,0.05374057721160352
1783693624860946000,1.25594580078125,0.06965338194072246,0.004678805465996265,0.015329086557030677
1783693624870908000,1.265907958984375,0.11040274095833301,-0.03237579068690538,-0.029677126187458634
1783693624880871000,1.275870849609375,0.137411743915081,-0.040984957871772344,-0.08084120397455989
1783693624890833000,1.2858330078125,0.1089654016315937,-0.060981488250568504,-0.10932554018087684
1783693624900796000,1.2957958984375,0.04598901323676109,-0.06154061997067183,-0.16351020789816975
1783693624910759000,1.305759033203125,-0.04236205491125583,-0.024358451915346083,-0.19131985971331594
1783693624920721000,1.315720947265625,-0.08975742781460284,0.00665131111536175,-0.14677476167455314
1783693624930684000,1.325683837890625,-0.08101765652000903,0.005936696572601795,-0.08560206170082092
1783693624940646000,1.33564599609375,-0.09824351660907268,0.02353851383458823,-0.022266338474303482
1783693624950609000,1.34560888671875,-0.14184125079512594,0.0017161197355017065,-0.00015438684411346913
1783693624960571000,1.35557080078125,-0.1219400340169668,-0.00714399000313133,0.04133417316824198
1783693624970534000,1.365533935546875,-0.07102467029392719,-0.0263784134356305,0.10587298857420682
1783693624980496000,1.375495849609375,-0.003988192853331566,-0.05681326265521347,0.15395437098033726
1783693624990459000,1.385458984375,0.015108721804618835,-0.04804101386312395,0.16342391785420476
1783693625000420900,1.3954208984375,0.03966799352169036,-0.055376580915600056,0.17773768988884983
1783693625010384000,1.4053837890625,0.025986089649796484,-0.079761665109545,0.16826353990510104
1783693625020345900,1.415345947265625,-0.024546996757388112,-0.06379519396442919,0.16668321191109717
1783693625030308900,1.425308837890625,-0.11476736590862273,-0.0326493469312787,0.1229438042320311
1783693625040272000,1.43527197265625,-0.17609715614020824,-0.030095351599529384,0.07933386815153062
1783693625050233900,1.44523388671875,-0.19205927990376948,-0.043389607860706746,0.052782107442989945
1783693625060196900,1.45519677734375,-0.1602998675495386,-0.06939122387319803,-0.012269479790702462
1783693625070158800,1.465158935546875,-0.13472703487575052,-0.059659007475152605,-0.029768019341304897
1783693625080122000,1.4751220703125,-0.12280571093559264,-0.018450908371992408,-0.04433627759367227
1783693625090083800,1.485083740234375,-0.11931786881983279,-0.001420095930993557,-0.02365786589793861
1783693625100046800,1.495046875,-0.10227554860413074,0.022302140440046785,0.002375643090158701
1783693625110008800,1.5050087890625,-0.07059446218311786,0.016147234539501367,0.005397840455546975
1783693625119972000,1.51497216796875,-0.009116203391551971,0.010945428112708032,0.019485110257938504
1783693625129933800,1.524933837890625,0.09340835153758525,-0.015897022638097405,0.03077515055723488
1783693625139896800,1.534896728515625,0.14480945295095443,-0.019276728204265237,0.04321297265216708
1783693625149859000,1.544859130859375,0.19918167912960053,-0.007000234150886535,0.05436586950309574
1783693625159822000,1.554822021484375,0.20524492469131944,-0.0039012817548587917,0.047993338796496386
1783693625169784800,1.564784912109375,0.18103636610805987,0.02304477550089359,0.07006546987295151
1783693625179746800,1.574746826171875,0.1291518650919199,0.019062537464313207,0.08303250347375869
1783693625189709800,1.584709716796875,0.05348199934065342,0.0029292949175462124,0.09076528968289493
1783693625199672000,1.594672119140625,-0.020524901634454727,0.0018836217895150183,0.06040778001584112
1783693625209634800,1.604634765625,-0.08629822727143764,-0.004608735904470086,0.01403057117909193
1783693625219596800,1.6145966796875,-0.1369850429356098,-0.00065692953877151,0.0056266077101230615
1783693625229559800,1.624559814453125,-0.15659341424703596,-0.0004089461270719766,0.023653920375183223
1783693625239522000,1.63452197265625,-0.18208324481248855,-0.011300159834511577,-0.009485109769180416
1783693625249484800,1.64448486328125,-0.12949439491927622,-0.015499986144527793,-0.024546119974553585
1783693625259446800,1.65444677734375,-0.0796639038234949,-0.05343268030621111,-0.010939838622137904
1783693625269409800,1.664409912109375,-0.04349310476779938,-0.05547817812655121,-0.027013971392810344
1783693625279373000,1.674373046875,-0.0002262099713087082,-0.06460420879237354,-0.03247084855921566
1783693625289334800,1.684334716796875,0.055853989169001576,-0.005440218292549252,0.02533668583035469
1783693625299297800,1.6942978515625,0.07979425220489501,0.040688641806319356,0.11896817859932779
1783693625309259800,1.704259765625,0.059656888583302495,0.0752602620370686,0.16736279167309404
1783693625319223000,1.71422314453125,0.02510755324959755,0.0768203874932602,0.14456526893153787
1783693625329185000,1.72418505859375,-0.011948211947083473,0.030991788982599973,0.0846621505022049
1783693625339147800,1.734147705078125,-0.04793137947618961,-0.014076310016959906,0.015548866787552833
1783693625349110000,1.744110107421875,-0.060135612010955804,-0.047700274134054775,-0.05398490736149251
1783693625359073000,1.754072998046875,-0.07232640054225921,-0.07129734975546598,-0.10191899025142193
1783693625369035000,1.764034912109375,-0.08108370749354361,-0.08965334638562053,-0.09752879246845841
1783693625378997800,1.773997802734375,-0.07267769819796085,-0.04121555175725371,-0.08206731170341372
1783693625388960800,1.783960693359375,-0.10188333441615104,0.008784706414863466,-0.022558453288674354
1783693625398923000,1.793923095703125,-0.11104513051509857,0.01479855987690389,0.01434665139093995
1783693625408886000,1.803885986328125,-0.07818506344258785,0.032657128378935155,0.02932356350943446
1783693625418847700,1.81384765625,-0.09562895019650458,0.05752385860998183,0.04521035701446235
1783693625428810800,1.823810791015625,-0.07494330504238605,0.055710123718902466,0.04448277339227497
1783693625438773000,1.83377294921875,0.023408348116278645,0.03694835929945111,0.03200198893845081
1783693625448736000,1.843736083984375,0.11058277370035648,0.0004141702914610505,0.005890884669497609
1783693625458697700,1.85369775390625,0.1220756430953741,-0.03620327655319124,-0.030509996815025805
1783693625468660700,1.86366064453125,0.019874328771233556,-0.020606844296865164,-0.04484897635616362
1783693625478623000,1.873623046875,-0.11338847877085208,0.037565285621397194,-0.04202639321610331
1783693625488586000,1.8835859375,-0.1776461391478777,0.07021368270460515,0.013451309986412524
1783693625498548700,1.893548828125,-0.2147153483480215,0.08436280222944915,0.022902298290282487
1783693625508510700,1.9035107421875,-0.17253566426634787,0.07929306121710687,0.03826908650919795
1783693625518474000,1.913473876953125,-0.11382219401299953,0.058796362763829525,0.05007262928858399
1783693625528436000,1.92343603515625,-0.06204816763401031,0.03353201151732355,0.016273673930764197
1783693625538398700,1.933398681640625,0.0018277999490499495,-0.008084668386727572,-0.007405673146620393
1783693625548360700,1.943360595703125,0.046861119896173475,-0.022985775322653352,-0.00896430076546967
1783693625558324000,1.953323974609375,0.019772621962428093,-0.01970240627042949,0.006963555402308702
1783693625568286000,1.963285888671875,-0.02972644522190094,-0.014835969277843832,0.012085355395451188
1783693625578248700,1.973248779296875,-0.01857376756668091,-0.015455124089494347,0.02769099387153983
1783693625588211000,1.9832109375,-0.0057137014716863626,-0.030385968576557933,0.03368775006830692
1783693625598174000,1.993174072265625,0.0513783050596714,-0.022756460078805683,0.09795308229513466
1783693625608137000,2.003136962890625,0.11020166542828082,0.012265205474384129,0.14362214286252856
1783693625618098700,2.0130986328125,0.16266016694009303,0.01846632513683289,0.15446064000204204
1783693625628061700,2.023061767578125,0.1427151110202074,0.04798584960978478,0.18723741270527242
1783693625638024000,2.03302392578125,0.03490530916452408,0.0855560306020081,0.20320479716584086
1783693625647987000,2.042987060546875,-0.12185820095241069,0.10913063866328447,0.13859825028590858
1783693625657948700,2.05294873046875,-0.20795827530324457,0.06574435527082532,0.06632182636521756
1783693625667911700,2.06291162109375,-0.19480477921962736,0.019231062431633472,0.000038140053302049634
1783693625677874000,2.0728740234375,-0.11985036826133727,-0.030332667486742137,-0.02082183875441551
1783693625687837000,2.0828369140625,-0.0640524931937456,-0.06621102293450384,-0.05261413046494126
1783693625697799000,2.092798828125,-0.002412321838736534,-0.03187302879653871,-0.037611791644245385
1783693625707761700,2.10276171875,0.03918167130947113,0.015141345432586967,-0.0225351454783231
1783693625717725000,2.112724853515625,0.026560674667358397,0.033234709071181714,0.0026211422838270664
1783693625727687000,2.12268701171875,-0.0558919830918312,0.07900204238127917,0.005206994058564305
1783693625737650000,2.13264990234375,-0.1138192714035511,0.0923068931017071,-0.003947203255817294
1783693625747611600,2.142611572265625,-0.13386018891334533,0.04633844772893935,-0.018042510234192014
1783693625757575000,2.152574951171875,-0.08655600142478942,0.030159356746450063,-0.039947394984960555
1783693625767537000,2.162536865234375,-0.03746493051946163,-0.02660685189664364,-0.08582410695366562
1783693625777500000,2.1725,-0.013793547552824019,-0.05137169265579432,-0.08211575395502149
1783693625787461600,2.182461669921875,-0.011181903749704361,-0.060816287751495834,-0.0878060745511204
1783693625797425000,2.1924248046875,-0.03205284234285354,-0.02082231367845088,-0.06512370262183248
1783693625807388000,2.202387939453125,-0.06248655905127525,0.01762684210538864,-0.028456863677501675
1783693625817350000,2.212349853515625,-0.0762397745937109,0.032714228861033916,0.035509631733223794
1783693625827313000,2.22231298828125,-0.05570201347768306,0.04461575212217867,0.0481128735229373
1783693625837275000,2.23227490234375,-0.10333645583391189,0.028845899527706203,0.016749913140386343
1783693625847238000,2.24223779296875,-0.09731997202336788,0.01203892243783921,-0.0080065616492182
1783693625857199900,2.252199951171875,-0.021034604722261426,-0.018729250389337537,0.008285890047252178
1783693625867163000,2.262162841796875,0.041356092739105225,-0.018149514272622763,0.014943886631727217
1783693625877124900,2.272124755859375,0.02342120759785175,-0.0021063976947218177,0.00820529909171164
1783693625887087900,2.282087890625,-0.038783027380704875,0.015550181961804627,-0.02272496896199882
1783693625897049900,2.2920498046875,-0.08076338949799537,0.0008473740769550204,-0.01720423277914524
1783693625907012900,2.302012939453125,-0.08954641541242599,-0.011435440119355916,-0.0038503187526017424
1783693625916975600,2.3119755859375,-0.1074666875064373,-0.003837751531973481,-0.0024012889880687
1783693625926937900,2.321937744140625,-0.11161211674809456,0.016686565580591558,0.016657777877524493
1783693625936900900,2.33190087890625,-0.054098085412383076,0.025605602432228623,0.032799861317873
1783693625946862800,2.34186279296875,0.0180599728256464,0.028563319726660846,0.05093794088102877
1783693625956825900,2.351825927734375,-0.003950783452391624,0.054661089590005575,0.05232435373812914
1783693625966787800,2.361787841796875,-0.07446107448339462,0.051270606901496645,0.028366262784600256
1783693625976750800,2.371750732421875,-0.07374211255908011,0.03603318068329245,0.026663696650415656
1783693625986712800,2.381712890625,-0.08891980794668197,0.001362849318422377,0.027384996662288903
1783693625996676000,2.391676025390625,-0.06013268940150737,-0.01871299337428063,-0.006478913690522313
1783693626006637800,2.401637939453125,-0.017312369328737257,0.0027648250708356497,0.031045199670270085
1783693626016600800,2.411600830078125,0.00025017536878585813,-0.024677783530205485,0.09615202422253787
1783693626026563800,2.421563720703125,0.013840309303998946,0.010146350156888365,0.07803257629461587
1783693626036526000,2.431526123046875,-0.028832126730680464,0.01231719138994813,0.07239566638618707
1783693626046488800,2.44148876953125,-0.04536415933668613,0.0072855173656716935,0.053883346683159465
1783693626056450800,2.451450927734375,-0.020278817918896675,-0.003068338062055409,0.031234292501583695
1783693626066413800,2.461413818359375,-0.03736439275443554,-0.008234086794778704,0.03784669637866318
1783693626076376000,2.4713759765625,-0.04574292952120304,-0.014093151553906499,-0.007193930092081427
1783693626086338800,2.4813388671875,-0.06246785435080528,-0.010111132713034748,0.0008717413332313299
1783693626096300800,2.49130078125,-0.05284954665601253,-0.03239434925690293,0.02734561449997127
1783693626106263800,2.501263916015625,-0.054932782670855516,-0.008746127970144152,0.011705196971446275
1783693626116226000,2.51122607421875,-0.056742462441325185,0.015006832332722842,0.0303648161906749
1783693626126188800,2.521188720703125,-0.06666822865009307,-0.004418583627231419,0.04302687549553811
1783693626136151800,2.53115185546875,-0.03312777809798717,0.011309073793329297,0.023015184080228207
1783693626146113800,2.54111376953125,-0.05566752668619156,0.02124678616821766,-0.01602364469245076
1783693626156076800,2.551076904296875,-0.04528466435968875,0.02298347376771271,-0.029626857304945586
1783693626166038800,2.561038818359375,0.010732406416535377,0.009816570213250815,-0.009569353986531496
1783693626176001800,2.571001708984375,0.0522451510220766,-0.004689326860010624,0.0024706278972327707
1783693626185963800,2.5809638671875,-0.015761048233509063,0.03279821735005826,-0.03434548332467675
1783693626195926800,2.5909267578125,-0.08598258545100688,0.039308658690005535,-0.042207668067142365
1783693626205888800,2.600888671875,-0.04888473467826843,0.02516750327590853,0.013231895082071423
1783693626215851800,2.610851806640625,0.004051321217417717,-0.016071867748349903,0.02175290905945003
1783693626225814800,2.620814697265625,0.01983282771706581,-0.028429098887741564,-0.0016965747848153114
1783693626235777000,2.630777099609375,0.01754851617217064,-0.0385698595540598,0.007799056378379464
1783693626245740000,2.640739990234375,0.03448094627261162,-0.05010591050367802,0.03080328067317605
1783693626255701800,2.65070166015625,0.024370471146702766,-0.049045185936987395,0.0337686332847923
1783693626265664800,2.660664794921875,-0.004707739299535751,-0.021843509952351448,0.050320978026464576
1783693626275627000,2.670626953125,-0.021529694762825964,0.012649565149471163,0.08676365282610059
1783693626285590000,2.680590087890625,-0.0638221915692091,0.03178367001265287,0.08240246194191277
1783693626295551700,2.6905517578125,-0.12226619723141192,0.04270326956436038,0.0640632337834686
1783693626305514800,2.7005146484375,-0.11048398950099944,0.04315919663831591,0.06997779158949852
1783693626315477000,2.71047705078125,-0.07538871072232722,0.02314392502643168,0.10167626753672956
1783693626325440000,2.72043994140625,-0.0926005422860384,-0.0026269509701058267,0.0696690909665078
1783693626335403000,2.730403076171875,-0.08124854266643523,-0.026580584944225848,0.020019728591293095
1783693626345364700,2.74036474609375,-0.06795651489496231,-0.05638422358818352,0.024478096239641308
1783693626355327700,2.75032763671875,-0.08883446775078772,-0.05076422828193754,0.022646862224489448
1783693626365290000,2.7602900390625,-0.08801789067089558,-0.021606194065138695,0.019686112722754476
1783693626375253000,2.7702529296875,-0.03731120126247406,-0.023657390973903236,0.0349574777431786
1783693626385214700,2.780214599609375,-0.034433599999547,-0.030809272022545336,0.04876432316899299
1783693626395177700,2.790177734375,-0.006835983499884605,-0.035636509515903886,0.057613180861249565
1783693626405140000,2.800139892578125,0.02676058115363121,-0.014804587758891284,0.08534560272172093
1783693626415103000,2.81010302734375,0.04698503853678703,-0.009945859148725866,0.12500110208801923
1783693626425065700,2.820065673828125,-0.010378770673274994,0.0052198170075193045,0.11503164286799729
1783693626435027700,2.83002783203125,-0.04892974286377429,0.052204599815979594,0.08003083743974566
1783693626444991000,2.839990966796875,-0.05856850882470607,0.06824409966468811,0.05874123504310846
1783693626454953700,2.84995361328125,-0.04496259279847145,0.0442764006325975,0.020719912749901412
1783693626464916700,2.859916748046875,-0.012774141377210616,0.010388780610635875,-0.023446926560997963
1783693626474878500,2.86987841796875,-0.013188567396998405,-0.014243483277410268,-0.057679377965256566
1783693626484841500,2.879841552734375,-0.061762336429953574,-0.014211334573477506,-0.09765029995627701
1783693626494803700,2.8898037109375,-0.11134499024450778,-0.015022650956362484,-0.10434227187559007
1783693626504766700,2.8997666015625,-0.14879881484806537,-0.02073690041732043,-0.09816935539431869
1783693626514728400,2.909728515625,-0.12060498602092265,-0.015682210843637585,-0.07337788235656917
1783693626524691500,2.91969140625,-0.09170914640426635,0.004047741020843387,-0.014251155127212404
1783693626534654700,2.92965478515625,-0.04428805453777313,0.019108970421925185,-0.001157864798232913
1783693626544616700,2.93961669921875,0.0011404022067785262,0.017782471058517692,0.028391178030148147
1783693626554579500,2.949579345703125,0.03996083898842334,0.03542918690815568,0.041672319081425664
1783693626564541700,2.959541748046875,0.04603343690037727,0.02892930349484086,0.0601132540486753
1783693626574504700,2.969504638671875,0.022532734325528145,0.01737754351943731,0.04951090375259518
1783693626584466700,2.979466796875,0.02200958723425865,-0.019125227436982094,0.03700074707381427
1783693626594429400,2.989429443359375,0.04327390905916691,-0.03634451165478676,0.023212021826580165
1783693626604391700,2.9993916015625,0.09832710323929786,-0.052442354094609615,0.007590528194233775
1783693626614354700,3.009354736328125,0.18698387633562086,-0.048038858438655734,0.02500913437642157
1783693626624316700,3.019316650390625,0.2268675584346056,-0.052917314662598074,0.03537877189517021
1783693626634279400,3.029279541015625,0.15673369950056076,-0.0022372940653935074,0.042136721722781656
1783693626644242400,3.039242431640625,0.08887596880495548,0.041386962801404296,0.013553674382343887
1783693626654204700,3.04920458984375,0.0036596915513277053,0.052641712591610844,0.023237448528781533
1783693626664167700,3.059167724609375,-0.12362696419060229,0.059907538876123725,0.009347454864159227
1783693626674129400,3.06912939453125,-0.2220616194576025,0.03798614138197154,-0.024100714294612406
1783693626684092400,3.079092529296875,-0.3097165220350027,0.03417604504190385,-0.06950220996700227
1783693626694054700,3.0890546875,-0.3439712583363056,0.00677026131991297,-0.08908668894618749
1783693626704017700,3.099017578125,-0.2889467057287693,-0.02993829787429422,-0.08002521141655743
1783693626713979400,3.1089794921875,-0.25687983486056326,-0.04898523591067642,-0.044416503223031756
1783693626723942400,3.1189423828125,-0.16328151370882987,-0.04785575695671141,-0.024012013097852468
1783693626733904600,3.128904541015625,-0.10212123482525348,-0.01684690724145621,0.01328311381265521
1783693626743867600,3.13886767578125,-0.07697744121849537,0.0203424577396363,0.09980630894638598
1783693626753830700,3.14883056640625,-0.061788639914989466,0.053854522447474296,0.13523739555068312
1783693626763792600,3.158792724609375,-0.029584406402707097,0.0444235540183261,0.11267923452295363
1783693626773755600,3.168755615234375,-0.013558569753170012,0.04146050296165049,0.1087203408293426
1783693626783717600,3.178717529296875,0.014728198054432868,0.0070446578145027154,0.08536554953120648
1783693626793680600,3.1886806640625,0.0697252781331539,-0.017924802138656378,0.035028277957066895
1783693626803642600,3.198642578125,0.10078501778542995,-0.05196432478670031,0.005493336719274521
1783693626813605600,3.208605712890625,0.1281616850107908,-0.02705116159804165,0.02631049929857254
1783693626823567600,3.218567626953125,0.15495207678079603,0.006904189897887408,0.03318929902687669
1783693626833530600,3.228530517578125,0.1460533155322075,-0.010885770347341894,0.012813012082874773
1783693626843492600,3.23849267578125,0.12077917354404925,-0.02466510671172291,-0.016922420163080095
1783693626853455600,3.24845556640625,0.06940963631272315,-0.019542247272655366,-0.025822715781629084
1783693626863418600,3.258418701171875,0.04941372698843479,-0.01595668040346354,-0.029618747063726185
1783693626873380600,3.268380615234375,0.012245149067044258,-0.028887290984019636,-0.002782324194908142
1783693626883343600,3.278343505859375,-0.04470540316700935,-0.026307832417450844,0.020580869605392217
1783693626893305600,3.2883056640625,-0.08863163865506649,-0.020636399184912443,0.01991363786831498
1783693626903268600,3.2982685546875,-0.091855276876688,0.0022869418933987615,0.04954875154495239
1783693626913230600,3.308230712890625,-0.09131693221628666,0.03515011423844844,0.05924348547682166
1783693626923193600,3.318193603515625,-0.11366378858089446,0.016827179627679288,0.05376673456616699
1783693626933155600,3.328155517578125,-0.19329203656911847,0.005230630662478506,0.026385318100452422
1783693626943118600,3.33811865234375,-0.2261830833017826,0.0001800692746415734,-0.03826499485597014
1783693626953080600,3.34808056640625,-0.14504501527249813,0.01146853867135942,-0.0564556813891977
1783693626963043600,3.358043701171875,-0.0824175864458084,-0.05353818650729954,-0.06891717662066221
1783693626973005600,3.368005615234375,0.001550152051448822,-0.10794778555426746,-0.07597644748240709
1783693626982968600,3.377968505859375,0.10100362897217273,-0.06097863870635628,-0.06987462347596883
1783693626992931600,3.387931640625,0.12354162399470806,-0.015893990430794654,-0.0006556874297559261
1783693627002893600,3.3978935546875,0.09991232660412788,0.04575016297958791,0.0775994455743581
1783693627012856600,3.407856689453125,0.020184125372767446,0.10735354598816484,0.10124291762076318
1783693627022818600,3.417818603515625,-0.1253875441223383,0.15563045096639544,0.07204422260001302
1783693627032781600,3.427781494140625,-0.24575696782171724,0.11772880953010172,0.0078573624368757
1783693627042743800,3.437743896484375,-0.28117198007404803,0.07203421266265213,-0.015595263212546706
1783693627052706800,3.447706787109375,-0.26574469383955,0.00906556918285787,-0.038119741166383024
1783693627062668500,3.45766845703125,-0.26100539035797116,-0.041586613559350366,-0.08240173128955065
1783693627072631600,3.467631591796875,-0.21200725843310356,-0.06248290578946471,-0.09428418452404438
1783693627082593800,3.47759375,-0.09687515086531638,-0.08592705587148666,-0.07270422087870537
1783693627092556800,3.487556884765625,-0.026057401320338246,-0.09543072421066462,-0.024946882795169947
1783693627102519600,3.49751953125,0.052693479311466215,-0.09003273762464523,0.017967837562784552
1783693627112481500,3.5074814453125,0.11502747814953326,-0.030682211576774716,0.10938574593551456
1783693627122444500,3.517444580078125,0.13550503351092338,0.025524353889562187,0.1726652819953859
1783693627132406800,3.52740673828125,0.15183131441175937,0.07237648676168174,0.20533282217048107
1783693627142369500,3.53736962890625,0.1408119077473879,0.0732113301506266,0.1939955086633563
1783693627152331500,3.54733154296875,0.11527765351831912,0.05403587036374956,0.11643142666332423
1783693627162294500,3.55729443359375,0.05249181925952434,0.02961608018260449,0.015650062139704823
1783693627172256800,3.5672568359375,-0.03629062604308128,-0.0058156640088185664,-0.09484021097160875
1783693627182219500,3.577219482421875,-0.1118716444671154,-0.04094754847083241,-0.17095285205431282
1783693627192181500,3.587181396484375,-0.16082126107513903,-0.0494010136373341,-0.21108649032637475
1783693627202144500,3.59714453125,-0.19842296971678733,-0.04436163123063743,-0.1971598179131746
1783693627212107800,3.607107666015625,-0.2321872921526432,-0.02203793654590845,-0.14962861673571168
1783693627222069500,3.617069580078125,-0.2372714635491371,-0.008094166867434978,-0.06547814208269119
1783693627232032500,3.627032470703125,-0.19972937614023684,0.013061726146936415,-0.01206343582458794
1783693627241994500,3.636994384765625,-0.13233400225937367,0.024562450054846703,0.06023593058027327
1783693627251957800,3.646957763671875,-0.05497136111557483,0.04989318106845021,0.0977596055496484
1783693627261919500,3.65691943359375,-0.0002028290957212448,0.06022887978497892,0.13223667936474084
1783693627271882500,3.666882568359375,0.05949672958552837,0.030476861730404196,0.1210595979206264
1783693627281844700,3.6768447265625,0.09706921213269233,0.03155775230228901,0.10321019910573959
1783693627291807700,3.686807861328125,0.085310969799757,0.05495809977520257,0.10670330191850662
1783693627301769500,3.69676953125,0.07898995008468628,0.04424173117801547,0.08520575585961342
1783693627311732500,3.706732421875,0.0734334850013256,-0.008257467670366168,0.008754676602780818
1783693627321694700,3.71669482421875,0.05083528422415256,-0.013606317885033786,-0.037681861205771564
1783693627331657700,3.72665771484375,0.01496551394164562,-0.024855368586815894,-0.06341499900780617
1783693627341620700,3.736620849609375,-0.009305588483810424,-0.018576945904456077,-0.051495720894262194
1783693627351582500,3.74658251953125,0.0053892918229103085,-0.007026354972831905,-0.04261997519508004
1783693627361545500,3.75654541015625,0.02897299650609493,-0.03932097018230706,-0.02670030233375728
1783693627371507700,3.7665078125,0.011307575955986976,-0.018206505156867205,0.00037884324975311757
1783693627381470700,3.776470703125,-0.0009510171145200729,-0.01319912532363087,0.06215688870549202
1783693627391432400,3.786432373046875,-0.044379824474453926,0.007699139667861163,0.10562135190069674
1783693627401395500,3.7963955078125,-0.10691665240824222,0.015216018103994429,0.09674078389592468
1783693627411357700,3.806357666015625,-0.17074994989335535,0.052899340614490205,0.09759403972439468
1783693627421320700,3.81632080078125,-0.22614684294462203,0.10668017677124589,0.11378967998288571
1783693627431282400,3.826282470703125,-0.2552712306201458,0.11846852198150008,0.08389460019581019
1783693627441245400,3.836245361328125,-0.21362989119887352,0.09189462250638752,0.03204692405872047
1783693627451208700,3.846208740234375,-0.11407353842556477,0.04612878703363239,-0.017514906163513658
1783693627461170400,3.85617041015625,-0.034088147562742234,0.006714877870865166,-0.0769709384124726
1783693627471133400,3.866133544921875,0.030460604715347287,-0.053677485380135476,-0.09882051277942955
1783693627481095400,3.876095458984375,0.12023323009908199,-0.07990333860255777,-0.07432816881872713
1783693627491058400,3.886058349609375,0.1585188293516636,-0.07029299501851201,-0.04403524882048368
1783693627501020400,3.8960205078125,0.12695815443992614,-0.05183920056968927,-0.005450009034201502
1783693627510983400,3.9059833984375,0.09740706578493118,-0.03297993059251457,0.05800656409300863
1783693627520945400,3.9159453125,0.0831453161984682,0.006778773419931531,0.09827383868210017
1783693627530908400,3.925908447265625,0.05440437488257885,0.037513555434159934,0.14095336204469203
1783693627540870400,3.935870361328125,0.04515548502206802,0.04475428381003439,0.1642754201170057
1783693627550833400,3.94583349609375,0.01734627159833908,0.012752331404201686,0.16135178775526582
1783693627560795400,3.95579541015625,-0.0540881485402584,0.002425911972671747,0.11866276591196656
1783693627570758400,3.96575830078125,-0.07382453014552592,0.0010135974893346429,0.08625811445675789
1783693627580721400,3.975721435546875,-0.055226212659478184,0.007834237289614975,0.11572495889440178
1783693627590683400,3.985683349609375,-0.07245090370476245,0.030087241358309983,0.13971819422654808
1783693627600646400,3.995646484375,-0.1060766944527626,0.03531483981348574,0.13018157346583903
1783693627610608400,4.0056083984375,-0.15323124433755875,0.05312335862871259,0.07516162396818399
1783693627620571400,4.0155712890625,-0.15942776089012622,0.08172207846231758,0.02949037144370377
1783693627630533400,4.025533447265625,-0.13735621433556078,0.09198306797482073,0.01959229695945978
1783693627640496400,4.035496337890625,-0.13983984784483908,0.08908285302128642,-0.0022309739224612712
1783693627650458400,4.045458251953125,-0.13079670968949794,0.06245627351086586,-0.05329999383725226
1783693627660421400,4.05542138671875,-0.06501403170228004,0.016271043582260607,-0.07428367208987474
1783693627670383400,4.06538330078125,-0.004676175117492676,-0.02390712795127183,-0.05989040507823228
1783693627680346400,4.075346435546875,0.03345218774676323,-0.040132432695664466,-0.04670410270355642
1783693627690309400,4.085309326171875,0.03834054431021213,-0.035057102192752064,-0.03445975735411048
1783693627700271400,4.095271240234375,0.04668342524170875,-0.031210254038870334,-0.009566066050902008
1783693627710234400,4.105234375,0.03664659987390041,-0.027820794263668357,0.0018637480452656744
1783693627720196600,4.115196533203125,0.03517360471189022,-0.023275223255902526,0.019166691958531736
1783693627730159400,4.125159423828125,0.020554712250828742,-0.03483235352616757,0.00553944088332355
1783693627740121300,4.135121337890625,-0.01629062506556511,-0.03659651365447789,-0.0030875907517969605
1783693627750084400,4.14508447265625,-0.0036550153762102125,-0.04631221730913967,-0.019442440159991383
1783693627760046600,4.155046630859375,-0.00882218888103962,-0.031049473986588416,-0.015367372740805149
1783693627770009300,4.16500927734375,-0.03111877636313438,-0.019530337639153003,-0.01918108581006527
1783693627779971300,4.174971435546875,-0.09175590815544128,-0.004617430667579174,-0.01681165326498449
1783693627789934300,4.184934326171875,-0.10329612382352352,0.02331263265684247,0.0045404199086129665
1783693627799896600,4.194896484375,-0.11180091731846332,0.03341715296600014,0.018153496327996253
1783693627809859300,4.204859375,-0.07903145113885403,0.014151311481930315,0.061916577143594616
1783693627819822300,4.214822265625,-0.04946750300228595,0.020327077507413922,0.06345145856067538
1783693627829784300,4.224784423828125,-0.017987492111325262,0.025233919575624167,0.07820778673104942
1783693627839747300,4.234747314453125,-0.009760931035876273,0.02729545521531254,0.07172054360359907
1783693627849709300,4.244709228515625,-0.06506020893156528,0.033818682971596715,0.04135572741292417
1783693627859672300,4.25467236328125,-0.10300152479112147,0.029527817377261817,-0.012204743991419673
1783693627869634300,4.26463427734375,-0.13555179526209832,0.019329517837427555,-0.024673984137922524
1783693627879597300,4.274597412109375,-0.15000059185326098,-0.005713591873832046,-0.018787702578306198
1783693627889559600,4.2845595703125,-0.13169336626827716,-0.04776058948654681,-0.04590688791126012
1783693627899522300,4.294522216796875,-0.05530336954891681,-0.04290237233303487,-0.04588745255842805
1783693627909484300,4.304484375,0.006786883661150932,-0.023908918049558997,-0.02785612130537629
1783693627919447300,4.314447265625,0.090456515994668,-0.0005853256072849035,0.020113690485060214
1783693627929409500,4.324409423828125,0.13974164816737175,0.03778692901544273,0.0469449987873435
1783693627939372300,4.334372314453125,0.13127543311715126,0.05615647924691438,0.048681759452074765
1783693627949335300,4.344335205078125,0.09378069198131561,0.10298574270009994,0.0516935815539211
1783693627959297500,4.354297607421875,0.03159516170322895,0.09128573336042463,0.05429375411495566
1783693627969260500,4.364260498046875,-0.03699029874503612,0.059724181665852666,0.03346877355538309
1783693627979222300,4.37422216796875,-0.10720189909040927,0.0527635854056105,-0.024375585713237523
1783693627989185300,4.384185302734375,-0.16691256368756294,0.03941434755418449,-0.05119476518630981
1783693627999147500,4.3941474609375,-0.18024667703509328,-0.02315514054019004,-0.0411459571197629
1783693628009110500,4.404110595703125,-0.17495383132398126,-0.032323293314687904,-0.03991210447587073
1783693628019072300,4.414072265625,-0.1832096184939146,-0.043879912128299475,-0.031157720134034752
1783693628029035300,4.42403515625,-0.17012626503705977,-0.06686115740630776,-0.024186785142868757
1783693628038997500,4.43399755859375,-0.12736615071892737,-0.024349282228201628,0.037152138243243094
1783693628048960500,4.44396044921875,-0.13244272333085536,0.007654533341154456,0.08756342490166426
1783693628058922200,4.453922119140625,-0.1523445246309042,0.01901131873372942,0.10589680784121155
1783693628068885200,4.46388525390625,-0.12146657128632068,0.03704513420481235,0.10806443420387804
1783693628078848300,4.47384814453125,-0.016163199293613432,0.016187931876070795,0.11806523841023445
1783693628088810500,4.483810546875,0.061602177432179446,0.016700740236416458,0.11651136003173887
1783693628098773500,4.4937734375,0.10717208847403525,0.013995828659273683,0.08183445279560983
1783693628108735200,4.5037353515625,0.0961602805942297,0.04097688416317105,0.054066813491284844
1783693628118698200,4.5136982421875,0.06137830554842948,0.036166780467703934,0.004114741842448711
1783693628128660500,4.523660400390625,0.021833646145462987,0.023568543646670877,-0.03564239126741886
1783693628138623500,4.53362353515625,-0.033659693017601966,0.03075582480225712,-0.08086063932739197
1783693628148585200,4.543585205078125,-0.0296148015409708,-0.0007348536131903529,-0.07767397211529314
1783693628158548500,4.553548583984375,0.019285715228319168,-0.05248235731143504,-0.08042392841055988
1783693628168510500,4.563510498046875,0.07750584900677204,-0.05342913664225488,-0.07302176239527762
1783693628178473500,4.573473388671875,0.08307634261548519,-0.021702786307409405,-0.00883380625359714
1783693628188436500,4.5834365234375,0.10271920071840286,0.008425188920088112,0.052050066841393704
1783693628198398500,4.5933984375,0.08819383175969123,0.015943053736910223,0.07295593061745166
1783693628208361500,4.603361572265625,-0.001644260075688362,0.023941505144909024,0.08759893460646272
1783693628218323500,4.613323486328125,-0.0799386291116476,0.03579728956818581,0.12135624277964234
1783693628228286500,4.623286376953125,-0.12348843250274658,0.04326382605656981,0.11803308970630168
1783693628238248400,4.63324853515625,-0.15279928266108034,0.025651852726750073,0.11004311386570334
1783693628248211500,4.64321142578125,-0.1770434970796108,0.005637056038901209,0.08183847138360142
1783693628258173400,4.65317333984375,-0.15809622002542018,-0.00801094556339085,0.06811075560860336
1783693628268136400,4.663136474609375,-0.14747545728981495,-0.01599259196706116,0.04458535698391497
1783693628278098400,4.673098388671875,-0.13209551732838154,-0.029396774876117703,0.014463409638404845
1783693628288061400,4.6830615234375,-0.10612579429149627,-0.02240260513983667,-0.012695815443992614
1783693628298023400,4.6930234375,-0.07521218511164188,-0.014190876307338476,-0.03285173763558268
1783693628307986400,4.702986328125,-0.0370738853752613,-0.00817289465945214,-0.04604936512187123
1783693628317949200,4.71294921875,0.021601590955257415,0.016790427813865243,-0.03347038099057972
1783693628327911400,4.722911376953125,0.05308510897755622,0.03451086648683995,-0.013771116525307298
1783693628337874400,4.73287451171875,0.06537585075199603,0.03470554880872369,0.011726532020419836
1783693628347836400,4.74283642578125,0.06364917308986187,0.015301212169416248,0.01657243768163025
1783693628357799200,4.752799072265625,0.06261223125755787,0.010824176353216171,0.026396350951120254
1783693628367761400,4.762761474609375,0.04071019605100155,-0.0014126798095181583,0.02985803571231663
1783693628377724400,4.772724365234375,0.020606734699010847,-0.008578552850894629,0.025185367726162075
1783693628387686400,4.782686279296875,-0.05307283401787281,-0.01138564616087824,0.021609555066004395
1783693628397649400,4.7926494140625,-0.06986614790856838,-0.02787416841872036,0.03067278616130352
1783693628407611400,4.802611328125,-0.05396598346531391,-0.04714344396889209,0.039745004280656575
1783693628417574400,4.812574462890625,-0.06815466781556606,-0.03381133991535753,0.043294367325305935
1783693628427536400,4.822536376953125,-0.16483751097917557,0.011039426539093256,0.05616115542203188
1783693628437499400,4.83249951171875,-0.19000877711474895,0.032564627789892255,0.07676591735966504
1783693628447461400,4.84246142578125,-0.15104220986068248,0.0452910575678572,0.08809607047364115
1783693628457423600,4.852423583984375,-0.1305892044186592,0.04356766784135252,0.07896101625114679
1783693628467386600,4.86238671875,-0.1056932480931282,0.05702098712176084,0.053940922089293596
1783693628477348900,4.872348876953125,-0.030500352203845976,0.03510832092333585,0.03872932443208992
1783693628487312000,4.882311767578125,0.04004734822809696,0.009348550842702388,-0.009031155456602573
1783693628497273600,4.892273681640625,0.07198503975868224,-0.05007734199631959,-0.05813946975767612
1783693628507236600,4.902236572265625,-0.03744271868765354,-0.01348064567875117,-0.0828037362191826
1783693628517198800,4.91219873046875,-0.06056172846853733,-0.010454247062280774,-0.0858699188567698
1783693628527161900,4.922161865234375,-0.003425298273563385,-0.039183351809903975,-0.03970489146597683
1783693628537123600,4.93212353515625,0.013104396244883536,-0.03747742467485368,-0.008141147814318538
1783693628547086600,4.942086669921875,0.017528642427921293,-0.01659110584948212,0.0034320202752947805
1783693628557048800,4.952048828125,0.053690089133381844,-0.031568492892011996,0.05043934370912611
1783693628567011800,4.96201171875,0.08471300390660762,-0.022690591768361627,0.08859130664467811
1783693628576973600,4.9719736328125,0.032490649238228794,0.00695361853018403,0.08227598601803184
1783693628586936800,4.981936767578125,-0.07348492292761802,0.06453801168836652,0.07558920173048973
1783693628596899800,4.99189990234375,-0.1365232706427574,0.058770241941884155,0.05508103203512728
1783693628606861800,5.00186181640625,-0.15587445232272149,0.0031527284098789095,0.015669132166355848
1783693628616824600,5.011824462890625,-0.18139000185132026,-0.018688151193968952,-0.05000906253308057
1783693628626786800,5.021786865234375,-0.19496143108606337,-0.015055676443129776,-0.04156257509663701
1783693628636749800,5.031749755859375,-0.14163257648050784,0.0006550298426300287,-0.0338820305313915
1783693628646711800,5.0417119140625,-0.05211421811878681,0.007002389575354755,-0.02803542339503765
1783693628656674600,5.051674560546875,-0.014104513198137282,0.015098675334639846,0.001985328598320484
1783693628666636800,5.06163671875,0.009379822763800621,0.033779666135460136,0.042197585064545275
1783693628676599800,5.071599853515625,0.025386954712867737,0.016927900055795905,0.04854549278654158
1783693628686561800,5.081561767578125,0.03374737130105495,0.01510214593335986,0.04777304710932076
1783693628696524500,5.091524658203125,0.0344990664511919,0.003951112245954573,0.030776246535778044
1783693628706486800,5.10148681640625,0.03258943343758583,-0.003652750353887677,0.051693070097267625
1783693628716449800,5.11144970703125,0.029693711996078488,0.002272949900664389,0.046989130190014834
1783693628726412800,5.121412841796875,0.012339257091283798,-0.014279248710535465,0.0023746201768517494
1783693628736374500,5.13137451171875,-0.023173954838514327,0.010783040625229477,0.018819339825585483
1783693628746337500,5.141337646484375,-0.055559974658489227,0.0067367243764922015,-0.004435279033705592
1783693628756299800,5.1512998046875,-0.07129998010396957,-0.022391170430369672,-0.05390592384114861
1783693628766262800,5.1612626953125,-0.10049158779680728,-0.03831811328269541,-0.07274374917149544
1783693628776224500,5.171224609375,-0.0795990218937397,-0.0452329707050696,-0.04744695696011186
1783693628786187800,5.181187744140625,-0.03717734574973583,-0.014749898429587483,-0.006330152869597077
1783693628796149800,5.191149658203125,-0.06900164003372192,0.01999835700970143,0.026676044675335287
1783693628806112800,5.20111279296875,-0.09484218373298645,0.05940302342008799,0.05776143022552132
1783693628816074500,5.211074462890625,-0.04466273306906223,0.038754714601673186,0.07712240264713764
1783693628826037800,5.221037841796875,-0.016796236500144005,0.021428389812819658,0.05701119638010859
1783693628835999700,5.230999755859375,-0.014500819039344786,0.02254756656847894,0.036702056388184426
1783693628845962800,5.240962646484375,-0.012348609441518783,0.01261343439016491,0.046245179954916234
1783693628855925800,5.25092578125,-0.0015086509972810744,0.0011959317862987517,0.04700820021666586
1783693628865887700,5.2608876953125,-0.020692659416794774,0.009056143767386674,0.012834493262320756
1783693628875850800,5.270850830078125,-0.0609463438719511,0.021918255688995122,0.016375380739569664
1783693628885812700,5.280812744140625,-0.04570201298892498,0.02191730584092438,0.03924998730532825
1783693628895775700,5.290775634765625,-0.023166940575838086,0.017268676317483186,0.04275594959966838
1783693628905737700,5.30073779296875,0.0036772272080183026,-0.009772840669378637,0.022027780478075146
1783693628915700700,5.31070068359375,-0.010297522130608559,-0.037941535055264826,0.004409413940086961
1783693628925662700,5.320662841796875,-0.005199906730651855,-0.028620018349960443,0.02031045516617596
1783693628935625700,5.330625732421875,-0.001992635121941566,-0.021987886859104036,0.06271240369640291
1783693628945587700,5.340587646484375,-0.01927519383430481,-0.015106018390879035,0.06020750820338726
1783693628955550700,5.35055078125,-0.009290975436568259,-0.016401647691987455,0.07905863140672445
1783693628965512700,5.3605126953125,-0.015897826355695723,-0.038728959105908865,0.06169153621606528
1783693628975475700,5.370475830078125,-0.04405541482567787,0.016361206083744764,0.06824424579516053
1783693628985438700,5.380438720703125,-0.06493161411583423,0.03783986477907747,0.06702873252555727
1783693628995400700,5.390400634765625,-0.08002104669809341,0.04116849774513393,0.04836611763164401
1783693629005363700,5.40036376953125,-0.11201485233008861,0.04918064888492226,0.011405264176800847
1783693629015325700,5.41032568359375,-0.1278232468366623,0.04365246004797518,-0.028897885443270203
1783693629025288700,5.420288818359375,-0.10997662450075149,0.03014054244812578,-0.043879985193535684
1783693629035250700,5.430250732421875,-0.08765665614306926,0.03962430051043629,-0.05158442209102213
1783693629045213700,5.440213623046875,-0.07655716997981071,0.026724523459561167,-0.04682860586605966
1783693629055175700,5.45017578125,-0.03251110750436783,-0.015567644553259014,-0.055372781523317094
1783693629065139000,5.460138916015625,0.02214285822510719,-0.013043204109556972,-0.049844154294952744
1783693629075100700,5.4701005859375,0.02304302193522453,-0.027656251351721582,-0.013015475852414965
1783693629085063700,5.480063720703125,0.016657120290398595,-0.02145863882061094,0.003309124547988176
1783693629095025700,5.490025634765625,0.035276480564475056,-0.013404000245966016,0.04315072107091546
1783693629104989000,5.499989013671875,0.02216214744746685,0.0022830329032614825,0.07813355245105921
1783693629114950700,5.50995068359375,0.00798690710067749,0.022012400245852767,0.07767112257108091
1783693629124913700,5.51991357421875,-0.03928688524961471,0.015254486950859427,0.06301642814427613
1783693629134876700,5.529876708984375,-0.0973755016028881,0.013734730037674307,0.04771474105082452
1783693629144839000,5.5398388671875,-0.13525427362024783,0.010134002131968736,0.03431106959842145
1783693629154801700,5.5498017578125,-0.12092705758213997,0.011297200692445039,0.013932517632097005
1783693629164763600,5.559763671875,-0.12485796729028224,-0.028478527520038186,-0.018023001816123724
1783693629174726700,5.5697265625,-0.11951952887177467,-0.01994677295293659,-0.04401559427194297
1783693629184689000,5.57968896484375,-0.11373334668576716,0.006102225865237415,-0.031216464583948254
1783693629194652000,5.58965185546875,-0.054694297739863396,0.022843626905605197,0.00227349788993597
1783693629204613600,5.599613525390625,0.008340542843937874,0.053203182399272915,0.016031316542252896
1783693629214576600,5.60957666015625,0.03690905020236969,0.0671990475911647,0.04003653457313776
1783693629224539000,5.619538818359375,0.018760230049490928,0.05015267225485295,0.043537236170470714
1783693629234502000,5.629501953125,0.006058569386601448,0.0420182099096477,0.011844532376900314
1783693629244463600,5.639463623046875,0.007622749963402748,0.01963061967585236,-0.010948533385246992
1783693629254426600,5.649426513671875,0.021360183414816856,-0.00037537265103310347,-0.028397973097115753
1783693629264389600,5.6593896484375,0.053875382572412485,-0.006684738460928201,-0.046130467534065245
1783693629274351900,5.669351806640625,0.06142214469015598,-0.009730608962848782,-0.020764628674462438
1783693629284314600,5.679314697265625,0.00940554172694683,-0.00042228053268045186,-0.011999796003848314
1783693629294276600,5.689276611328125,-0.05754384195208549,0.016556399862281978,-0.016711846152320502
1783693629304239900,5.699239990234375,-0.07014905650317668,0.02110653744731098,0.008075096840783953
1783693629314201900,5.709201904296875,-0.07427344295680523,0.0211458100117743,0.026447788877412674
1783693629324164600,5.71916455078125,-0.05600362677276134,0.03923595877997577,0.03792845637798309
1783693629334126600,5.729126708984375,-0.06502513761818408,0.03898877908587456,0.03030263767465949
1783693629344089900,5.73908984375,-0.09696867436766624,0.024808935629203915,0.0497236697204411
1783693629354051800,5.7490517578125,-0.10241174220442771,0.018179069160670042,0.03053819999620318
1783693629364014600,5.7590146484375,-0.09425473923385143,-0.0123980015411973,0.004273877926915884
1783693629373976800,5.768976806640625,-0.11042203018069266,-0.004866071666404605,0.007846987173333764
1783693629383939800,5.77893994140625,-0.10370295105874537,0.019948636116459965,-0.00011332418136298656
1783693629393901800,5.78890185546875,-0.058204351687431335,-0.006542809239588677,-0.009110577368363737
1783693629403864600,5.798864501953125,0.018290274450182914,-0.023673574923723933,0.010008841382339597
1783693629413827600,5.80882763671875,0.06864274359345436,0.004188062806986272,0.039856940222531556
1783693629423789800,5.818789794921875,0.13221242170631886,0.02810509109776467,0.06168298758342862
1783693629433752800,5.8287529296875,0.12005611996650695,0.02547638656198978,0.08304485149867832
1783693629443714600,5.838714599609375,0.029494390031695364,0.042301520363055164,0.047613691829144954
1783693629453677600,5.848677490234375,-0.07642799064218997,0.05487067722007632,0.0051554830670356745
1783693629463639600,5.8586396484375,-0.10929331841170788,0.019634638263843953,-0.02407879472374916
1783693629473602600,5.8686025390625,-0.09771686238646507,-0.025590697124041616,-0.03759396372660994
1783693629483564500,5.878564453125,-0.05934416937232017,-0.046538756074011325,-0.04806976503357291
1783693629493527300,5.88852734375,-0.033811668708920474,-0.06379457290992141,-0.02437266310378909
1783693629503489500,5.898489501953125,0.025393968975543975,-0.02016213273666799,0.010714578498899936
1783693629513452500,5.90845263671875,0.03028349458277225,0.018284063905104994,0.06040273851454257
1783693629523414500,5.91841455078125,0.012871756532788275,0.0358546457786113,0.09839790345318615
1783693629533377500,5.92837744140625,-0.058598903962969774,0.059046318936906754,0.10020553739704191
1783693629543340500,5.938340576171875,-0.1100105267703533,0.07211206367183476,0.06745346074365079
1783693629553302500,5.948302490234375,-0.12432137619554996,0.054219519834965466,0.05792100470140576
1783693629563265500,5.958265625,-0.11383739158213138,0.026364823301695286,0.045559901104494926
1783693629573227500,5.9682275390625,-0.11862637942433357,-0.0008950491435825824,0.018273469445854423
1783693629583190500,5.9781904296875,-0.10170973141491413,-0.02348667404949665,0.0016243132662028073
1783693629593152500,5.988152587890625,-0.06418108800947665,-0.04917860305830836,0.034695027414709326
1783693629603115500,5.998115478515625,-0.020080664998292922,-0.04123805585000664,0.038864202858135105
1783693629613077500,6.008077392578125,-0.0031990883022546767,-0.008690671455860137,0.05946005083695054
1783693629623040500,6.01804052734375,0.012477788779139519,0.004247866702824831,0.09178462279327214
1783693629633002500,6.02800244140625,0.04907470429241657,0.0038405645435675975,0.11450469638444483
1783693629642965500,6.037965576171875,0.043760231271386146,0.03938778834082186,0.10713833233490586
1783693629652927500,6.047927490234375,0.0058306058496236796,0.050399413557536896,0.09698540630675852
1783693629662890500,6.057890380859375,-0.016219897916913032,0.03053710401766002,0.05668963627554476
1783693629672852500,6.0678525390625,-0.03315232801735401,0.001924684452265501,0.006927972632274031
1783693629682815500,6.0778154296875,-0.07186638181507587,-0.0240574596747756,-0.05536087188981473
1783693629692778500,6.087778564453125,-0.09462649515569209,-0.03486070283781737,-0.10173172405101358
1783693629702740500,6.097740478515625,-0.05675415287911892,-0.0385658044334501,-0.09653123279847205
1783693629712703500,6.107703369140625,-0.009331307446956634,-0.03472487456370145,-0.05551701229959726
1783693629722665500,6.11766552734375,0.017118892583251,0.005550071875192224,-0.021376915353909134
1783693629732628500,6.12762841796875,0.03071662530303001,0.009721329677850008,0.031159985156357286
1783693629742590500,6.137590576171875,0.0431131655395031,0.04640972286686301,0.0877986949622631
1783693629752553500,6.147553466796875,0.024995909568667412,0.042726321646384895,0.10625943060852587
1783693629762515500,6.157515380859375,0.03412380339801311,0.043859490394778544,0.08132679553441703
1783693629772478500,6.167478515625,0.0010679214924573899,0.05609831931889057,0.0643650662742555
1783693629782440400,6.1774404296875,-0.02103402020037174,-0.008775573260337113,0.0869386440668255
1783693629792403500,6.187403564453125,-0.028605916759371755,-0.02481174864079803,0.017334361964836717
1783693629802365400,6.197365478515625,-0.10715396829545497,-0.019654512008093296,-0.03266593273989856
1783693629812328700,6.20732861328125,-0.22061960395574567,-0.03332695393189788,-0.005595920310914516
1783693629822290400,6.21729052734375,-0.2757739204227924,-0.010191321809776126,-0.035353564388677476
1783693629832253400,6.22725341796875,-0.25224808340668675,-0.014229199023731052,-0.006427987220883369
1783693629842216400,6.237216552734375,-0.18657061935961244,-0.02050838889107108,0.03723141402453184
1783693629852178700,6.2471787109375,-0.13577975879907608,-0.02988327975142747,0.013192293724045156
1783693629862141700,6.2571416015625,-0.05032032043933868,-0.022762013036757706,0.016820348028093575
1783693629872103400,6.267103515625,0.013543372184038161,-0.010448438376002013,0.08336451190710067
1783693629882066400,6.27706640625,0.0049719431936740876,0.00529262651540339,0.06939999170154333
1783693629892028700,6.287028564453125,0.002113631153106689,0.008917356351204216,0.03944653279073536
1783693629901991700,6.29699169921875,-0.004932780227065086,0.017256510955654083,0.040327407278493044
1783693629911953400,6.306953369140625,-0.014421324062347411,0.01602580011691898,0.02465586395934224
1783693629921916400,6.31691650390625,-0.016730770048499106,-0.009744345227256417,-0.014185396414622664
1783693629931878700,6.326878662109375,-0.016721417698264122,-0.017341595423221588,-0.009387129287421702
1783693629941841700,6.336841552734375,0.013912205496430395,-0.014560330674238502,-0.02221745783127844
1783693629951803400,6.346803466796875,0.01064472813308239,-0.013075097085162997,-0.01596395039446652
1783693629961766400,6.356766357421875,0.03820025905668735,-0.004812734043970704,-0.004282061233371496
1783693629971728600,6.366728759765625,0.05299976878166198,-0.011640899563580751,-0.01594078871458769
1783693629981691600,6.376691650390625,0.04277706545293331,-0.001467515269294381,-0.028218597942218183
1783693629991654700,6.386654541015625,-0.033493688800930975,0.04627488097343593,-0.022460838133096694
1783693630001616400,6.396616455078125,-0.14224106376767157,0.040298400379717346,-0.0418237833160907
1783693630011579400,6.406579345703125,-0.24244682036042212,0.03412694520317018,-0.042568098877370356
1783693630021541600,6.416541748046875,-0.2652472657114267,0.025646993888542056,-0.04903254565112292
1783693630031504600,6.426504638671875,-0.20082301659584045,-0.03361000865697861,-0.03769881234057247
1783693630041466400,6.43646630859375,-0.08531272336542606,-0.055711585023626685,-0.0018318185370415447
1783693630051429600,6.4464296875,0.019925766697525975,-0.03562017943561077,0.035781069085747
1783693630061391600,6.4563916015625,0.10164017331004142,-0.012348097984865306,0.06716784873530268
1783693630071354600,6.466354736328125,0.1366851832062006,0.017297902411967516,0.07456818811967969
1783693630081316400,6.47631640625,0.13152034778892993,0.06386796693969518,0.06751863493435084
1783693630091279600,6.486279541015625,0.0833195037215948,0.07090619501341133,0.0694713033720851
1783693630101241600,6.49624169921875,0.04598024540841579,0.05521258599292487,0.04282411946505308
1783693630111204600,6.50620458984375,0.024713000974059103,0.032570253813080485,-0.024096111184731126
1783693630121167400,6.51616748046875,-0.04586392555236816,-0.01989628487471491,-0.05781652141362428
1783693630131129600,6.526129638671875,-0.0880605607688427,-0.05093991364240646,-0.08330584052242339
1783693630141092600,6.536092529296875,-0.055063131052255625,-0.08407368308976292,-0.08044387522004544
1783693630151054600,6.5460546875,-0.030762218010425564,-0.09653780866973101,-0.031048122279718517
1783693630161017300,6.556017333984375,-0.03615793957412243,-0.07817881636489182,0.014849705542251467
1783693630170979600,6.5659794921875,-0.0776601627856493,-0.02766257149465382,0.036922201944887635
1783693630180942600,6.575942626953125,-0.14790624992251394,0.012802892547659575,0.08348477728590369
1783693630190904600,6.585904541015625,-0.14221183767318724,0.06118365975916385,0.11798844684697687
1783693630200867300,6.595867431640625,-0.16970482475459575,0.09026661944575608,0.13870295276939867
1783693630210829600,6.60582958984375,-0.20372399873435496,0.08942801319714636,0.11966332125663756
1783693630220792600,6.61579248046875,-0.20084815103709697,0.06397982981633395,0.07916070354171097
1783693630230754600,6.625754638671875,-0.18244740194976328,0.031205943189933895,0.03198430715128779
1783693630240717300,6.63571728515625,-0.1458387959986925,0.0012176321614533663,-0.017174349097535013
1783693630250679600,6.645679443359375,-0.07076397353112697,-0.02125241219140589,-0.029937676819786426
1783693630260642600,6.655642578125,0.0069172320425510405,0.0008130334159359335,-0.022778964171558617
1783693630270605600,6.66560546875,0.09318915582895278,-0.011716083691641687,-0.007071984212845563
1783693630280567300,6.6755673828125,0.17101298474371432,0.019938772309571504,0.03131020728200674
1783693630290530600,6.685530517578125,0.16439678147435188,0.05283434908688068,0.0412938411578536
1783693630300492500,6.695492431640625,0.11388239976763724,0.05172620518188923,0.047264147739112375
1783693630310455600,6.70545556640625,0.06507832911014556,0.03467350970264524,0.0372635627284646
1783693630320417300,6.715417236328125,0.01631809759438038,-0.0033823724472895264,-0.000723053577542305
1783693630330380500,6.725380615234375,-0.01834872663915157,-0.035842590014636515,-0.0336761326957494
1783693630340342500,6.735342529296875,-0.02079436622560024,-0.046808695589192206,-0.021117679895833134
1783693630350305500,6.745305419921875,0.021984452793002127,-0.03912215967457741,0.005886427690088749
1783693630360267500,6.755267578125,0.03662438804209232,0.00815513980705291,0.029747268814221024
1783693630370230500,6.76523046875,0.02460954059958458,0.023597623610682784,0.04567570950388908
1783693630380192500,6.775192626953125,-0.055094695234298705,0.027190971927531064,0.04683269751928747
1783693630390155500,6.785155517578125,-0.1309995387852192,0.05780369846466928,0.040568157231807705
1783693630400117500,6.795117431640625,-0.17089900297522545,0.044161103689856825,0.0314719737149775
1783693630410080500,6.80508056640625,-0.178330029758811,0.015503749004192649,0.0035970746438950298
1783693630420043500,6.81504345703125,-0.14789865113794803,-0.02556015585530549,-0.045023383074998855
1783693630430005500,6.825005615234375,-0.11192658952474593,-0.035149420118704436,-0.05599610105343163
1783693630439968500,6.834968505859375,-0.07520809345841407,-0.027758908008597788,-0.03751154614016414
1783693630449930500,6.844930419921875,0.0020657003581523894,0.006650580462999642,-0.009378580654785036
1783693630459894300,6.854894287109375,0.0248830968439579,0.04804379034209996,0.02882482020705938
1783693630469856000,6.86485595703125,0.031710312515497205,0.07246445730607956,0.0677579966481775
1783693630479819000,6.874819091796875,0.037620997864007945,0.04843783116098493,0.06127323773875832
1783693630489781200,6.88478125,0.03947510129809379,0.03669909724611789,0.03203282246813178
1783693630499744300,6.894744140625,0.03224865717589855,0.004273841394297778,-0.00018171324245631695
1783693630509706200,6.904706298828125,0.03930968160331249,-0.05515705641340464,-0.01171001927703619
1783693630519669000,6.9146689453125,0.04775660743117332,-0.09817717337459325,-0.021412863450124858
1783693630529631200,6.92463134765625,0.06325286724865437,-0.08400357699561864,-0.012518851441890001
1783693630539594200,6.93459423828125,0.015313888987898826,-0.056552967751212414,0.04198818009756505
1783693630549556200,6.94455615234375,-0.0453437010705471,-0.018970840592868625,0.09927753583192825
1783693630559519000,6.95451904296875,-0.13238719375133515,0.01983458128273487,0.12454817068874835
1783693630569481200,6.964481201171875,-0.19451368731856344,0.045582989719137545,0.0969636328663677
1783693630579444200,6.9744443359375,-0.20191957966089247,0.09304298882391303,0.0975132295731455
1783693630589407200,6.9844072265625,-0.1778407849371433,0.08730897521656006,0.10120587354600429
1783693630599369000,6.994368896484375,-0.1563824018448591,0.08610201057959348,0.08524499189145862
1783693630609332000,7.00433203125,-0.11909750406742095,0.05411405016649514,0.022839389121904967
1783693630619294200,7.014294189453125,-0.06763035168051719,0.010600231404229998,-0.02878543804474175
1783693630629257200,7.02425732421875,-0.041922494450211525,0.004818469665013253,-0.08861001134514808
1783693630639219000,7.034218994140625,-0.016584055054187773,-0.004402947666682303,-0.13653430349342524
1783693630649182200,7.04418212890625,0.05762801310420036,-0.028512356724403796,-0.1219972440969199
1783693630659144200,7.054144287109375,0.11575462338030337,-0.02498889530599117,-0.09281155468821525
1783693630669107200,7.064107177734375,0.16179215193390845,-0.019649105180613694,-0.05024513631127774
1783693630679069000,7.07406884765625,0.09516951599121093,0.00010565233156085014,0.0032793869968503714
1783693630689032200,7.0840322265625,0.0528074610799551,0.02718001214209944,0.037916400614008305
1783693630698994200,7.093994140625,0.005983166062831878,0.022552461939305067,0.06338051221631467
1783693630708957200,7.103957275390625,-0.05969079085290432,0.0017826456330716609,0.049811859460547565
1783693630718919000,7.1139189453125,-0.1026040499061346,-0.005612286923825741,0.030233956352621313
1783693630728882200,7.123882080078125,-0.07758826659321784,-0.01313661801405251,0.07205057927556335
1783693630738845200,7.13384521484375,-0.06578560059666633,-0.04319510820191353,0.07349069508127867
1783693630748807200,7.14380712890625,-0.06342062503099441,-0.023798005020990966,0.04274440529234707
1783693630758770200,7.153770263671875,-0.08775193321108818,-0.010915909757278859,0.08466229663267731
1783693630768732200,7.163732177734375,-0.08387947569191455,0.018961049851216376,0.11029438521303236
1783693630778695200,7.173695068359375,-0.09383505251705646,0.051416700841300185,0.1028976990904659
1783693630788657200,7.1836572265625,-0.13852525811493396,0.0591033463537693,0.07986534467972814
1783693630798620200,7.1936201171875,-0.14625556010603905,0.05576744339670986,0.06669782007075846
1783693630808582100,7.20358203125,-0.07783142769932747,0.03702668523266911,0.08461115096732974
1783693630818545200,7.213545166015625,-0.021133973443508147,0.015115334208495914,0.0613709990248084
1783693630828507100,7.223507080078125,0.02497837391197681,-0.007079254203848541,0.005132175256684422
1783693630838470100,7.23347021484375,0.04152560408711433,-0.03291187032498419,-0.029916853227466345
1783693630848432000,7.24343212890625,0.07490121946632862,-0.03236895908731967,-0.05374057721160352
1783693630858395100,7.25339501953125,0.09469196160733699,-0.03931132557112724,-0.06365567589588463
1783693630868357000,7.263357177734375,0.09729425306022167,0.0030538346126675604,-0.03781250184811651
1783693630878320000,7.273320068359375,0.024368717581033705,0.041741256131790576,-0.009615969607234001
1783693630888283100,7.283283203125,-0.022322306445240973,0.06329407604187727,0.01643828990794718
1783693630898245000,7.2932451171875,-0.05497311468124389,0.05256382504981011,0.02640219617001712
1783693630908208000,7.3032080078125,-0.10997954711019992,0.029916597499139604,0.001959682700410485
1783693630918170000,7.313170166015625,-0.14432137717306612,-0.006309621538221836,-0.01521751594133675
1783693630928133400,7.32313330078125,-0.11553425862789153,-0.04192494213562459,-0.029750849010795354
1783693630938095000,7.33309521484375,-0.07165478489100932,-0.05204279685039073,-0.032582199979200956
1783693630948058000,7.34305810546875,-0.026751228803396223,-0.05529577076435089,-0.014692615284398197
1783693630958020000,7.35302001953125,-0.004153028026223182,-0.020483108319342136,0.00580130668990314
1783693630967983400,7.3629833984375,-0.04691723399758339,0.026150669094361364,0.03200140441656112
1783693630977945000,7.372945068359375,-0.050879123365879055,0.06110204589031636,0.049174511405080557
1783693630987908000,7.382908203125,-0.029734044006466863,0.04883362554553896,0.09677000999040901
1783693630997870000,7.3928701171875,-0.03018471038341522,0.04826371670309454,0.0824736274819821
1783693631007833300,7.402833251953125,-0.0035796120524406432,-0.011276778958924113,0.05587598180510103
1783693631017795000,7.412795166015625,0.00879120922088623,-0.07799319413229823,0.043808454327285286
1783693631027758000,7.422758056640625,-0.009636427873373031,-0.08544584822580217,0.012700710814818739
1783693631037721000,7.43272119140625,-0.059254737523198125,-0.04226838527843356,-0.006351780179515481
1783693631047683300,7.442683349609375,-0.06574994476139545,-0.04380567784830928,0.01697882652543485
1783693631057646000,7.45264599609375,-0.06378770477771759,-0.008086604615487158,0.04563742332011461
1783693631067608000,7.462608154296875,-0.08536708390116692,0.012031177522800862,0.04043503237143159
1783693631077571000,7.472571044921875,-0.09873393047451973,0.03048281654715538,0.009760784905403852
1783693631087533300,7.482533203125,-0.10447276638746261,0.03520118683855981,0.00215805481672287
1783693631097496000,7.49249609375,-0.060088850259780884,-0.004804879531078041,0.010997925484925508
1783693631107458000,7.5024580078125,-0.011983283260464668,0.013369221193529665,0.016214125763252377
1783693631117421000,7.512421142578125,0.026699206355214118,0.021146394533663987,0.010414572639018297
1783693631127383300,7.52238330078125,0.06842413240671158,0.014824132709577678,-0.00991071477010846
1783693631137346000,7.532345947265625,0.09640227265655994,0.014817228044755756,-0.0016610650800168514
1783693631147308000,7.54230810546875,0.06066811145246029,0.022035123534314333,0.019319471367448566
1783693631157271000,7.55227099609375,0.005263035094738007,-0.01206423954218626,0.010880582715570925
1783693631167233300,7.5622333984375,-0.021194179198145865,-0.006802044697664678,0.0006007423721253872
1783693631177196000,7.572196044921875,-0.0012117138773202894,-0.03086633597202599,0.045635231363028286
1783693631187158000,7.582157958984375,0.003642740416526794,-0.03476180904060602,0.06634951808974146
1783693631197121000,7.59212109375,-0.033574352821707724,-0.03518259173594415,0.06794022134728729
1783693631207084300,7.602084228515625,-0.05059972190260887,-0.022039178654924035,0.047871612112969156
1783693631217046000,7.6120458984375,-0.07725625815987587,-0.012329904741048812,0.040589126954600215
1783693631227009000,7.622009033203125,-0.1156535010933876,0.010360065972805022,0.033982129905000324
1783693631236971300,7.63197119140625,-0.1770014115035534,0.03033255788888782,0.020762728978320957
1783693631246934300,7.641934326171875,-0.20546704300940036,0.012402056661807,0.0054328387036919595
1783693631256896300,7.651896240234375,-0.2580985630005598,0.012004033787548541,-0.00929280206747353
1783693631266859000,7.66185888671875,-0.21872049233615398,0.0023508374424651263,0.02010441120006144
1783693631276821200,7.6718212890625,-0.10707798044979572,-0.01872453768160194,0.020767185957729816
1783693631286784300,7.6817841796875,-0.006070844346284866,-0.03362787310723215,0.03168773535750806
1783693631296746200,7.691746337890625,0.033144144710898396,-0.020881094660982487,0.03129822458326816
1783693631306709000,7.701708984375,0.13733107989430426,0.0034436741804704067,0.07748005697838961
1783693631316671200,7.711671142578125,0.1960579941511154,0.015263327844440936,0.10840294544324278
1783693631326634200,7.72163427734375,0.16367489694058895,0.04685300965495407,0.12277780001536011
1783693631336596200,7.73159619140625,0.06569266161620617,0.07925579794663935,0.09828713655509054
1783693631346559000,7.74155908203125,0.005807809495925903,0.05225114237144589,0.05939319614581763
1783693631356522000,7.75152197265625,-0.028893501529097556,0.00544620964191854,-0.013118643965944646
1783693631366484200,7.761484130859375,-0.047261517390608784,-0.02981967646330595,-0.07425649182200432
1783693631376447200,7.771447265625,-0.05427753363251686,-0.058569604803249235,-0.1115286762483418
1783693631386409000,7.781408935546875,-0.050824178308248515,-0.07268847532030194,-0.10308175042048096
1783693631396372000,7.7913720703125,-0.05772855086922645,-0.03807455031778663,-0.08360767301321029
1783693631406334200,7.801334228515625,-0.09359422949850559,0.0081462989134714,-0.03227218418195844
1783693631416297200,7.811297119140625,-0.09882160875797272,0.016382358469627798,0.023766586969420314
1783693631426259000,7.821259033203125,-0.10168284340798854,0.037605106175132096,0.06484020950533449
1783693631436222000,7.831221923828125,-0.12434008089601993,0.04638027757667005,0.09123772950023412
1783693631446184200,7.84118408203125,-0.13054010457992554,0.022509937971830367,0.07849296034798026
1783693631456147200,7.851147216796875,-0.09750234285295009,0.016668591532483696,0.04164974192343652
1783693631466109400,7.861109375,-0.028568507358431815,-0.014516966456547379,0.02565356975980103
1783693631476072400,7.871072509765625,0.0059556935340166085,-0.039056766288168725,0.02757372416742146
1783693631486034700,7.88103466796875,0.026600422155857086,-0.04915018068142235,0.016595745491981506
1783693631495997400,7.89099755859375,0.053068742364645004,-0.031946495891548694,0.03650280748903751
1783693631505959400,7.90095947265625,0.0636783991843462,-0.011936375378817319,0.055603448474034665
1783693631515922400,7.91092236328125,0.010413257464766502,0.013762385229580103,0.05592274355627596
1783693631525885700,7.9208857421875,-0.028318331989645958,0.007819295448809861,0.032667247914150356
1783693631535847400,7.930847412109375,-0.05048866274356842,0.012455540414713322,0.015798749895393847
1783693631545810400,7.940810546875,-0.0897159267604351,0.031592494822107256,-0.007269552611559629
1783693631555772400,7.9507724609375,-0.11382570114433765,-0.0021777458978816866,-0.016600056340917945
1783693631565735700,7.960735595703125,-0.097998601937294,-0.036896081122942265,-0.022431465908139943
1783693631575697400,7.970697509765625,-0.08205518287420273,-0.03961903981342912,0.004846490183100104
1783693631585660400,7.980660400390625,-0.07944412359297275,-0.01963989896085113,0.020932459522038697
1783693631595622700,7.99062255859375,-0.08330138354301451,0.016767814123257993,0.03415324868820607
1783693631605585700,8.000585693359374,-0.1129173541277647,0.04452306887004524,0.05131086584664881
1783693631615547400,8.01054736328125,-0.10538286696970463,0.05200911377649754,0.05050320272557437
1783693631625510400,8.020510498046875,-0.03883388078510761,0.06479468986317515,0.009051175331324338
1783693631635472600,8.03047265625,0.037299510824680325,0.03664422525372356,0.01101852988153696
1783693631645435600,8.040435546875,0.08757540760040283,0.010094619969651102,0.009474588375166059
1783693631655397400,8.0503974609375,0.13461246858537196,-0.010249627868272363,-0.0028562662139534948
1783693631665360400,8.0603603515625,0.14640402866601943,-0.028097857639379796,0.009561974397674202
1783693631675323400,8.070323486328125,0.08700432971417904,0.006211385328136384,0.03957563906311989
1783693631685285600,8.08028564453125,0.010568155765533447,0.01757734040785581,0.027926629258319735
1783693631695248600,8.09024853515625,-0.0735030431061983,-0.0009296090003103018,0.006573094779998063
1783693631705210400,8.10021044921875,-0.150578684002161,-0.008517178052477538,-0.0004861030165106058
1783693631715173400,8.11017333984375,-0.16139409252703188,-0.0023455036802217362,0.013439035026729105
1783693631725135600,8.120135498046874,-0.1695680466324091,-0.0030060134155675765,0.013651654864102601
1783693631735098600,8.1300986328125,-0.12023381462097167,0.014421470192819833,0.03380165877155959
1783693631745060400,8.140060302734375,-0.1072790559798479,0.02391892798691988,0.050783992428332564
1783693631755023400,8.1500234375,-0.08340075226426125,0.01403765850700438,0.03468194873742759
1783693631764985600,8.159985595703125,-0.06329144569337368,0.002116444164700806,-0.013937924459576607
1783693631774948600,8.169948486328124,-0.1029658689558506,0.0026154066627845167,0.014314868013188242
1783693631784910300,8.179910400390625,-0.11125497387349605,0.058585606089979404,0.11061221899054943
1783693631794873600,8.18987353515625,-0.09102525579333305,0.07817885289750993,0.026459406249970195
1783693631804835600,8.199835693359375,-0.04503916516602039,0.03217288852594793,0.003975041110813617
1783693631814798600,8.209798583984375,0.02556055771410465,-0.019287541859224436,0.02142375017032027
1783693631824760300,8.21976025390625,0.05303425557315349,-0.007406075005419552,0.014859861610084771
1783693631834723600,8.2297236328125,0.09510346501767634,0.0012752441002056001,0.031461890712380404
1783693631844686600,8.2396865234375,0.12870996654331684,0.007882241149805486,0.03420169093981385
1783693631854648600,8.249648681640625,0.1222632746219635,0.0285846182430163,0.026316198386996982
1783693631864611600,8.259611572265625,0.11680267112851142,0.03116181178726256,0.007907631319388746
1783693631874573600,8.269573486328126,0.13040040384829044,0.004531031025759876,-0.01501512523703277
1783693631884536600,8.27953662109375,0.14763269367814064,-0.005284479741565883,0.010398206026107071
1783693631894498600,8.28949853515625,0.15234277106523514,-0.009875424261018633,0.0031759996876120564
1783693631904461600,8.299461669921875,0.0882470232516527,-0.009536949554271996,-0.008965104483067988
1783693631914423600,8.309423583984374,-0.030139702197909353,-0.035832799272984266,-0.04567410206869244
1783693631924386600,8.319386474609376,-0.1545218686699867,-0.02403491904940456,-0.05852021270357072
1783693631934348500,8.3293486328125,-0.2409539514541626,0.003968246043846011,-0.005157967285066843
1783693631944311600,8.3393115234375,-0.3448293364703655,0.05585402570161968,0.06643873074315489
1783693631954273500,8.3492734375,-0.3570440903991461,0.05689790873136371,0.09477540210708975
1783693631964236500,8.359236572265624,-0.27880875807404515,0.045613640585727984,0.08409998657479882
1783693631974198500,8.369198486328125,-0.21188918501138687,0.044999892601557075,0.1125906063914299
1783693631984161500,8.37916162109375,-0.13487316534817217,0.051281676284782585,0.14798786379136145
1783693631994123500,8.38912353515625,-0.03207914582788944,0.04984459268637001,0.13354637372381983
1783693632004086500,8.39908642578125,0.00315232655107975,0.06683419633414596,0.08406396541334687
1783693632014049500,8.409049560546874,0.005913607957959175,0.06561952331475913,0.0432522817492485
1783693632024011500,8.419011474609375,0.013968904119729996,0.02533825673293322,0.005030249252170324
1783693632033974500,8.428974609375,0.02718494404554367,-0.015608889879100024,-0.04008380778096616
1783693632043936500,8.4389365234375,0.07491700155735015,-0.038942236530408264,-0.07244213587641715
1783693632053899500,8.4488994140625,0.0961246247589588,-0.06776442638896406,-0.06676737817563116
1783693632063861500,8.458861572265626,0.11364157674908637,-0.05523202134575694,-0.045125893601402636
1783693632073824500,8.468824462890625,0.11638999867439269,-0.012548479395173489,0.023641645415499804
1783693632083786500,8.478786376953124,0.060948681959509844,0.005795461471006274,0.0789664961438626
1783693632093749500,8.48874951171875,-0.0036520927667617795,0.045776466464623806,0.10260836075507104
1783693632103711500,8.49871142578125,-0.08114742037951946,0.06071169486586004,0.0930947555437684
1783693632113674500,8.508674560546876,-0.1512982304483652,0.06976396617572754,0.06162950383052229
1783693632123636500,8.518636474609375,-0.17281974190473556,0.04286156539861113,0.04683773902058601
1783693632133599500,8.528599609375,-0.16460311770141123,0.006062734105065464,-0.0008689648542553186
1783693632143561700,8.538561767578125,-0.1578992361485958,-0.020909297842159866,-0.030750527572631834
1783693632153524500,8.5485244140625,-0.14220248532295227,-0.0330212855162099,-0.08078099821992218
1783693632163487500,8.558487548828126,-0.09972060342431067,-0.05138608650732785,-0.06038593351021409
1783693632173449500,8.568449462890625,-0.024320202264189718,-0.054434623890370126,-0.028470015420019625
1783693632183412500,8.57841259765625,-0.0064233110457658765,-0.007051525946706533,0.015536811023578047
1783693632193374700,8.588374755859375,-0.0038192660272121427,0.03388615871723741,0.07445661750398576
1783693632203337500,8.59833740234375,-0.036086627903580665,0.053995574885979294,0.0862419670395553
1783693632213299500,8.608299560546875,-0.04725274956226349,0.05838661291915923,0.07504968802630901
1783693632223262500,8.618262451171875,-0.051993806609511375,0.03677935940809548,0.03519391684755683
1783693632233224700,8.628224609375,-0.04290507574677467,0.021960670058615503,0.050664896093308924
1783693632243187500,8.6381875,-0.06273907250761986,0.02742273485679179,0.05247859445177018
1783693632253149400,8.6481494140625,-0.08030395529270172,-0.005670337253995239,0.004725713347643614
1783693632263112400,8.658112548828125,-0.12750351336300372,-0.0037618367515504358,-0.043240299050509926
1783693632273074700,8.66807470703125,-0.15003215603530407,0.004232194209657609,-0.049706426324695345
1783693632283037400,8.678037353515625,-0.108259883710742,0.010438866830058395,-0.02190020857565105
1783693632292999400,8.68799951171875,-0.07028291201591491,0.039837614467553795,0.00454253880046308
1783693632302962400,8.69796240234375,-0.04127776680588722,0.05839121602904051,-0.017607041426375508
1783693632312924700,8.707924560546875,-0.01746960571706295,0.05192790176644921,0.003276245191693306
1783693632322887400,8.717887451171874,0.07475567351579665,0.05234601758066564,0.029190657844766973
1783693632332849400,8.727849365234375,0.10791676936149597,0.04416249192934483,0.0407591497592628
1783693632342812400,8.7378125,0.10116320344805717,0.06110379945598542,0.04598470238782465
1783693632352775700,8.747775634765626,0.052557870233058926,0.06592873539440333,0.04183605827577412
1783693632362737400,8.7577373046875,-0.003510638469457626,0.04345945822652429,0.005954232229292393
1783693632372700400,8.767700439453124,-0.06089315237998962,0.020098821709491312,-0.041813481117784976
1783693632382662700,8.77766259765625,-0.0716600455880165,-0.0013258417762815951,-0.08075579071342945
1783693632392625700,8.787625732421875,-0.05065291339457035,-0.034885654615983364,-0.07852394000813365
1783693632402587400,8.79758740234375,0.009271686214208602,-0.022582236023060975,-0.04577902374789118
1783693632412550400,8.80755029296875,0.036594577425718304,-0.010128376108780503,-0.003285962868109345
1783693632422512600,8.8175126953125,0.0432826768875122,-0.0031178762922063467,0.027175007173418995
1783693632432475600,8.8274755859375,0.012067454412579537,0.01592299732957035,0.06546235999166965
1783693632442437400,8.837437255859374,-0.053583706149458885,0.06695128337517381,0.09480433594062924
1783693632452400400,8.847400390625,-0.09047697426080703,0.05924534864034503,0.07503909356705844
1783693632462361900,8.85736181640625,-0.07680676082670689,0.01692304121758789,0.04543364437632262
1783693632472324900,8.867324951171875,-0.05367255347669124,-0.005048369430750608,0.013786825551092624
1783693632482286800,8.877286865234375,-0.024687282010912893,-0.02699347659405321,0.013007730937376618
1783693632492249900,8.887249755859376,-0.029278701454401014,0.00793682088125497,0.048493543403595685
1783693632502211800,8.8972119140625,-0.03841127145886421,0.016095029428228734,0.043656259440258145
1783693632512174800,8.9071748046875,-0.03965981021523476,0.02139551045652479,0.04335296564474701
1783693632522137900,8.917137939453125,-0.07789747867286205,0.03325834567509591,0.04377871677614748
1783693632532099800,8.927099853515625,-0.08906418485343456,0.03476754466164857,0.04019304030910134
1783693632542062800,8.937062744140626,-0.09391045584082602,0.028753618134371935,0.008958309416100383
1783693632552024800,8.94702490234375,-0.10138006106913089,0.003483531266823411,-0.025581308241188525
1783693632561987800,8.95698779296875,-0.014950900894403457,-0.03896284092701971,-0.03470065343789756
1783693632571950000,8.9669501953125,0.04322071756720543,-0.04059402232542634,0.0006157938107848167
1783693632581912800,8.976912841796874,0.10738485444188117,-0.04613236723020672,0.02579210144765675
1783693632591874800,8.986874755859375,0.13610709105730057,-0.014505531747080384,0.04258176207654178
1783693632601837800,8.996837890625,0.10153846650123595,0.006277838160470128,0.061368441741541026
1783693632611800000,9.006800048828126,-0.0012426935374736784,0.04809376696366816,0.041180297780781985
1783693632621762800,9.0167626953125,-0.07583820805549621,0.0803166321111843,0.03174026926234364
1783693632631724800,9.026724853515624,-0.16462532953321932,0.05299414275847375,0.01918656570278108
1783693632641687800,9.036687744140625,-0.19580781878232956,0.015284735958650708,-0.028536650915443895
1783693632651650000,9.046650146484374,-0.22696634263396262,-0.033679968620650466,-0.04369892953820526
1783693632661612800,9.05661279296875,-0.19089023612439632,-0.08071516644209623,-0.07297076286040247
1783693632671574800,9.06657470703125,-0.17488427321910857,-0.06599000059496611,-0.06067658701986074
1783693632681537800,9.076537841796876,-0.10670330191850662,-0.04770772678814828,-0.02806216527149081
1783693632691500000,9.0865,-0.04870587098002434,-0.008049670138582586,0.11057305602394044
1783693632701462800,9.096462890625,0.0006564180821180344,0.054105063142441207,0.1452250480145216
1783693632711425800,9.10642578125,0.006989712756872176,0.03733976976983249,0.14929025162681936
1783693632721387800,9.1163876953125,0.008065233033895492,0.022096425267495213,0.1326123808093369
1783693632731350800,9.126350830078126,0.01514203955233097,0.009906440453790128,0.09783763922192155
1783693632741312800,9.136312744140625,-0.021411621341109275,-0.013577676312439143,0.07693630549050867
1783693632751275800,9.14627587890625,-0.026369536009430882,-0.0360166679399088,0.03180639330111444
1783693632761237800,9.15623779296875,-0.03398819431960583,-0.03764737441428005,-0.009219371505081652
1783693632771200800,9.16620068359375,-0.04766191488504409,-0.041752508178167044,-0.03634805531874299
1783693632781162800,9.176162841796875,-0.02612228325009346,-0.030105215406417845,-0.0429194695983082
1783693632791125800,9.186125732421875,-0.03264145588576794,-0.026026385127566755,-0.026283684356883167
1783693632801087700,9.196087646484376,-0.058416533133387565,0.02182392846904695,-0.0035690175931900737
1783693632811051000,9.206051025390625,-0.11749708313345908,0.04570654303357005,0.02656293968968093
1783693632821012700,9.2160126953125,-0.16482055984437466,0.06694364805798977,0.03784676944389939
1783693632830975700,9.225975830078125,-0.15923603771030903,0.07980740394741297,0.04720518409349024
1783693632840937700,9.235937744140625,-0.11892857724130153,0.07412661836463957,0.06510324435569345
1783693632850901000,9.24590087890625,-0.029814708027243612,0.037308461316116155,0.030087387488782404
1783693632860862700,9.25586279296875,0.04914776952862739,0.0007070157581940293,0.009972966351360081
1783693632870825700,9.26582568359375,0.1010351931542158,-0.027972368096187708,-0.01848711219653487
1783693632880788700,9.275788818359375,0.07812836481928825,-0.005571187728457152,-0.03758534202873707
1783693632890751000,9.2857509765625,0.02744680985212326,0.0109573742788285,-0.04875767423249781
1783693632900714000,9.2957138671875,0.012852467310428618,0.025613383879885075,-0.03954407488107681
1783693632910675700,9.30567578125,-0.02030862853527069,0.02373381721097976,-0.02540405197814107
1783693632920638700,9.315638671875,-0.03085924864411354,0.013135777763836084,-0.03449994323402643
1783693632930601000,9.32560107421875,-0.01774666909277439,0.006618760552629828,-0.05434942982494831
1783693632940564000,9.33556396484375,0.00376665905714035,0.006179127026349306,-0.03434533719420433
1783693632950525700,9.345525634765625,0.05344166733026504,0.016261362438462674,-0.0319337460078299
1783693632960488700,9.35548876953125,0.08358487665951252,0.017368191169202327,-0.04104549241997301
1783693632970451000,9.365450927734376,0.06153671098053455,0.029037988033704457,-0.010422244488820433
1783693632980414000,9.3754140625,0.01551671808362007,0.057564336750842625,0.0438301547024399
1783693632990375700,9.385375732421876,-0.055659343379735944,0.030983386480435728,0.018716829299181698
1783693633000338700,9.395338623046875,-0.08987842384576797,-0.007796572160348295,0.008128653658926486
1783693633010301000,9.405301025390624,-0.10913725106716156,-0.023026107333041727,0.013639745230600237
1783693633020264000,9.415263916015626,-0.09353986896276474,-0.040388380218110975,0.026757147087529302
1783693633030225700,9.4252255859375,-0.08977087181806563,-0.03658880527205765,0.022869272803515195
1783693633040188700,9.435188720703126,-0.08044657863378524,-0.03751172880325466,0.014601795195788143
1783693633050151000,9.44515087890625,-0.05390402414500713,-0.05596950530745089,0.03865406723879278
1783693633060114000,9.455114013671874,-0.036948213168978686,-0.03405442795623094,0.04897774672396481
1783693633070077000,9.465076904296875,-0.052797524207830425,-0.01903762221876532,0.08648775849416851
1783693633080039000,9.475038818359375,-0.03983458226025104,0.03921407574173063,0.1676541027698666
1783693633090002000,9.485001953125,-0.04172434152960777,0.06185381410568952,0.11247151005640625
1783693633099964000,9.4949638671875,-0.0602449176043272,0.045147155585139986,0.08988112725950777
1783693633109927000,9.504927001953124,-0.04523614904284477,0.052113304803334176,0.06231551333330571
1783693633119889000,9.514888916015625,-0.01385667591691017,0.021864041283726692,0.017473112848401067
1783693633129852000,9.524851806640624,0.0058937342137098305,-0.00457804850526154,-0.06506064732298254
1783693633139814000,9.53481396484375,-0.007359130591154098,-0.011691204978711902,-0.11582732329033314
1783693633149777000,9.54477685546875,0.03022445787191391,-0.02439940498024225,-0.12993483216315507
1783693633159739000,9.55473876953125,0.07952303404808043,-0.04643503997121006,-0.11210019252598286
1783693633169702000,9.564701904296875,0.09692892687916756,-0.037347295489162206,-0.03187324799224734
1783693633179664000,9.574663818359374,0.010491583397984503,0.0034749826341867445,0.005336027265712619
1783693633189627000,9.584626953125,-0.05631751502752304,0.014538520701229572,0.059208341098204255
1783693633199588900,9.5945888671875,-0.07151859129071235,-0.01882978815436363,0.0812071146775037
1783693633209552000,9.6045517578125,-0.08439385495483875,-0.023339155337586997,0.0933843130748719
1783693633219513900,9.614513916015625,-0.07812427316606044,-0.035980135321803386,0.11203319170437752
1783693633229476900,9.624476806640626,-0.04012859677076339,-0.026301293078809976,0.11485847825817763
1783693633239438800,9.63443896484375,-0.048801148048043246,-0.01692150684762746,0.08144238473810254
1783693633249401900,9.64440185546875,-0.05311433507204055,-0.04800934008322656,0.062481444484740495
1783693633259364900,9.65436474609375,-0.058688335812091826,-0.04039316599108279,0.08529621062204241
1783693633269326800,9.664326904296875,-0.10844167001843452,0.011404277796112,0.056885158847644925
1783693633279289900,9.674289794921876,-0.14788520713448525,0.029297588817961514,0.04043298654481768
1783693633289251800,9.684251953125,-0.16880232295691966,0.04557645038049668,0.03652918403930962
1783693633299214800,9.69421484375,-0.13798165275752544,0.03252835090011358,0.038227220128849146
1783693633309176800,9.7041767578125,-0.10031389314234256,0.013428696295805275,0.005298763995245099
1783693633319139800,9.714139892578125,-0.04511573753356933,0.022979783973284065,-0.011647986891493201
1783693633329101800,9.724101806640626,-0.001844166561961174,0.025315862238034604,-0.01373575295098126
1783693633339064800,9.73406494140625,0.0737736767411232,-0.002403079086355865,0.01069886947311461
1783693633349026800,9.74402685546875,0.085154317933321,-0.00975037310924381,-0.0037875557146966454
1783693633358990000,9.753989990234375,0.01563011533021927,-0.007534304494969547,-0.04433963859453797
1783693633368951800,9.763951904296874,0.011902034717798233,-0.02787332816850394,-0.04984137781597674
1783693633378914800,9.773914794921875,0.0215063138872385,-0.0680861326240003,-0.031785350513085724
1783693633388876800,9.783876708984375,-0.00019230770170688627,-0.06858955210149288,-0.037284386320784686
1783693633398840000,9.793840087890626,-0.018581950873136518,-0.05223309525810182,-0.006854980461299419
1783693633408801800,9.8038017578125,0.013194997137784957,-0.06784220433291048,0.006426379785686731
1783693633418764800,9.813764892578124,0.02294891391098499,-0.05675057268254458,0.02657316882275045
1783693633428726800,9.823726806640625,-0.03150748341977596,-0.005692329890094697,0.07102627772912383
1783693633438690000,9.83368994140625,-0.07079495319128036,0.00822002173680812,0.0791305275991559
1783693633448652800,9.84365283203125,-0.08241466383635997,0.012589688188396394,0.07255100307837128
1783693633458614800,9.85361474609375,-0.10124971268773078,0.004008578054234385,0.07268902330957352
1783693633468578600,9.86357861328125,-0.11201017615497112,-0.00021291209831833839,0.06996157110705971
1783693633478540500,9.87354052734375,-0.09705985978245735,-0.001025762851163745,0.05029189806245267
1783693633488503600,9.883503662109375,-0.07320142981112003,-0.008293854157999157,-0.002582490773871541
1783693633498465500,9.893465576171875,-0.05881050088703632,0.0020305194469168782,0.00040251638628542423
1783693633508428500,9.903428466796875,-0.05159107102751732,-0.030763313988968727,-0.03650616848990321
1783693633518390500,9.913390625,-0.08420563890635967,-0.03399151878785342,-0.042568098877370356
1783693633528353500,9.923353515625,-0.11370236702561377,-0.0006025324704125524,-0.008706380481645465
1783693633538315500,9.9333154296875,-0.09006313276290893,0.0033952684614807363,-0.007199117723852395
1783693633548278500,9.943278564453125,-0.034381577551364895,-0.03334697380661964,0.01500007379837334
1783693633558240500,9.953240478515625,0.03353811246454715,-0.05856405184529721,0.03203830236084759
1783693633568203500,9.96320361328125,0.0651028790295124,-0.05462433777619153,0.03299881795607507
1783693633578165500,9.97316552734375,0.09972644864320754,-0.025385493408143518,0.03706153735034168
1783693633588128500,9.98312841796875,0.1074099888831377,0.004819163784757256,0.04554864905811846
1783693633598090500,9.993090576171875,0.05837386303544044,0.020809709925204513,0.03996164270602166
1783693633608053500,10.003053466796874,0.0029530045866966244,0.01653488215021789,0.008265724042057991
1783693633618016500,10.0130166015625,-0.0553214897274971,0.017051161109283567,-0.02183466905876994
1783693633627978500,10.022978515625,-0.12426175496280192,0.04143036355171353,-0.057854076945036643
1783693633637941200,10.032941162109376,-0.1845738925844431,0.02178491163291037,-0.04061769546195865
1783693633647903500,10.042903564453125,-0.18238018193244934,0.017114143342897296,0.0008202303417026996
1783693633657866500,10.052866455078124,-0.15075579413473605,0.021276523719355463,0.005523658792302012
1783693633667828500,10.062828369140625,-0.09039864832758902,-0.01269417147617787,0.02702091259025037
1783693633677791200,10.072791259765625,0.00602057546377182,-0.019219518124312163,0.04377908210232854
1783693633687753500,10.08275341796875,0.023074586117267606,-0.0013937924459576606,0.05967661619707942
1783693633697716500,10.092716552734375,0.02197743853032589,0.01143891071807593,0.11749299148023128
1783693633707678500,10.102678466796876,-0.018469722670316695,0.062189914192259305,0.09241320302039384
1783693633717641500,10.112641357421875,-0.05152852718532085,0.06090882487315684,0.04462006297111511
1783693633727603500,10.122603515625,-0.005090601137280464,0.043140163144283,0.0478644517198205
1783693633737566500,10.13256640625,0.012019523617625236,0.03477324375007301,0.02732069925442338
1783693633747528400,10.142528564453125,0.04770458498299122,0.008739734761975705,-0.01660414799414575
1783693633757491700,10.15249169921875,0.05429974546432495,-0.024899025065451857,-0.04605177627466619
1783693633767453400,10.162453369140625,0.02501344522535801,0.0008282675176858902,-0.0341021030228585
1783693633777416400,10.17241650390625,-0.011433832684159278,0.021653723001293836,0.0001432078629732132
1783693633787379500,10.18237939453125,-0.061597501257061954,0.026632169000990687,-0.034040582093968985
1783693633797341700,10.192341796875,-0.05057575650513172,0.009518792843073606,-0.009438128822296858
1783693633807304400,10.202304443359376,-0.025881460231542586,0.011359488806314766,0.07902166039720177
1783693633817266400,10.212266357421875,-0.05915419975817203,0.043740211396664376,0.07389525729417801
1783693633827229400,10.2222294921875,-0.0927004955291748,0.027947306720167396,0.05692161840051412
1783693633837191700,10.232191650390625,-0.08161503789126873,0.0005852525420486927,0.056495501942932604
1783693633847154400,10.242154541015625,-0.05409224019348621,-0.007038337671570479,0.04005633525215089
1783693633857116400,10.252116455078125,-0.004277531188726425,-0.010848762805201112,0.06686221685223281
1783693633867079400,10.262079345703125,-0.05234802687466144,0.011957710427790879,0.04010411991663277
1783693633877041700,10.272041748046876,-0.11943828032910823,0.031988910261169075,0.01577756097689271
1783693633887004400,10.28200439453125,-0.08908815025091171,0.039763160991854965,0.0726699532829225
1783693633896966400,10.29196630859375,-0.0938461584329605,0.007987710818275809,0.07061440899260342
1783693633906929400,10.301929443359375,-0.14444997198879717,-0.04880607995148748,-0.009744856683909892
1783693633916891600,10.3118916015625,-0.11196809057891369,-0.10871244978383182,-0.07350150873623788
1783693633926854400,10.3218544921875,-0.03629705578386783,-0.11695921339709311,-0.047786198851838706
1783693633936816400,10.33181640625,-0.021150340056419373,-0.055568596356362104,0.013581000780686735
1783693633946779400,10.341779296875,-0.07482055544555187,0.04421487970370799,0.047803369182348246
1783693633956741600,10.35174169921875,-0.06529109507799148,0.06813746095243842,0.07327025726363062
1783693633966704400,10.361704345703124,0.019977789145708084,0.03828713362254202,0.11986242402531205
1783693633976666400,10.371666259765625,0.07102759290337562,0.023603870688378808,0.11100319106951355
1783693633986629400,10.38162939453125,0.13309738784730435,-0.0031372020471841094,0.04420161836333573
1783693633996592600,10.391592529296876,0.21987141593694687,-0.01368168467618525,0.12258739200979471
1783693634006554400,10.401554443359375,0.17652736425101756,0.02670954508613795,0.16878544488735495
1783693634016517400,10.411517333984374,0.019043138644099233,0.03348901262581348,0.05520071289204061
1783693634026479400,10.421479248046875,-0.11468903997540474,0.031429595877975225,-0.025990254368260503
1783693634036442600,10.431442626953125,-0.16507658043205736,0.0040116102615371345,-0.06299472776912153
1783693634046404400,10.441404296875,-0.15055647217035292,-0.051518151921778915,-0.07141893030852078
1783693634056367400,10.451367431640625,-0.11045593245029449,-0.04916775287073105,-0.08237213986888528
1783693634066329600,10.46132958984375,-0.05107669176459312,-0.04502674407586455,-0.046265199829638004
1783693634076292600,10.471292724609375,-0.03352876011431217,-0.026366357671655714,0.025190701488405465
1783693634086254300,10.48125439453125,-0.08916180000901222,0.030812048501521347,0.0042230245225131505
1783693634096217300,10.49121728515625,-0.14296528638899325,0.06883358999043702,0.05183306308984756
1783693634106179600,10.5011796875,-0.13726678248643875,0.10649331242963671,0.1590740520816296
1783693634116142600,10.511142578125,-0.11667933700978755,0.10694609769843517,0.14945084901601075
1783693634126104600,10.5211044921875,-0.0725625473856926,0.07888784141708165,0.0572097146268934
1783693634136067300,10.5310673828125,0.0012368483185768127,0.015949629608169195,0.03688895726241171
1783693634146029600,10.541029541015625,0.09259820419847965,-0.03114029407519847,-0.007124737313389778
1783693634155992600,10.55099267578125,0.12964870869815348,-0.07066515279915184,-0.09153466662019491
1783693634165954600,10.56095458984375,0.058791796186566346,-0.0698433515548706,-0.15677761170752347
1783693634175917300,10.570917236328125,-0.12447685901820658,-0.008816307129524647,-0.17061543679349123
1783693634185880300,10.58088037109375,-0.1364320852279663,0.033100451699644325,-0.016713307457044718
1783693634195842600,10.590842529296875,0.12973287985026835,0.11256861375533044,0.12859174699112771
1783693634205805600,10.6008056640625,0.15604454819262026,0.22816421064902095,0.17035064837746322
1783693634215767300,10.610767333984375,0.5415770664513111,0.11466799718737601,0.4534705476488918
1783693634225730300,10.620730224609375,0.6692214495897293,-0.14088489991836248,0.4797472177430987
1783693634235692500,10.630692626953126,0.15502163488566875,-0.17091730581689624,-0.014337079844996332
1783693634245655600,10.640655517578125,-0.5675310073971748,-0.03653075494188815,-0.206521885824576
1783693634255617300,10.6506171875,-0.8177052071392535,-0.13365264710988847,-0.39744463597908614
1783693634265580300,10.660580322265625,-0.8309417053312063,-0.09555219516586512,-0.38624103185422715
1783693634275542500,10.67054248046875,-0.9745803609371185,-0.029085078578442333,-0.39474041852168734
1783693634285505500,10.680505615234376,-1.0185527736544608,0.018194157131947577,-0.3783352271657437
1783693634295467300,10.69046728515625,-0.9290987127006053,0.0899293137827888,-0.27926512353941796
1783693634305430500,10.700430419921876,-0.787940767994523,0.2428645343158394,0.010738178570196032
