time,seconds_elapsed,z,y,x
1783696677516594400,0.065594482421875,-0.28884774446487427,-1.2788801193237305,-1.2110881805419922
1783696677526557400,0.075557373046875,-0.20983639359474182,-1.303752064704895,-1.2170640230178833
1783696677536520400,0.0855205078125,-0.09382802248001099,-1.1510002613067627,-1.1461315155029297
1783696677546483500,0.0954833984375,0.05925080552697182,-0.9469358921051025,-1.035900354385376
1783696677556446500,0.105446533203125,0.22118617594242096,-0.7985703945159912,-0.921934962272644
1783696677566409500,0.115409423828125,0.37667742371559143,-0.6919994354248047,-0.8133029937744141
1783696677576372700,0.125372802734375,0.49789971113204956,-0.6024064421653748,-0.7653919458389282
1783696677586335500,0.13533544921875,0.5466729998588562,-0.533112645149231,-0.8309984803199768
1783696677596298500,0.145298583984375,0.5138993263244629,-0.41677194833755493,-1.0206575393676758
1783696677606261500,0.155261474609375,0.4430716037750244,-0.22988839447498322,-1.2646135091781616
1783696677616224500,0.165224609375,0.3808055818080902,0.006353168748319149,-1.4523721933364868
1783696677626187500,0.1751875,0.3543289303779602,0.27374011278152466,-1.512630820274353
1783696677636150500,0.185150634765625,0.33604341745376587,0.5164316296577454,-1.4182425737380981
1783696677646113300,0.19511328125,0.3218989372253418,0.6837191581726074,-1.1733962297439575
1783696677656076500,0.20507666015625,0.336790531873703,0.755338728427887,-0.8274404406547546
1783696677666039600,0.21503955078125,0.3456765413284302,0.7565799355506897,-0.42394769191741943
1783696677676002600,0.22500244140625,0.2887573540210724,0.7247969508171082,-0.02579018846154213
1783696677685965600,0.234965576171875,0.2110079675912857,0.6454347968101501,0.32866910099983215
1783696677695928600,0.244928466796875,0.15265411138534546,0.5256705284118652,0.5975368022918701
1783696677705891600,0.2548916015625,0.10908633470535278,0.3877280056476593,0.7651543021202087
1783696677715854300,0.264854248046875,0.06817325204610825,0.273886114358902,0.8400565385818481
1783696677725817300,0.2748173828125,0.039505504071712494,0.2478163093328476,0.8724244832992554
1783696677735780400,0.2847802734375,0.018860679119825363,0.3183344304561615,0.8805489540100098
1783696677745743600,0.29474365234375,0.0017920098034664989,0.4506593346595764,0.8719433546066284
1783696677755706600,0.30470654296875,-0.025154918432235718,0.6245490908622742,0.8420107364654541
1783696677765669600,0.314669677734375,-0.02502196840941906,0.7588835954666138,0.8203405141830444
1783696677775632600,0.324632568359375,0.03515641763806343,0.8126347064971924,0.8203029632568359
1783696677785595400,0.334595458984375,0.1333969384431839,0.748062252998352,0.8671937584877014
1783696677795558400,0.344558349609375,0.20949356257915497,0.533024787902832,0.9559401273727417
1783696677805521400,0.354521484375,0.25364717841148376,0.18880179524421692,1.062973976135254
1783696677815484400,0.364484375,0.27712905406951904,-0.1364615112543106,1.1721066236495972
1783696677825447700,0.37444775390625,0.2773675322532654,-0.36607810854911804,1.2642954587936401
1783696677835410700,0.38441064453125,0.2283533662557602,-0.5366016626358032,1.302351474761963
1783696677845373700,0.394373779296875,0.10858923941850662,-0.6548207998275757,1.2938140630722046
1783696677855336400,0.40433642578125,-0.011486037634313107,-0.8423491716384888,1.2557175159454346
1783696677865299500,0.414299560546875,-0.09424116462469101,-1.0577443838119507,1.141419768333435
1783696677875262200,0.42426220703125,-0.1814972460269928,-1.1027672290802002,0.9846716523170471
1783696677885225200,0.43422509765625,-0.27684468030929565,-0.895342230796814,0.8339216709136963
1783696677895188200,0.444188232421875,-0.3249693214893341,-0.4290653169155121,0.7233607769012451
1783696677905151500,0.4541513671875,-0.30826374888420105,0.18956293165683746,0.6232893466949463
1783696677915114200,0.4641142578125,-0.2393360584974289,0.6477938890457153,0.4485172927379608
1783696677925077200,0.4740771484375,-0.15069358050823212,0.6755411624908447,0.13703928887844086
1783696677935040300,0.484040283203125,-0.12108641862869263,0.22206687927246094,-0.24469955265522003
1783696677945003300,0.494003173828125,-0.12141025811433792,-0.3118962347507477,-0.5997410416603088
1783696677954966300,0.50396630859375,-0.13265332579612732,-0.8764892816543579,-0.9654319286346436
1783696677964929300,0.51392919921875,-0.1402609497308731,-1.3604776859283447,-1.2544535398483276
1783696677974892300,0.523892333984375,-0.17811325192451477,-1.7409113645553589,-1.3901045322418213
1783696677984855300,0.533855224609375,-0.19679617881774902,-1.9724916219711304,-1.4202756881713867
1783696677994818300,0.543818359375,-0.17554575204849243,-2.0354368686676025,-1.3651295900344849
1783696678004781300,0.55378125,-0.034616924822330475,-1.7549569606781006,-1.1789488792419434
1783696678014744300,0.563744384765625,0.23735599219799042,-1.2595442533493042,-0.8987877368927002
1783696678024707300,0.573707275390625,0.44757530093193054,-0.7334663271903992,-0.6381533145904541
1783696678034670300,0.58367041015625,0.5913457274436951,-0.32205483317375183,-0.5021393299102783
1783696678044633000,0.593633056640625,0.7201436758041382,-0.10363785177469254,-0.44913727045059204
1783696678054596000,0.60359619140625,0.7965359091758728,0.03478793054819107,-0.4245312511920929
1783696678064559000,0.61355908203125,0.8069194555282593,0.16010503470897675,-0.4320404529571533
1783696678074522400,0.6235224609375,0.7363185286521912,0.24243506789207458,-0.48072195053100586
1783696678084485400,0.6334853515625,0.6296348571777344,0.25552910566329956,-0.5048585534095764
1783696678094448400,0.643448486328125,0.560178279876709,0.17821192741394043,-0.40582919120788574
1783696678104411400,0.653411376953125,0.5843770503997803,0.05516957491636276,-0.13943453133106232
1783696678114374100,0.6633740234375,0.6758260130882263,0.055493682622909546,0.18906664848327637
1783696678124337200,0.673337158203125,0.7703506946563721,0.26565977931022644,0.47372955083847046
1783696678134300200,0.683300048828125,0.8213648796081543,0.755666196346283,0.630142867565155
1783696678144263200,0.69326318359375,0.9009394645690918,1.4341784715652466,0.6640499830245972
1783696678154226200,0.70322607421875,1.0714987516403198,2.125230550765991,0.6348880529403687
1783696678164189400,0.713189453125,1.3141885995864868,2.7060372829437256,0.6033943295478821
1783696678174152400,0.72315234375,1.543112874031067,3.1605021953582764,0.5680390000343323
1783696678184115200,0.733115234375,1.6019105911254883,3.3904011249542236,0.5357895493507385
1783696678194078200,0.743078125,1.552936315536499,3.393063545227051,0.47070086002349854
1783696678204041200,0.753041259765625,1.4775804281234741,2.9470436573028564,0.4260970652103424
1783696678214004200,0.763004150390625,1.4156017303466797,1.966953158378601,0.45093023777008057
1783696678223967200,0.77296728515625,1.3044184446334839,1.172766923904419,0.7077697515487671
1783696678233930200,0.78293017578125,1.024721622467041,0.623914897441864,1.0943520069122314
1783696678243893200,0.792893310546875,0.5909665822982788,0.12131302803754807,1.4347480535507202
1783696678253856300,0.802856201171875,0.11716040968894958,-0.4403119385242462,1.5874100923538208
1783696678263819300,0.8128193359375,-0.27197977900505066,-1.0273041725158691,1.6264009475708008
1783696678273782300,0.8227822265625,-0.5127317309379578,-1.4663499593734741,1.699767827987671
1783696678283745300,0.832745361328125,-0.5632758140563965,-1.933303952217102,1.588761329650879
1783696678293708300,0.842708251953125,-0.5024771690368652,-2.084429979324341,1.0291763544082642
1783696678303671300,0.85267138671875,-0.4930860102176666,-0.9086143970489502,0.4169696271419525
1783696678313634000,0.862634033203125,-0.33873745799064636,0.021513262763619423,0.008375992998480797
1783696678323597300,0.872597412109375,-0.11405535042285919,1.2306679487228394,-0.0778113380074501
1783696678333560300,0.882560302734375,0.07808639109134674,2.093491792678833,-0.030219579115509987
1783696678343523300,0.8925234375,0.17481157183647156,2.202869176864624,-0.12413821369409561
1783696678353486300,0.902486328125,0.1340055614709854,1.79519784450531,-0.3171207308769226
1783696678363449300,0.912449462890625,0.018038947135210037,1.6765251159667969,-0.33558008074760437
1783696678373412400,0.922412353515625,-0.1884327381849289,1.5071014165878296,-0.40839383006095886
1783696678383375000,0.932375,-0.43010514974594116,1.084071397781372,-0.5523024797439575
1783696678393339100,0.942339111328125,-0.6798835396766663,0.4605228900909424,-0.7032980918884277
1783696678403301000,0.952301025390625,-0.905205249786377,0.031161243095993996,-1.0718313455581665
1783696678413264400,0.962264404296875,-1.2210692167282104,-1.1524146795272827,-1.4849309921264648
1783696678423227400,0.972227294921875,-1.4833295345306396,-2.1032612323760986,-1.9251632690429688
1783696678433190400,0.9821904296875,-1.3765774965286255,-2.6560285091400146,-2.178837537765503
1783696678443153400,0.9921533203125,-0.9347323775291443,-2.6809849739074707,-2.0974512100219727
1783696678453116200,1.0021162109375,-0.4562787413597107,-2.1963751316070557,-1.769699215888977
1783696678463079200,1.0120791015625,-0.1919505000114441,-1.3604612350463867,-1.410966157913208
1783696678473042200,1.022042236328125,-0.16621610522270203,-0.6683377027511597,-1.1827460527420044
1783696678483005200,1.032005126953125,-0.29825031757354736,-0.38615700602531433,-1.1368457078933716
1783696678492968400,1.041968505859375,-0.45263776183128357,-0.6070928573608398,-1.2747305631637573
1783696678502931500,1.051931396484375,-0.5723354816436768,-1.0914132595062256,-1.5030603408813477
1783696678512894200,1.061894287109375,-0.6325186491012573,-1.6056145429611206,-1.649587631225586
1783696678522857200,1.071857177734375,-0.6173658967018127,-1.9257227182388306,-1.5983693599700928
1783696678532820200,1.0818203125,-0.5209269523620605,-1.9241604804992676,-1.3586957454681396
1783696678542783200,1.091783203125,-0.3890454173088074,-1.6044807434082031,-1.0438224077224731
1783696678552746200,1.101746337890625,-0.27372387051582336,-1.058666467666626,-0.7498176097869873
1783696678562709200,1.111709228515625,-0.22395913302898407,-0.4458562731742859,-0.5382465720176697
1783696678572672300,1.12167236328125,-0.22537486255168915,0.06287461519241333,-0.40769097208976746
1783696678582635300,1.13163525390625,-0.24951064586639404,0.37025776505470276,-0.33853670954704285
1783696678592598300,1.141598388671875,-0.3200085163116455,0.4331725537776947,-0.275613397359848
1783696678602561300,1.151561279296875,-0.44753268361091614,0.26223501563072205,-0.19945617020130157
1783696678612524300,1.161524169921875,-0.5670840740203857,-0.05278366431593895,-0.1143343523144722
1783696678622487300,1.1714873046875,-0.606168270111084,-0.4002801179885864,-0.014969429932534695
1783696678632450300,1.1814501953125,-0.5452079772949219,-0.7028729915618896,0.11792630702257156
1783696678642413300,1.191413330078125,-0.4010438024997711,-0.8874484896659851,0.29721593856811523
1783696678652376000,1.2013759765625,-0.2331450879573822,-0.9805142283439636,0.5085172653198242
1783696678662339300,1.21133935546875,-0.10281945019960403,-0.9714463949203491,0.7076155543327332
1783696678672302300,1.22130224609375,-0.029927928000688553,-0.8528670072555542,0.8231863975524902
1783696678682265300,1.231265380859375,-0.029208458960056305,-0.7609399557113647,0.8550622463226318
1783696678692228400,1.241228271484375,-0.11034831404685974,-0.7616773843765259,0.8839455842971802
1783696678702191400,1.25119140625,-0.2061709314584732,-0.8073358535766602,0.9842883348464966
1783696678712154000,1.261154052734375,-0.2814512848854065,-0.8336300253868103,1.1481294631958008
1783696678722117000,1.2711171875,-0.3328173756599426,-0.7579890489578247,1.3351517915725708
1783696678732080000,1.281080078125,-0.37233203649520874,-0.5834750533103943,1.4580292701721191
1783696678742043100,1.291043212890625,-0.3740326166152954,-0.3205454647541046,1.556715726852417
1783696678752006400,1.30100634765625,-0.3038093149662018,-0.031767453998327255,1.6699246168136597
1783696678761969400,1.310969482421875,-0.15818405151367188,0.1928376704454422,1.8086572885513306
1783696678771932400,1.320932373046875,-0.0007619325770065188,0.2698887884616852,1.9129983186721802
1783696678781895200,1.330895263671875,0.1371704787015915,0.2996427118778229,1.9349250793457031
1783696678791858200,1.340858154296875,0.22304624319076538,0.304002046585083,1.8276803493499756
1783696678801821200,1.3508212890625,0.19174370169639587,0.11556380242109299,1.5153276920318604
1783696678811784200,1.3607841796875,0.01129055768251419,-0.03941912204027176,1.2268856763839722
1783696678821747200,1.370747314453125,-0.19105269014835358,-0.20995073020458221,1.0689318180084229
1783696678831710500,1.38071044921875,-0.3446776568889618,-0.4433581531047821,0.9760309457778931
1783696678841673500,1.390673583984375,-0.4667281210422516,-0.682470440864563,0.8130228519439697
1783696678851636200,1.40063623046875,-0.531531035900116,-0.8837212324142456,0.37060123682022095
1783696678861599200,1.41059912109375,-0.5076427459716797,-0.9099349975585938,-0.37135428190231323
1783696678871562000,1.42056201171875,-0.44505631923675537,-0.6134695410728455,-1.1956372261047363
1783696678881525000,1.43052490234375,-0.3874095380306244,-0.035978253930807114,-1.8556889295578003
1783696678891488000,1.440488037109375,-0.3123334050178528,0.7010622620582581,-2.2218799591064453
1783696678901451000,1.450450927734375,-0.2030959576368332,1.4040578603744507,-2.362159490585327
1783696678911414000,1.4604140625,-0.11798078566789627,1.9658749103546143,-2.4386823177337646
1783696678921377000,1.470376953125,-0.0473162978887558,2.304758310317993,-2.5681135654449463
1783696678931340000,1.480340087890625,0.07785626500844955,2.2690114974975586,-2.750213384628296
1783696678941303000,1.490302978515625,0.2356346845626831,1.6237210035324097,-2.8808960914611816
1783696678951266000,1.50026611328125,0.4437050521373749,0.6459050178527832,-2.693938732147217
1783696678961229000,1.51022900390625,0.656451940536499,-0.3802942931652069,-2.1414332389831543
1783696678971192000,1.520192138671875,0.8103733658790588,-1.3386789560317993,-1.409124493598938
1783696678981154800,1.53015478515625,0.8694691061973572,-1.9916515350341797,-0.6667680144309998
1783696678991118000,1.5401181640625,0.8283615708351135,-2.272333860397339,-0.03692617267370224
1783696679001081000,1.5500810546875,0.7177540063858032,-2.1854729652404785,0.43844830989837646
1783696679011044000,1.560044189453125,0.5611433982849121,-1.8153239488601685,0.7531657814979553
1783696679021007000,1.570007080078125,0.4101425111293793,-1.2745808362960815,0.9353022575378418
1783696679030970000,1.57997021484375,0.2866309583187103,-0.6798389554023743,1.018355131149292
1783696679040932900,1.589932861328125,0.1861383467912674,-0.09365842491388321,1.025591254234314
1783696679050896000,1.599895751953125,0.11944800615310669,0.3499866724014282,1.001828670501709
1783696679060859000,1.60985888671875,0.007903608493506908,0.5206259489059448,0.9938694834709167
1783696679070822000,1.61982177734375,-0.10230811685323715,0.6273377537727356,0.9969350099563599
1783696679080785200,1.62978515625,-0.08518840372562408,0.7711802124977112,1.0025734901428223
1783696679090748200,1.639748046875,0.0076595149002969265,0.698348343372345,0.9793515801429749
1783696679100711200,1.649711181640625,0.06261173635721207,0.46255752444267273,0.9731016755104065
1783696679110674000,1.659673828125,0.07367051392793655,0.2873665392398834,0.969386875629425
1783696679120637000,1.669636962890625,0.11049549281597137,0.21204206347465515,0.9124811291694641
1783696679130600000,1.679599853515625,0.1676224321126938,0.24121220409870148,0.7934730052947998
1783696679140563000,1.68956298828125,0.1908908635377884,0.3063853681087494,0.6169978976249695
1783696679150526000,1.69952587890625,0.1641111820936203,0.34301021695137024,0.37660738825798035
1783696679160489000,1.709489013671875,0.10837621241807938,0.3595174551010132,0.10662180185317993
1783696679170452200,1.7194521484375,0.04496048763394356,0.3845461308956146,-0.1324954479932785
1783696679180415000,1.7294150390625,0.04153924062848091,0.4291580617427826,-0.1446542739868164
1783696679190378000,1.7393779296875,0.058785874396562576,0.5596857666969299,-0.030868323519825935
1783696679200341000,1.749341064453125,0.02115144394338131,0.544605553150177,0.1636543720960617
1783696679210304000,1.759303955078125,-0.016860386356711388,0.5576915144920349,0.3453831672668457
1783696679220267000,1.76926708984375,-0.03873126953840256,0.5038573145866394,0.5124900341033936
1783696679230230000,1.77922998046875,-0.02977799065411091,0.3711881935596466,0.7624210715293884
1783696679240193000,1.789193115234375,0.03756752237677574,0.2651795446872711,1.1256190538406372
1783696679250156000,1.799156005859375,0.1148173063993454,0.13705512881278992,1.4757776260375977
1783696679260119000,1.809119140625,0.17727278172969818,-0.04708828777074814,1.6948124170303345
1783696679270082000,1.81908203125,0.2630784809589386,-0.395475298166275,1.6581777334213257
1783696679280045000,1.829045166015625,0.3454897701740265,-0.7650654911994934,1.348982810974121
1783696679290008000,1.839008056640625,0.3415568172931671,-0.8948211073875427,0.8907894492149353
1783696679299971000,1.84897119140625,0.2712402939796448,-0.7611332535743713,0.34278467297554016
1783696679309933800,1.858933837890625,0.14288364350795746,-0.46238091588020325,-0.195541650056839
1783696679319896800,1.868896728515625,0.02572956308722496,-0.18754424154758453,-0.6565759181976318
1783696679329860000,1.878860107421875,-0.050661347806453705,-0.08171795308589935,-1.0650813579559326
1783696679339823000,1.888822998046875,-0.12231049686670303,-0.18914879858493805,-1.3906607627868652
1783696679349786000,1.8987861328125,-0.16584306955337524,-0.34685295820236206,-1.6031445264816284
1783696679359749000,1.9087490234375,-0.13533413410186768,-0.4162783920764923,-1.710656762123108
1783696679369712000,1.918712158203125,-0.05407575145363808,-0.4324680268764496,-1.710054874420166
1783696679379675000,1.9286748046875,0.033348750323057175,-0.2950124740600586,-1.630867600440979
1783696679389638000,1.938637939453125,0.12458492070436478,-0.011747234500944614,-1.584688663482666
1783696679399601000,1.948600830078125,0.19249871373176575,0.26669222116470337,-1.6428329944610596
1783696679409564000,1.95856396484375,0.19156873226165771,0.4488929212093353,-1.7965599298477173
1783696679419527200,1.968527099609375,0.09519326686859131,0.5992356538772583,-2.000835657119751
1783696679429490200,1.978490234375,-0.09166370332241058,0.5961133241653442,-2.217769145965576
1783696679439453200,1.988453125,-0.35395050048828125,0.2895621061325073,-2.312800168991089
1783696679449416000,1.998416015625,-0.5286101698875427,-0.08736440539360046,-2.1104633808135986
1783696679459379000,2.00837890625,-0.5219924449920654,-0.44646722078323364,-1.6363649368286133
1783696679469342000,2.018342041015625,-0.3860516846179962,-0.6769254207611084,-1.0186750888824463
1783696679479305000,2.028304931640625,-0.19366906583309174,-0.7339106202125549,-0.4310678541660309
1783696679489267200,2.03826708984375,-0.0013856454752385616,-0.6040679216384888,0.00456886226311326
1783696679499230000,2.04822998046875,0.16886994242668152,-0.339910626411438,0.2506389617919922
1783696679509193000,2.05819287109375,0.28938278555870056,-0.02158563956618309,0.3582998812198639
1783696679519156000,2.068156005859375,0.37616968154907227,0.3520563542842865,0.40850159525871277
1783696679529119000,2.078118896484375,0.4442587196826935,0.7601969838142395,0.43763282895088196
1783696679539082000,2.08808203125,0.49668464064598083,1.1427088975906372,0.5146967172622681
1783696679549045000,2.098044921875,0.5602601766586304,1.4976552724838257,0.7216115593910217
1783696679559008000,2.108008056640625,0.6507297158241272,1.8621022701263428,1.0936000347137451
1783696679568971000,2.117970947265625,0.800777792930603,2.293100357055664,1.6383922100067139
1783696679578934000,2.12793408203125,1.0091232061386108,2.6470086574554443,2.205366611480713
1783696679588897000,2.13789697265625,1.234362244606018,2.872703790664673,2.6752192974090576
1783696679598860000,2.147860107421875,1.4306176900863647,2.877988815307617,2.9664552211761475
1783696679608823000,2.157822998046875,1.538720726966858,2.674913167953491,3.0518360137939453
1783696679618786000,2.1677861328125,1.5409761667251587,2.3351831436157227,2.9674599170684814
1783696679628748800,2.177748779296875,1.4479304552078247,1.8820428848266602,2.7666096687316895
1783696679638711800,2.1877119140625,1.2690033912658691,1.3545409440994263,2.4560136795043945
1783696679648675000,2.197675048828125,0.9769026041030884,0.8302441835403442,2.060472249984741
1783696679658638000,2.20763818359375,0.5990127325057983,0.34924328327178955,1.622837781906128
1783696679668601000,2.21760107421875,0.22755156457424164,-0.03288942947983742,1.217481255531311
1783696679678564000,2.227564208984375,-0.012515174224972725,-0.26438209414482117,0.9432055354118347
1783696679688527000,2.237527099609375,-0.05388924479484558,-0.29233279824256897,0.8110334277153015
1783696679698489900,2.24748974609375,0.06896879523992538,-0.005843354854732752,0.7638052105903625
1783696679708452900,2.257452880859375,0.25715094804763794,0.5445358753204346,0.6834323406219482
1783696679718416000,2.267415771484375,0.36020490527153015,0.8255624175071716,0.5217294692993164
1783696679728379100,2.277379150390625,0.3172718286514282,0.805747389793396,0.43219587206840515
1783696679738342100,2.287342041015625,0.19480499625205994,0.5593859553337097,0.5085749626159668
1783696679748305200,2.29730517578125,0.07630497217178345,0.04978319630026817,0.6901359558105469
1783696679758268200,2.30726806640625,-0.03957117721438408,-0.48205244541168213,0.9319031238555908
1783696679768231000,2.31723095703125,-0.19342385232448578,-0.6445106267929077,1.2501018047332764
1783696679778194000,2.32719384765625,-0.3486596643924713,-0.6339133977890015,1.5174401998519897
1783696679788157000,2.337156982421875,-0.37156975269317627,-0.6098714470863342,1.6986395120620728
1783696679798120000,2.347119873046875,-0.18549123406410217,-0.5388544201850891,1.8155474662780762
1783696679808083000,2.3570830078125,0.11117210984230042,-0.6703701019287109,1.7049843072891235
1783696679818046200,2.367046142578125,0.3734854459762573,-1.0670299530029297,1.260586142539978
1783696679828009200,2.37700927734375,0.5380722880363464,-1.4813400506973267,0.6484428644180298
1783696679837972000,2.386971923828125,0.6108306646347046,-1.600901484489441,0.16352231800556183
1783696679847935000,2.39693505859375,0.6697115302085876,-1.4470077753067017,-0.07899444550275803
1783696679857898000,2.40689794921875,0.7225075960159302,-1.1647067070007324,-0.12027296423912048
1783696679867861000,2.416861083984375,0.7227808833122253,-0.8813862800598145,-0.06126823648810387
1783696679877824000,2.426823974609375,0.6501810550689697,-0.6688674092292786,0.004462874494493008
1783696679887787000,2.436787109375,0.5464197993278503,-0.5897582173347473,0.03213578090071678
1783696679897750000,2.44675,0.48004066944122314,-0.6405435800552368,0.03749784082174301
1783696679907713300,2.45671337890625,0.4622579514980316,-0.7525857090950012,0.011858788318932056
1783696679917676300,2.46667626953125,0.4813675880432129,-0.8893099427223206,-0.07683371007442474
1783696679927639300,2.476639404296875,0.48012760281562805,-0.9841206073760986,-0.2480781525373459
1783696679937602300,2.486602294921875,0.4309985637664795,-1.0066713094711304,-0.4815288782119751
1783696679947565000,2.49656494140625,0.32822132110595703,-0.8795487880706787,-0.7591336369514465
1783696679957528000,2.506528076171875,0.19282276928424835,-0.587600588798523,-1.0806223154067993
1783696679967491000,2.516490966796875,0.02972785197198391,-0.15050449967384338,-1.410159707069397
1783696679977454000,2.5264541015625,-0.15362492203712463,0.350689172744751,-1.6949487924575806
1783696679987417300,2.536417236328125,-0.3428499698638916,0.8238687515258789,-1.8843605518341064
1783696679997380400,2.54638037109375,-0.5074872374534607,1.1981310844421387,-1.9410918951034546
1783696680007343400,2.55634326171875,-0.618036150932312,1.4096174240112305,-1.8405107259750366
1783696680017306000,2.56630615234375,-0.6511650681495667,1.425806999206543,-1.5893914699554443
1783696680027269000,2.57626904296875,-0.6030140519142151,1.2545469999313354,-1.2264808416366577
1783696680037232000,2.586232177734375,-0.5188486576080322,0.9618414044380188,-0.7955107092857361
1783696680047194400,2.5961943359375,-0.4201257824897766,0.6047083139419556,-0.33422407507896423
1783696680057157400,2.606157470703125,-0.31882423162460327,0.23826788365840912,0.11665404587984085
1783696680067120000,2.6161201171875,-0.21427519619464874,-0.05871531739830971,0.5148687958717346
1783696680077083100,2.626083251953125,-0.11147856712341309,-0.25651052594184875,0.820939838886261
1783696680087046100,2.636046142578125,-0.022551359608769417,-0.34088772535324097,1.024452805519104
1783696680097009200,2.646009033203125,0.04808833450078964,-0.2619742751121521,1.147871494293213
1783696680106972200,2.65597216796875,0.097215935587883,-0.08781260251998901,1.2133512496948242
1783696680116935200,2.66593505859375,0.11611523479223251,0.17140282690525055,1.2522954940795898
1783696680126898200,2.675898193359375,0.1109769269824028,0.5058825612068176,1.239527702331543
1783696680136861200,2.685861083984375,0.06694873422384262,0.7643241882324219,1.130820631980896
1783696680146824200,2.69582421875,-0.014237737283110619,0.806526243686676,0.9874711632728577
1783696680156787200,2.705787109375,-0.11373278498649597,0.6096068620681763,0.8739960789680481
1783696680166750200,2.715750244140625,-0.2123272567987442,0.1388164460659027,0.7537652850151062
1783696680176713200,2.725713134765625,-0.3054170608520508,-0.5790824294090271,0.5856016278266907
1783696680186676200,2.73567626953125,-0.37761190533638,-1.346474289894104,0.4543685019016266
1783696680196639000,2.745638916015625,-0.42892369627952576,-1.9493215084075928,0.38749346137046814
1783696680206602000,2.75560205078125,-0.49405714869499207,-2.3317832946777344,0.34349459409713745
1783696680216565200,2.765565185546875,-0.5161190629005432,-2.5163726806640625,0.30677515268325806
1783696680226528300,2.7755283203125,-0.520166277885437,-2.4862747192382812,0.2607642412185669
1783696680236491300,2.7854912109375,-0.5929737091064453,-2.050502061843872,0.29029661417007446
1783696680246454300,2.795454345703125,-0.69595867395401,-1.1430938243865967,0.46714091300964355
1783696680256417300,2.805417236328125,-0.7511541843414307,-0.11136180907487869,0.6624260544776917
1783696680266380000,2.815380126953125,-0.6938511729240417,0.7569056749343872,0.7061237096786499
1783696680276343000,2.825343017578125,-0.4529281556606293,1.2707436084747314,0.48840391635894775
1783696680286306000,2.83530615234375,-0.15217657387256622,1.3547277450561523,0.02762058563530445
1783696680296269000,2.84526904296875,0.034214362502098083,1.0393999814987183,-0.6009916067123413
1783696680306232300,2.855232421875,0.06421539932489395,0.5002750158309937,-1.262708306312561
1783696680316195300,2.8651953125,0.004943826235830784,-0.05238256976008415,-1.8137190341949463
1783696680326158300,2.875158447265625,-0.06104850396513939,-0.49137911200523376,-2.190056562423706
1783696680336121000,2.88512109375,-0.1048843190073967,-0.7694584727287292,-2.409937620162964
1783696680346084000,2.895083984375,-0.18942023813724518,-0.9160796403884888,-2.5035767555236816
1783696680356047000,2.905047119140625,-0.3306426703929901,-0.9208521842956543,-2.4404616355895996
1783696680366010000,2.915010009765625,-0.460808664560318,-0.8627169728279114,-2.2118821144104004
1783696680375973000,2.92497314453125,-0.5156477689743042,-0.8218446373939514,-1.8330808877944946
1783696680385936400,2.934936279296875,-0.496119886636734,-0.8095496296882629,-1.3451557159423828
1783696680395899400,2.9448994140625,-0.4230356514453888,-0.8688820004463196,-0.8706724047660828
1783696680405862100,2.954862060546875,-0.3283352553844452,-0.9570944309234619,-0.5100539922714233
1783696680415825200,2.9648251953125,-0.26085060834884644,-1.0151890516281128,-0.28946101665496826
1783696680425788200,2.9747880859375,-0.23522460460662842,-0.9935961961746216,-0.19601470232009888
1783696680435751200,2.984751220703125,-0.23055800795555115,-0.8364250659942627,-0.17854872345924377
1783696680445714200,2.994714111328125,-0.22229421138763428,-0.531627893447876,-0.21812675893306732
1783696680455677200,3.00467724609375,-0.18776431679725647,-0.12975919246673584,-0.3046910762786865
1783696680465640200,3.01464013671875,-0.12788259983062744,0.3437063694000244,-0.39544788002967834
1783696680475603200,3.024603271484375,-0.03940765932202339,0.835803747177124,-0.4526868462562561
1783696680485565200,3.034565185546875,0.08094378560781479,1.271803617477417,-0.45378538966178894
1783696680495528200,3.044528076171875,0.21756036579608917,1.5950632095336914,-0.41739097237586975
1783696680505491200,3.0544912109375,0.3403094708919525,1.7950085401535034,-0.3682202398777008
1783696680515454200,3.0644541015625,0.43294990062713623,1.8514010906219482,-0.3318864703178406
1783696680525417200,3.074417236328125,0.49869614839553833,1.804253339767456,-0.29879939556121826
1783696680535380200,3.084380126953125,0.5434359312057495,1.6975560188293457,-0.2212224006652832
1783696680545343200,3.09434326171875,0.5484389066696167,1.55771005153656,-0.09087479114532471
1783696680555306200,3.10430615234375,0.5124637484550476,1.385157823562622,0.06882711499929428
1783696680565269200,3.114269287109375,0.4561876654624939,1.194787859916687,0.23808592557907104
1783696680575232300,3.124232177734375,0.41777655482292175,0.9829741716384888,0.38709327578544617
1783696680585195000,3.134195068359375,0.41033223271369934,0.7198469638824463,0.47085875272750854
1783696680595158000,3.144157958984375,0.44337067008018494,0.3482300639152527,0.43727248907089233
1783696680605121000,3.15412109375,0.497120201587677,-0.1265053153038025,0.2583634555339813
1783696680615084300,3.164084228515625,0.547374427318573,-0.684075117111206,-0.013311339542269707
1783696680625047300,3.17404736328125,0.570006787776947,-1.1831095218658447,-0.1906972974538803
1783696680635010300,3.18401025390625,0.566285252571106,-1.4339174032211304,-0.08001743257045746
1783696680644973300,3.193973388671875,0.5435985922813416,-1.4070892333984375,0.3296867311000824
1783696680654936000,3.20393603515625,0.48518654704093933,-1.2168208360671997,0.8776453137397766
1783696680664899000,3.213899169921875,0.4060256779193878,-0.793136715888977,1.4383437633514404
1783696680674862000,3.223862060546875,0.37254199385643005,-0.11626715958118439,1.9478445053100586
1783696680684825000,3.2338251953125,0.43004071712493896,0.5651377439498901,2.2990810871124268
1783696680694788000,3.2437880859375,0.49856066703796387,0.9098846316337585,2.406113624572754
1783696680704751400,3.25375146484375,0.48908114433288574,0.9230217337608337,2.31815505027771
1783696680714714400,3.26371435546875,0.4410359859466553,0.765149712562561,2.136317729949951
1783696680724677000,3.273677001953125,0.39531561732292175,0.5136014223098755,1.9001346826553345
1783696680734640000,3.28364013671875,0.32962000370025635,0.3626784384250641,1.6744548082351685
1783696680744603100,3.29360302734375,0.2314966320991516,0.32159143686294556,1.4384288787841797
1783696680754566100,3.303566162109375,0.09820488840341568,0.19781295955181122,1.0613964796066284
1783696680764529200,3.313529052734375,-0.06462690979242325,-0.17212088406085968,0.4163447320461273
1783696680774492200,3.3234921875,-0.3242955505847931,-0.7077639698982239,-0.4100992977619171
1783696680784455200,3.333455078125,-0.6058923602104187,-1.0981624126434326,-1.1380101442337036
1783696680794418200,3.343418212890625,-0.7384939789772034,-1.2251819372177124,-1.5709489583969116
1783696680804381200,3.353381103515625,-0.6880502700805664,-1.023634672164917,-1.5957163572311401
1783696680814344200,3.36334423828125,-0.5020905137062073,-0.5858657360076904,-1.2868218421936035
1783696680824307200,3.37330712890625,-0.23925195634365082,-0.0669780820608139,-0.8414183259010315
1783696680834270200,3.383270263671875,0.04685760289430618,0.32316386699676514,-0.42718130350112915
1783696680844233200,3.393233154296875,0.3071637451648712,0.4826187789440155,-0.13773801922798157
1783696680854196000,3.403196044921875,0.5290881991386414,0.43635278940200806,-0.01097044162452221
1783696680864159200,3.4131591796875,0.7058443427085876,0.25538167357444763,-0.06403153389692307
1783696680874122200,3.423122314453125,0.8509319424629211,0.038663242012262344,-0.27024269104003906
1783696680884085200,3.433085205078125,0.9664283990859985,-0.11846725642681122,-0.5549135804176331
1783696680894047000,3.443046875,1.0435242652893066,-0.1625518500804901,-0.8600373864173889
1783696680904010000,3.453010009765625,1.0546056032180786,-0.08722807466983795,-1.1528774499893188
1783696680913973000,3.462972900390625,1.0067118406295776,0.1232340857386589,-1.4176969528198242
1783696680923936300,3.472936279296875,0.9311670064926147,0.43536055088043213,-1.636361002922058
1783696680933899300,3.482899169921875,0.8512886762619019,0.8214908242225647,-1.7521497011184692
1783696680943862300,3.4928623046875,0.7800168991088867,1.1906893253326416,-1.699995517730713
1783696680953825300,3.5028251953125,0.7337629199028015,1.4275456666946411,-1.4974747896194458
1783696680963788000,3.5127880859375,0.7178707718849182,1.511860728263855,-1.1710209846496582
1783696680973751000,3.5227509765625,0.7040377855300903,1.472253680229187,-0.772087037563324
1783696680983714000,3.532714111328125,0.6750897169113159,1.3265162706375122,-0.3455740809440613
1783696680993677000,3.542677001953125,0.6298481822013855,1.0903241634368896,0.05213470384478569
1783696681003640000,3.55264013671875,0.5617839097976685,0.8181888461112976,0.38869407773017883
1783696681013603300,3.562603271484375,0.491870641708374,0.5699654221534729,0.6449993252754211
1783696681023566300,3.57256640625,0.4194430708885193,0.3998374044895172,0.8299998044967651
1783696681033529000,3.582529052734375,0.353706419467926,0.3282594680786133,0.9452064037322998
1783696681043492000,3.5924921875,0.29566842317581177,0.34254491329193115,1.0084648132324219
1783696681053455000,3.602455078125,0.2445172518491745,0.3947157561779022,1.0260857343673706
1783696681063418000,3.612418212890625,0.18919993937015533,0.4185259938240051,0.9985337853431702
1783696681073381000,3.622381103515625,0.1470821052789688,0.415544718503952,0.9651555418968201
1783696681083344100,3.63234423828125,0.13314099609851837,0.38696154952049255,0.9545305967330933
1783696681093307100,3.64230712890625,0.1652698516845703,0.3863047659397125,0.9423398375511169
1783696681103270100,3.652270263671875,0.24190044403076172,0.36770951747894287,0.8549420833587646
1783696681113233200,3.662233154296875,0.3553422689437866,0.2843983471393585,0.6945167779922485
1783696681123196200,3.672196044921875,0.44677072763442993,0.12234180420637131,0.49634432792663574
1783696681133159200,3.6821591796875,0.5165354609489441,-0.11185646057128906,0.32161977887153625
1783696681143122200,3.6921220703125,0.5747830867767334,-0.37173596024513245,0.24102959036827087
1783696681153085200,3.702085205078125,0.6066406965255737,-0.6017561554908752,0.27466267347335815
1783696681163048000,3.7120478515625,0.5935179591178894,-0.8601517677307129,0.35592690110206604
1783696681173011000,3.722010986328125,0.47141334414482117,-1.2099909782409668,0.43435558676719666
1783696681182974200,3.73197412109375,0.1327391415834427,-1.6305006742477417,0.5321884155273438
1783696681192937200,3.741937255859375,-0.35137665271759033,-1.997650146484375,0.6336814761161804
1783696681202900200,3.751900146484375,-0.7394540905952454,-2.293543577194214,0.6800452470779419
1783696681212863200,3.76186328125,-0.9087268710136414,-2.3959033489227295,0.6298414468765259
1783696681222826200,3.771826171875,-0.8087317943572998,-2.157017230987549,0.4685891568660736
1783696681232789000,3.7817890625,-0.4921714961528778,-1.673632264137268,0.19644130766391754
1783696681242752000,3.791751953125,-0.14011625945568085,-1.1850013732910156,-0.1933424025774002
1783696681252715000,3.801715087890625,0.07488308101892471,-0.8155834078788757,-0.6561599969863892
1783696681262677200,3.81167724609375,0.1322299987077713,-0.5453671216964722,-1.0925817489624023
1783696681272640300,3.82164013671875,0.12440919876098633,-0.33910810947418213,-1.3250375986099243
1783696681282603000,3.83160302734375,0.12020114064216614,-0.18142874538898468,-1.3074582815170288
1783696681292566000,3.84156591796875,0.14330777525901794,-0.08139711618423462,-1.0948071479797363
1783696681302529000,3.851529052734375,0.17503614723682404,-0.09161912649869919,-0.8240954279899597
1783696681312492000,3.861491943359375,0.19310910999774933,-0.21933983266353607,-0.6324393153190613
1783696681322455000,3.871455078125,0.1955384463071823,-0.4020707607269287,-0.5849778056144714
1783696681332418300,3.881418212890625,0.19592203199863434,-0.526425838470459,-0.6882948875427246
1783696681342381300,3.89138134765625,0.18387681245803833,-0.5315122008323669,-0.9099100828170776
1783696681352344000,3.901343994140625,0.14258024096488953,-0.3913838863372803,-1.2002229690551758
1783696681362307000,3.91130712890625,0.06802424788475037,-0.1229657307267189,-1.4864565134048462
1783696681372270000,3.92127001953125,-0.03284814953804016,0.22194254398345947,-1.7216922044754028
1783696681382233000,3.931233154296875,-0.1440146118402481,0.5927080512046814,-1.8813265562057495
1783696681392196000,3.941196044921875,-0.22601307928562164,0.9540854692459106,-1.9556599855422974
1783696681402159000,3.9511591796875,-0.26451200246810913,1.3376539945602417,-1.9245704412460327
1783696681412122400,3.961122314453125,-0.26160669326782227,1.7594304084777832,-1.7580093145370483
1783696681422085000,3.971085205078125,-0.2135227769613266,2.201414108276367,-1.4527080059051514
1783696681432048000,3.981048095703125,-0.11527827382087708,2.6309762001037598,-1.0815891027450562
1783696681442011100,3.99101123046875,0.04040718823671341,3.0389726161956787,-0.7286198735237122
1783696681451974100,4.00097412109375,0.23974716663360596,3.382197141647339,-0.43550369143486023
1783696681461937200,4.010937255859375,0.4648497998714447,3.585972309112549,-0.20396284759044647
1783696681471900200,4.020900146484375,0.697611391544342,3.6204612255096436,-0.02910531871020794
1783696681481863000,4.03086279296875,0.889936089515686,3.5020289421081543,0.06915626674890518
1783696681491826200,4.040826171875,1.0336203575134277,3.264420986175537,0.0804414451122284
1783696681501789200,4.0507890625,1.1258666515350342,2.9136593341827393,0.04989871755242348
1783696681511752200,4.060752197265625,1.1462204456329346,2.4505157470703125,0.03959747776389122
1783696681521715200,4.070715087890625,1.0935505628585815,1.9358985424041748,0.12049791216850281
1783696681531678200,4.08067822265625,0.9830877184867859,1.4311027526855469,0.33026590943336487
1783696681541641200,4.09064111328125,0.8551605939865112,1.0016599893569946,0.6638481020927429
1783696681551604000,4.10060400390625,0.7512413263320923,0.7222464680671692,1.061945915222168
1783696681561567000,4.11056689453125,0.6790757775306702,0.5549032688140869,1.4234192371368408
1783696681571530000,4.120530029296875,0.6405224800109863,0.3665866553783417,1.6733629703521729
1783696681581493200,4.1304931640625,0.6238518953323364,0.13274593651294708,1.8050118684768677
1783696681591456300,4.140456298828125,0.6138699650764465,-0.11558564007282257,1.8571113348007202
1783696681601419300,4.150419189453125,0.5676087141036987,-0.39752307534217834,1.8797335624694824
1783696681611382300,4.16038232421875,0.45253443717956543,-0.6200788617134094,1.917153239250183
1783696681621344000,4.170343994140625,0.290880024433136,-0.7208003997802734,1.9876375198364258
1783696681631307000,4.18030712890625,0.10990840196609497,-0.6864678859710693,2.0055108070373535
1783696681641270300,4.190270263671875,-0.04272693768143654,-0.6102210879325867,1.8784412145614624
1783696681651233300,4.2002333984375,-0.1382320672273636,-0.65912264585495,1.6599247455596924
1783696681661196300,4.2101962890625,-0.21464641392230988,-0.7397221326828003,1.5357311964035034
1783696681671159000,4.220158935546875,-0.3237992525100708,-0.6983279585838318,1.5957016944885254
1783696681681122000,4.2301220703125,-0.44471901655197144,-0.7977399826049805,1.6241633892059326
1783696681691085000,4.2400849609375,-0.6035913825035095,-1.2506293058395386,1.3410732746124268
1783696681701048000,4.250048095703125,-0.84308922290802,-1.8353791236877441,0.6743001341819763
1783696681711011000,4.260010986328125,-1.0976195335388184,-2.271591901779175,-0.23928327858448029
1783696681720974000,4.26997412109375,-1.2863409519195557,-2.461930513381958,-1.1804758310317993
1783696681730937300,4.279937255859375,-1.4179192781448364,-2.363971710205078,-1.9539363384246826
1783696681740900000,4.289900146484375,-1.471171498298645,-2.036564588546753,-2.451416015625
1783696681750863000,4.299863037109375,-1.3956100940704346,-1.5254912376403809,-2.597540855407715
1783696681760826000,4.309826171875,-1.21570885181427,-0.9143112897872925,-2.4215943813323975
1783696681770789000,4.3197890625,-0.9820057153701782,-0.3765934109687805,-2.067718744277954
1783696681780752100,4.329752197265625,-0.7265890836715698,-0.03681237995624542,-1.6588571071624756
1783696681790715100,4.339715087890625,-0.49786877632141113,0.030975285917520523,-1.3014447689056396
1783696681800678100,4.34967822265625,-0.3136720359325409,-0.15224674344062805,-1.0074981451034546
1783696681810641200,4.35964111328125,-0.14257869124412537,-0.47636768221855164,-0.7919791340827942
1783696681820604200,4.369604248046875,0.024756770581007004,-0.8115318417549133,-0.7038841247558594
1783696681830567200,4.379567138671875,0.12947726249694824,-1.0696043968200684,-0.7632904052734375
1783696681840530200,4.3895302734375,0.15095804631710052,-1.1605348587036133,-0.9415525794029236
1783696681850493200,4.3994931640625,0.10555706918239594,-1.1365299224853516,-1.2012149095535278
1783696681860456200,4.409456298828125,0.02813950926065445,-1.0330770015716553,-1.4855432510375977
1783696681870419000,4.4194189453125,-0.044062159955501556,-0.7972303032875061,-1.7144869565963745
1783696681880382500,4.429382568359375,-0.1042378842830658,-0.4773596525192261,-1.8691530227661133
1783696681890345500,4.439345458984375,-0.14782588183879852,-0.11300461739301682,-1.9259053468704224
1783696681900308700,4.449308837890625,-0.1644834280014038,0.25275498628616333,-1.8663430213928223
1783696681910271500,4.459271484375,-0.1491812914609909,0.5862457156181335,-1.706506609916687
1783696681920234500,4.469234375,-0.10465697199106216,0.8936395049095154,-1.4794737100601196
1783696681930197500,4.479197509765625,-0.060776181519031525,1.1147000789642334,-1.222646951675415
1783696681940160500,4.489160400390625,-0.02000878006219864,1.3082131147384644,-0.9322410225868225
1783696681950123500,4.49912353515625,0.011799397878348827,1.4754528999328613,-0.5926767587661743
1783696681960086500,4.50908642578125,0.03602297604084015,1.4904310703277588,-0.24337519705295563
1783696681970049500,4.519049560546875,0.07977180927991867,1.3906136751174927,0.1203412339091301
1783696681980012500,4.529012451171875,0.1395121067762375,1.2225937843322754,0.4836749732494354
1783696681989975600,4.5389755859375,0.20449000597000122,0.9781625866889954,0.795116662979126
1783696681999938600,4.5489384765625,0.25655481219291687,0.6794038414955139,1.026145100593567
1783696682009901600,4.558901611328125,0.29227814078330994,0.2588954269886017,1.1642708778381348
1783696682019864600,4.568864501953125,0.29331862926483154,-0.2739812731742859,1.2358856201171875
1783696682029827600,4.57882763671875,0.27520155906677246,-0.7977449893951416,1.2866159677505493
1783696682039790600,4.58879052734375,0.25116655230522156,-1.2125056982040405,1.319239616394043
1783696682049753300,4.59875341796875,0.21586567163467407,-1.3967654705047607,1.325040340423584
1783696682059716400,4.60871630859375,0.13848327100276947,-1.3204996585845947,1.307020664215088
1783696682069679600,4.6186796875,-0.011137761175632477,-1.0952363014221191,1.2674344778060913
1783696682079642600,4.628642578125,-0.23296336829662323,-0.8335064649581909,1.209453821182251
1783696682089605600,4.638605712890625,-0.45655444264411926,-0.6292017102241516,1.14957594871521
1783696682099567400,4.6485673828125,-0.5701625347137451,-0.4955246150493622,1.1368532180786133
1783696682109530400,4.6585302734375,-0.5594913959503174,-0.3836291432380676,1.17148756980896
1783696682119493400,4.668493408203125,-0.5081757307052612,-0.24536049365997314,1.2055743932724
1783696682129456600,4.67845654296875,-0.4443134665489197,-0.022056428715586662,1.1839189529418945
1783696682139419600,4.688419677734375,-0.4074667692184448,0.26577988266944885,1.0386515855789185
1783696682149382700,4.698382568359375,-0.4673631191253662,0.5353123545646667,0.8882104158401489
1783696682159345700,4.708345703125,-0.6220376491546631,0.6549351215362549,0.8511927127838135
1783696682169308400,4.718308349609375,-0.7990990877151489,0.569115400314331,0.9611684679985046
1783696682179271400,4.728271484375,-0.9252492785453796,0.19926436245441437,1.0976134538650513
1783696682189234400,4.738234375,-0.981623649597168,-0.4480442404747009,1.0536057949066162
1783696682199197400,4.748197509765625,-0.9798390865325928,-1.1371809244155884,0.7800685167312622
1783696682209160400,4.758160400390625,-0.8876709938049316,-1.5944983959197998,0.37472039461135864
1783696682219123700,4.768123779296875,-0.6913363933563232,-1.717406153678894,-0.019410390406847
1783696682229086500,4.77808642578125,-0.4144498109817505,-1.5454460382461548,-0.31970134377479553
1783696682239049500,4.788049560546875,-0.11767005920410156,-1.2335426807403564,-0.5815377831459045
1783696682249012500,4.798012451171875,0.14195668697357178,-0.8388471007347107,-0.7966613173484802
1783696682258975500,4.8079755859375,0.3429185450077057,-0.452574223279953,-0.9440212249755859
1783696682268938500,4.8179384765625,0.48580360412597656,-0.1465676724910736,-0.955734372138977
1783696682278901500,4.827901611328125,0.6202887296676636,0.05314783379435539,-0.7571778893470764
1783696682288864500,4.837864501953125,0.7550957798957825,0.14196805655956268,-0.3760731816291809
1783696682298827500,4.84782763671875,0.891264021396637,0.10712805390357971,0.04729326069355011
1783696682308790500,4.85779052734375,1.0235424041748047,0.009470716118812561,0.3766622245311737
1783696682318753500,4.86775341796875,1.1282249689102173,-0.10435331612825394,0.53127121925354
1783696682328716500,4.877716552734375,1.18572199344635,-0.17288583517074585,0.4900262951850891
1783696682338679600,4.887679443359375,1.1735976934432983,-0.14078542590141296,0.2907949388027191
1783696682348642600,4.897642578125,1.0560381412506104,-0.007847059518098831,-0.002384635154157877
1783696682358605600,4.90760546875,0.8298196196556091,0.17046596109867096,-0.3075687885284424
1783696682368568300,4.917568359375,0.5257709622383118,0.2873689830303192,-0.5405631065368652
1783696682378531300,4.92753125,0.19736431539058685,0.3375075161457062,-0.6462600231170654
1783696682388494600,4.93749462890625,-0.11487291753292084,0.33723387122154236,-0.6228951811790466
1783696682398457600,4.94745751953125,-0.3647354543209076,0.35626137256622314,-0.4779347777366638
1783696682408420600,4.957420654296875,-0.5216871500015259,0.3844485878944397,-0.26565873622894287
1783696682418383600,4.967383544921875,-0.5758244395256042,0.4261382520198822,-0.0440850667655468
1783696682428346400,4.977346435546875,-0.547408938407898,0.507470428943634,0.17498238384723663
1783696682438309400,4.987309326171875,-0.4624998867511749,0.6136226654052734,0.35355716943740845
1783696682448272400,4.9972724609375,-0.361430823802948,0.729962170124054,0.46715423464775085
1783696682458235400,5.0072353515625,-0.2676156461238861,0.8584125638008118,0.4979883134365082
1783696682468198700,5.01719873046875,-0.189740851521492,1.0161018371582031,0.4730605483055115
1783696682478161700,5.02716162109375,-0.059578053653240204,1.2425349950790405,0.48222795128822327
1783696682488124700,5.037124755859375,0.08912107348442078,1.4673748016357422,0.5291268229484558
1783696682498087400,5.04708740234375,0.20576220750808716,1.568252682685852,0.5794975757598877
1783696682508050400,5.057050537109375,0.2337178885936737,1.4918665885925293,0.5976226329803467
1783696682518013400,5.067013427734375,0.16515107452869415,1.244280457496643,0.5762292146682739
1783696682527976400,5.0769765625,0.025310523808002472,0.9262157082557678,0.5476835370063782
1783696682537939500,5.086939453125,-0.13980600237846375,0.6112319827079773,0.5296717286109924
1783696682547902500,5.09690234375,-0.28864988684654236,0.21483516693115234,0.4996446371078491
1783696682557865700,5.10686572265625,-0.3383556604385376,-0.23285791277885437,0.6451680064201355
1783696682567827500,5.116827392578125,-0.42967119812965393,-0.4072505533695221,0.8884978294372559
1783696682577790500,5.12679052734375,-0.5191161036491394,-0.4920346736907959,1.1965727806091309
1783696682587753500,5.13675341796875,-0.5763341784477234,-0.33984580636024475,1.4620137214660645
1783696682597716500,5.146716552734375,-0.6136557459831238,-0.10292940586805344,1.5345598459243774
1783696682607679500,5.156679443359375,-0.6207225918769836,0.14718510210514069,1.3420947790145874
1783696682617642500,5.166642578125,-0.6185925602912903,0.3989201486110687,0.9390690326690674
1783696682627605500,5.17660546875,-0.6449978351593018,0.49984991550445557,0.4315279722213745
1783696682637568500,5.186568603515625,-0.726185142993927,0.3025110065937042,-0.09409668296575546
1783696682647531500,5.196531494140625,-0.8339322805404663,-0.05653510242700577,-0.5487580299377441
1783696682657494500,5.20649462890625,-0.9593892693519592,-0.46639958024024963,-0.9141680002212524
1783696682667457500,5.21645751953125,-1.0511709451675415,-0.9194387793540955,-1.2547473907470703
1783696682677420500,5.226420654296875,-1.0548226833343506,-1.2431371212005615,-1.498882532119751
1783696682687383300,5.23638330078125,-0.9752454161643982,-1.3950939178466797,-1.5760992765426636
1783696682697346600,5.2463466796875,-0.8475409746170044,-1.4578087329864502,-1.502170443534851
1783696682707309600,5.2563095703125,-0.6845599412918091,-1.5506012439727783,-1.3666945695877075
1783696682717272600,5.2662724609375,-0.4836058020591736,-1.6929255723953247,-1.2647621631622314
1783696682727235600,5.276235595703125,-0.23980697989463806,-1.86870276927948,-1.2224676609039307
1783696682737198600,5.286198486328125,0.004801700823009014,-1.9897098541259766,-1.173123836517334
1783696682747161600,5.29616162109375,0.21817593276500702,-1.9887678623199463,-1.0223253965377808
1783696682757124400,5.306124267578125,0.3743003010749817,-1.870445728302002,-0.7584638595581055
1783696682775183400,5.324183349609375,0.45593520998954773,-1.4028762578964233,-0.1913948506116867
1783696682785146400,5.334146484375,0.36914920806884766,-1.1297858953475952,-0.01355509553104639
1783696682795108600,5.344108642578125,0.2012059986591339,-0.8967193961143494,-0.007160845212638378
1783696682805071600,5.354071533203125,0.0059727211482822895,-0.6812258958816528,-0.1498965322971344
1783696682815034600,5.36403466796875,-0.16707496345043182,-0.46328049898147583,-0.38436388969421387
1783696682824997400,5.373997314453125,-0.3003641366958618,-0.23741841316223145,-0.6465235948562622
1783696682834960400,5.38396044921875,-0.37403061985969543,0.016419189050793648,-0.8651148080825806
1783696682844923400,5.39392333984375,-0.38125118613243103,0.2851813733577728,-1.0068286657333374
1783696682854886700,5.40388671875,-0.305121511220932,0.5369467735290527,-1.0668269395828247
1783696682864849700,5.413849609375,-0.18065300583839417,0.6920803785324097,-1.063921332359314
1783696682874812700,5.423812744140625,-0.09746011346578598,0.7378354072570801,-1.0414525270462036
1783696682884775200,5.433775146484375,-0.09248659014701843,0.6896458864212036,-1.0300461053848267
1783696682894738200,5.44373828125,-0.10660454630851746,0.6403515338897705,-1.0015380382537842
1783696682904701200,5.453701171875,-0.0962420403957367,0.633806049823761,-0.9027889370918274
1783696682914664000,5.463663818359375,-0.022891659289598465,0.5243037939071655,-0.7562138438224792
1783696682924627000,5.473626953125,0.06386405974626541,0.3105813264846802,-0.5692791938781738
1783696682934590200,5.483590087890625,0.12929712235927582,0.13724365830421448,-0.2967217266559601
1783696682944553200,5.49355322265625,0.17348963022232056,0.11359771341085434,0.053617388010025024
1783696682954516200,5.50351611328125,0.1630827933549881,0.16217857599258423,0.4351074695587158
1783696682964479200,5.513479248046875,0.13260182738304138,0.20919226109981537,0.7746285200119019
1783696682974442200,5.523442138671875,0.0936025008559227,0.1491057574748993,0.9932418465614319
1783696682984405000,5.533405029296875,0.04121825844049454,0.06351352483034134,1.1374046802520752
1783696682994368000,5.543367919921875,0.0030506334733217955,0.006727206986397505,1.2724027633666992
1783696683004331000,5.5533310546875,-0.016753986477851868,-0.033773139119148254,1.3682861328125
1783696683014294300,5.563294189453125,-0.017092207446694374,-0.027783693745732307,1.3735921382904053
1783696683024257300,5.57325732421875,0.01557110995054245,0.03746999055147171,1.308743953704834
1783696683034220300,5.58322021484375,0.10690128803253174,0.08328355848789215,1.1882790327072144
1783696683044183300,5.593183349609375,0.25022244453430176,0.09826992452144623,1.0094351768493652
1783696683054146000,5.60314599609375,0.4283141493797302,0.029064223170280457,0.7779036164283752
1783696683064109000,5.613109130859375,0.6058785319328308,-0.14122401177883148,0.49813395738601685
1783696683074072000,5.623072021484375,0.6951093077659607,-0.3032113313674927,0.21623647212982178
1783696683084035000,5.63303515625,0.6195772886276245,-0.35484856367111206,-0.0771259218454361
1783696683093998000,5.642998046875,0.4186135530471802,-0.22186656296253204,-0.3458963930606842
1783696683103961300,5.65296142578125,0.07843920588493347,-0.06237242743372917,-0.5831682682037354
1783696683114546200,5.663546142578125,-0.41974422335624695,0.027940690517425537,-0.7038869857788086
1783696683124509200,5.67350927734375,-0.7533899545669556,-0.13100837171077728,-0.6366133093833923
1783696683134472200,5.68347216796875,-0.8311575055122375,-0.625683069229126,-0.5181447267532349
1783696683144435200,5.693435302734375,-0.7048413753509521,-1.386804461479187,-0.5651922821998596
1783696683154398200,5.703398193359375,-0.4262728691101074,-2.022822856903076,-0.8275631666183472
1783696683164361200,5.713361328125,-0.06312408298254013,-2.197765350341797,-1.065758466720581
1783696683174324000,5.723323974609375,0.2693292200565338,-1.977117657661438,-1.1189130544662476
1783696683184287000,5.733286865234375,0.5085033178329468,-1.5718204975128174,-0.9740187525749207
1783696683194250000,5.74325,0.6727817058563232,-1.1509029865264893,-0.7194381356239319
1783696683204213200,5.753213134765625,0.7619013786315918,-0.7790667414665222,-0.46079862117767334
1783696683214176300,5.76317626953125,0.7893121838569641,-0.47912314534187317,-0.27406948804855347
1783696683224138000,5.773137939453125,0.7812857627868652,-0.2892031669616699,-0.226278156042099
1783696683234101000,5.78310107421875,0.7797989249229431,-0.15742941200733185,-0.3581991493701935
1783696683244064000,5.79306396484375,0.8145952224731445,-0.03684540092945099,-0.6768527626991272
1783696683254027000,5.803027099609375,0.8546185493469238,0.15186326205730438,-1.1120941638946533
1783696683263990300,5.812990234375,0.8686659932136536,0.5147479772567749,-1.5630499124526978
1783696683273953300,5.822953369140625,0.8665621280670166,1.0960278511047363,-1.9579282999038696
1783696683283916300,5.832916259765625,0.8674926161766052,1.7901113033294678,-2.2832236289978027
1783696683293879000,5.842879150390625,0.8904885053634644,2.5024094581604004,-2.535515546798706
1783696683303842000,5.852842041015625,1.03933584690094,3.20015287399292,-2.6669867038726807
1783696683313805000,5.86280517578125,1.234600305557251,3.744382619857788,-2.6759564876556396
1783696683323768000,5.87276806640625,1.327387809753418,3.9317612648010254,-2.5906319618225098
1783696683333731000,5.88273095703125,1.1834114789962769,3.5499231815338135,-2.408249616622925
1783696683343694300,5.8926943359375,0.7314683198928833,2.8518595695495605,-2.101391553878784
1783696683353657300,5.9026572265625,0.2117691934108734,2.4520411491394043,-1.5572091341018677
1783696683363620000,5.9126201171875,-0.0920388251543045,2.278320550918579,-0.8464855551719666
1783696683373583000,5.9225830078125,-0.15868203341960907,2.0031957626342773,-0.211546391248703
1783696683383546000,5.932546142578125,-0.13506582379341125,1.4696108102798462,0.26310721039772034
1783696683393509000,5.942509033203125,-0.12155348062515259,0.8800912499427795,0.6417429447174072
1783696683403472100,5.95247216796875,-0.14455358684062958,0.417011022567749,1.011731505393982
1783696683413435100,5.96243505859375,-0.18110999464988708,0.1312839388847351,1.3867906332015991
1783696683423398100,5.972398193359375,-0.20531469583511353,-0.02020418457686901,1.7576968669891357
1783696683433361200,5.982361083984375,-0.2457159161567688,-0.12748456001281738,2.090728998184204
1783696683443324200,5.99232421875,-0.2712189555168152,0.1942826509475708,2.2221291065216064
1783696683453287200,6.002287109375,-0.33582910895347595,0.8005395531654358,2.225304365158081
1783696683463250200,6.012250244140625,-0.3054775595664978,1.201598048210144,2.256382465362549
1783696683473213200,6.022213134765625,-0.24939297139644623,1.3705778121948242,2.214570999145508
1783696683483176200,6.03217626953125,-0.18685360252857208,0.9027373790740967,1.9745361804962158
1783696683493139000,6.042138916015625,-0.10533850640058517,0.08585426211357117,1.5682507753372192
1783696683503102000,6.05210205078125,0.07638261467218399,-0.3999388813972473,1.2527363300323486
1783696683513065200,6.062065185546875,0.34239670634269714,-0.44080668687820435,1.1452103853225708
1783696683523028200,6.0720283203125,0.5589237809181213,-0.2853012979030609,1.1510119438171387
1783696683532991200,6.0819912109375,0.621559739112854,-0.156815767288208,1.2117271423339844
1783696683542954200,6.091954345703125,0.48910456895828247,-0.07521747797727585,1.285132884979248
1783696683552917200,6.101917236328125,0.2121688425540924,0.033658403903245926,1.3501476049423218
1783696683562880000,6.1118798828125,-0.07903851568698883,0.2123824506998062,1.4346098899841309
1783696683572843000,6.121843017578125,-0.27166175842285156,0.3383252024650574,1.5374865531921387
1783696683582806000,6.131805908203125,-0.29526129364967346,0.401798278093338,1.6502108573913574
1783696683592769000,6.14176904296875,-0.13565219938755035,0.37612247467041016,1.7362298965454102
1783696683602732300,6.151732177734375,0.14092136919498444,0.05092447251081467,1.7219268083572388
1783696683612695300,6.1616953125,0.4269360899925232,-0.565704882144928,1.567017912864685
1783696683622658300,6.171658203125,0.651262104511261,-1.2310993671417236,1.2992751598358154
1783696683632620000,6.1816201171875,0.8212264180183411,-1.7056907415390015,0.971940279006958
1783696683642583000,6.1915830078125,0.9654138684272766,-1.9038866758346558,0.6690828204154968
1783696683652546000,6.201546142578125,1.104442834854126,-1.8605691194534302,0.4428829848766327
1783696683662509300,6.21150927734375,1.2275242805480957,-1.5756313800811768,0.3327805697917938
1783696683672472300,6.221472412109375,1.3158320188522339,-1.149509310722351,0.34959736466407776
1783696683682435000,6.23143505859375,1.3036861419677734,-0.7451813220977783,0.40446239709854126
1783696683692398000,6.241398193359375,1.1560008525848389,-0.5486898422241211,0.36386916041374207
1783696683702361000,6.251361083984375,0.9213312864303589,-0.47363215684890747,0.20130202174186707
1783696683712324000,6.261323974609375,0.6624131798744202,-0.4053521752357483,-0.05836204066872597
1783696683722287000,6.271287109375,0.4182291626930237,-0.31286895275115967,-0.38111940026283264
1783696683732250000,6.28125,0.20890124142169952,-0.16914348304271698,-0.7071243524551392
1783696683742213400,6.29121337890625,0.04236549884080887,-0.0027480763383209705,-0.9820430874824524
1783696683752176000,6.301176025390625,-0.07707168161869049,0.15634143352508545,-1.1915074586868286
1783696683762139100,6.31113916015625,-0.16369019448757172,0.2984685003757477,-1.3176909685134888
1783696683772102100,6.32110205078125,-0.2225724309682846,0.4071901738643646,-1.3636448383331299
1783696683782065200,6.331065185546875,-0.2658706605434418,0.5093096494674683,-1.3254519701004028
1783696683792028200,6.341028076171875,-0.3065299391746521,0.6311825513839722,-1.2030352354049683
1783696683801991200,6.3509912109375,-0.360912561416626,0.7755116820335388,-1.031536340713501
1783696683811954000,6.360953857421875,-0.42502468824386597,0.8562119007110596,-0.8799039721488953
1783696683821917200,6.370917236328125,-0.4878801107406616,0.8701229095458984,-0.7916162610054016
1783696683831880200,6.380880126953125,-0.5362548232078552,0.8430057764053345,-0.7672443389892578
1783696683841843200,6.39084326171875,-0.5602968335151672,0.8207070827484131,-0.7944366931915283
1783696683851806200,6.40080615234375,-0.5410779118537903,0.8559183478355408,-0.8144485950469971
1783696683861769200,6.410769287109375,-0.4777003228664398,0.9233664870262146,-0.7520179152488708
1783696683871732200,6.420732177734375,-0.3789476454257965,0.9589859843254089,-0.5736539959907532
1783696683881695000,6.430695068359375,-0.24795706570148468,0.9015969634056091,-0.2838779091835022
1783696683891658000,6.440657958984375,-0.08450502157211304,0.7618803381919861,0.07719532400369644
1783696683901621000,6.45062109375,0.10000845789909363,0.5705514550209045,0.4583783745765686
1783696683911584300,6.460584228515625,0.26053687930107117,0.28473302721977234,0.7905621528625488
1783696683921547300,6.47054736328125,0.37527841329574585,-0.08272812515497208,1.0419803857803345
1783696683931510300,6.48051025390625,0.46151527762413025,-0.5265945196151733,1.2483205795288086
1783696683941473300,6.490473388671875,0.580034613609314,-0.9714921116828918,1.4557510614395142
1783696683951436000,6.50043603515625,0.7687760591506958,-1.2383216619491577,1.64395272731781
1783696683961399000,6.51039892578125,0.9977354407310486,-1.2534629106521606,1.7567825317382812
1783696683971362000,6.520362060546875,1.2346097230911255,-0.9652446508407593,1.7373576164245605
1783696683981325000,6.530324951171875,1.4360857009887695,-0.5438273549079895,1.5895262956619263
1783696683991288000,6.5402880859375,1.6029024124145508,-0.11250871419906616,1.4210485219955444
1783696684001251300,6.550251220703125,1.7317997217178345,0.15218503773212433,1.273897647857666
1783696684011213000,6.560213134765625,1.7632828950881958,0.15905120968818665,1.1975717544555664
1783696684021176000,6.570176025390625,1.6388318538665771,0.0707862377166748,1.2542959451675415
1783696684031139000,6.58013916015625,1.351611852645874,-0.09202131628990173,1.409881591796875
1783696684041102000,6.59010205078125,0.9798174500465393,-0.2301088124513626,1.6380120515823364
1783696684051065000,6.600065185546875,0.6695860624313354,-0.21883618831634521,1.8985484838485718
1783696684061028400,6.6100283203125,0.5144111514091492,0.007165656425058842,2.0920000076293945
1783696684070991000,6.6199912109375,0.5164173245429993,0.4311603307723999,2.1321640014648438
1783696684080954000,6.6299541015625,0.6092604994773865,0.8381247520446777,1.9990841150283813
1783696684090917000,6.639917236328125,0.7202253341674805,1.065231442451477,1.7137600183486938
1783696684100880100,6.649880126953125,0.803827166557312,1.131516933441162,1.3196653127670288
1783696684110843100,6.659843017578125,0.8262104988098145,1.0990614891052246,0.8988742828369141
1783696684120806100,6.66980615234375,0.7413215637207031,0.9716649651527405,0.5229483842849731
1783696684130769200,6.67976904296875,0.565458357334137,0.7352721095085144,0.17575687170028687
1783696684140732200,6.689732177734375,0.357618123292923,0.47117891907691956,-0.15467077493667603
1783696684150695200,6.699695068359375,0.18696275353431702,0.19258829951286316,-0.46107861399650574
1783696684160658200,6.709658203125,0.046431075781583786,-0.06613919883966446,-0.7023001909255981
1783696684170621200,6.71962109375,-0.09954477846622467,-0.2639114260673523,-0.8552020788192749
1783696684180584200,6.729584228515625,-0.23738715052604675,-0.3946417570114136,-0.9381228685379028
1783696684190547200,6.739547119140625,-0.33287906646728516,-0.45828065276145935,-0.9845305681228638
1783696684200510000,6.749510009765625,-0.3734768331050873,-0.4196092486381531,-1.033514380455017
1783696684210473000,6.759472900390625,-0.3645493686199188,-0.2483978122472763,-1.091188907623291
1783696684220436200,6.769436279296875,-0.31669896841049194,-0.020018240436911583,-1.1509202718734741
1783696684230399200,6.779399169921875,-0.24352170526981354,0.17624367773532867,-1.2063264846801758
1783696684240362200,6.7893623046875,-0.17042404413223267,0.3095516562461853,-1.2585678100585938
1783696684250325200,6.7993251953125,-0.1175062283873558,0.3717670738697052,-1.2952983379364014
1783696684260288300,6.809288330078125,-0.10602464526891708,0.36652693152427673,-1.3133535385131836
1783696684270251000,6.8192509765625,-0.1446460783481598,0.3040643334388733,-1.2987922430038452
1783696684280214000,6.829214111328125,-0.22076015174388885,0.20473554730415344,-1.2443598508834839
1783696684290177000,6.839177001953125,-0.3106628954410553,0.10371997207403183,-1.1367683410644531
1783696684300140000,6.84914013671875,-0.38944900035858154,0.02751544676721096,-0.97279953956604
1783696684310103300,6.859103271484375,-0.42994850873947144,-0.006884072441607714,-0.7489347457885742
1783696684320066300,6.86906640625,-0.42263826727867126,-0.004309772979468107,-0.4613129496574402
1783696684330029300,6.879029296875,-0.3844461441040039,0.03916846215724945,-0.12143924087285995
1783696684339992000,6.888991943359375,-0.3417554795742035,0.09467735886573792,0.2315683513879776
1783696684349954000,6.8989541015625,-0.2991124093532562,0.1341795027256012,0.5435755252838135
1783696684359917000,6.9089169921875,-0.2731517255306244,0.14972847700119019,0.7725719809532166
1783696684369880300,6.91888037109375,-0.25040513277053833,0.13838981091976166,0.9277557134628296
1783696684379843300,6.92884326171875,-0.20683684945106506,0.12168551981449127,1.025073528289795
1783696684389806000,6.93880615234375,-0.13189762830734253,0.08410778641700745,1.0742509365081787
1783696684399769000,6.94876904296875,-0.04165344685316086,0.05413989722728729,1.0510331392288208
1783696684409732000,6.958732177734375,0.04968845099210739,0.09910896420478821,0.9370865821838379
1783696684419695000,6.968695068359375,0.12759627401828766,0.21436689794063568,0.7199171781539917
1783696684429658000,6.978658203125,0.18757545948028564,0.3886367082595825,0.47833967208862305
1783696684439621000,6.98862109375,0.2260812520980835,0.5569313764572144,0.3103683888912201
1783696684449584000,6.998584228515625,0.2086505889892578,0.6745309829711914,0.21540910005569458
1783696684459547100,7.008547119140625,0.09205488860607147,0.6865237355232239,0.08746730536222458
1783696684469510100,7.01851025390625,-0.10457801073789597,0.5094704031944275,-0.1268090456724167
1783696684479473200,7.02847314453125,-0.3357020914554596,0.20145857334136963,-0.3493677079677582
1783696684489436200,7.038436279296875,-0.5620326995849609,-0.054600104689598083,-0.446922242641449
1783696684499399200,7.048399169921875,-0.7452199459075928,-0.23553584516048431,-0.3657298982143402
1783696684509362200,7.058362060546875,-0.8752021789550781,-0.2429937720298767,-0.12577378749847412
1783696684519325200,7.0683251953125,-0.9708736538887024,-0.1991099864244461,0.08724900335073471
1783696684529288000,7.078287841796875,-0.9773600697517395,-0.08909667283296585,0.10362717509269714
1783696684539251200,7.088251220703125,-0.8416122794151306,0.1025775745511055,-0.08438296616077423
1783696684549214200,7.098214111328125,-0.6069616675376892,0.2999074161052704,-0.4374493956565857
1783696684559177200,7.10817724609375,-0.32949188351631165,0.41235360503196716,-0.8211131691932678
1783696684569140200,7.11814013671875,-0.09490547329187393,0.37786540389060974,-1.1130446195602417
1783696684579103200,7.128103271484375,0.024539709091186523,0.17018426954746246,-1.250001072883606
1783696684589066000,7.13806591796875,0.050721511244773865,-0.18416236340999603,-1.2247660160064697
1783696684599029000,7.148029052734375,0.049533721059560776,-0.6037490367889404,-1.052718997001648
1783696684608992000,7.157991943359375,0.06316617131233215,-1.029596209526062,-0.7833037376403809
1783696684618955000,7.167955078125,0.10292478650808334,-1.4228227138519287,-0.4844387471675873
1783696684628918300,7.177918212890625,0.1610804945230484,-1.7813448905944824,-0.23672296106815338
1783696684638881300,7.18788134765625,0.22076353430747986,-2.0475382804870605,-0.10110897570848465
1783696684648843000,7.197843017578125,0.2820061147212982,-2.1611783504486084,-0.05716362223029137
1783696684658806000,7.207805908203125,0.3411344885826111,-2.128803253173828,-0.06004013121128082
1783696684668769000,7.21776904296875,0.37078559398651123,-2.0045218467712402,-0.07729262113571167
1783696684678732000,7.22773193359375,0.3515802323818207,-1.8528470993041992,-0.1173669844865799
1783696684688695300,7.2376953125,0.2855713963508606,-1.7209627628326416,-0.16738994419574738
1783696684698658300,7.247658203125,0.20323505997657776,-1.6478183269500732,-0.221488818526268
1783696684708621000,7.25762109375,0.10776020586490631,-1.6260730028152466,-0.26728132367134094
1783696684718584000,7.267583984375,0.009631712920963764,-1.5968468189239502,-0.27861863374710083
1783696684728547000,7.277547119140625,-0.0936451405286789,-1.519022822380066,-0.23998841643333435
1783696684738510000,7.287510009765625,-0.21176469326019287,-1.3786954879760742,-0.1401052474975586
1783696684748473000,7.29747314453125,-0.3365079462528229,-1.1515984535217285,0.024093804880976677
1783696684758436000,7.30743603515625,-0.43636834621429443,-0.8384004235267639,0.20694825053215027
1783696684768399400,7.3173994140625,-0.47990837693214417,-0.5016202330589294,0.3996950685977936
1783696684778362000,7.327362060546875,-0.45101502537727356,-0.1964392066001892,0.5701978206634521
1783696684788325000,7.3373251953125,-0.3563058078289032,0.011954743415117264,0.6934359073638916
1783696684798288100,7.3472880859375,-0.21290640532970428,0.13724230229854584,0.7656787037849426
1783696684808251100,7.357251220703125,-0.047183480113744736,0.20789356529712677,0.7922181487083435
1783696684818214100,7.367214111328125,0.11584107577800751,0.2971659004688263,0.763006865978241
1783696684828177200,7.37717724609375,0.2654838263988495,0.4509999454021454,0.6723499298095703
1783696684838140200,7.38714013671875,0.38579046726226807,0.603826642036438,0.5088531970977783
1783696684848103200,7.397103271484375,0.47762399911880493,0.6905290484428406,0.28932881355285645
1783696684858066200,7.407066162109375,0.5424711108207703,0.7023693919181824,0.044872816652059555
1783696684868029200,7.417029296875,0.6118773221969604,0.6928816437721252,-0.15204957127571106
1783696684877992200,7.4269921875,0.6827512979507446,0.6823248267173767,-0.2648078501224518
1783696684887955200,7.436955078125,0.7363260984420776,0.6326742172241211,-0.3073073923587799
1783696684897918200,7.446918212890625,0.7729750275611877,0.6196686625480652,-0.35740071535110474
1783696684907881200,7.456881103515625,0.8116158843040466,0.6901763677597046,-0.510689377784729
1783696684917843200,7.46684326171875,0.853743314743042,0.7201494574546814,-0.7209756374359131
1783696684927806200,7.47680615234375,0.830745279788971,0.6507549285888672,-0.8061278462409973
1783696684937769200,7.486769287109375,0.6297119855880737,0.5483080148696899,-0.6479334235191345
1783696684947732200,7.496732177734375,0.21544796228408813,0.5176576972007751,-0.2959982752799988
1783696684957695200,7.5066953125,-0.3961164355278015,0.5843716263771057,0.050984494388103485
1783696684967658200,7.516658203125,-1.0341943502426147,0.628818154335022,0.24283649027347565
1783696684977621000,7.52662109375,-1.5076887607574463,0.5057828426361084,0.19316795468330383
1783696684987584000,7.536583984375,-1.667739987373352,0.14829739928245544,-0.0348375178873539
1783696684997547300,7.54654736328125,-1.437455415725708,-0.22824321687221527,-0.26239341497421265
1783696685007510300,7.55651025390625,-0.8935514092445374,-0.5531749725341797,-0.4942711293697357
1783696685017473300,7.566473388671875,-0.21383926272392273,-0.749583899974823,-0.7872216701507568
1783696685027436300,7.576436279296875,0.41079238057136536,-0.7008659243583679,-1.093214750289917
1783696685037399300,7.5863994140625,0.8472865223884583,-0.3906332552433014,-1.2930004596710205
1783696685047362000,7.596362060546875,1.0586416721343994,0.04812943935394287,-1.3003387451171875
1783696685057325000,7.606324951171875,1.1032564640045166,0.47752296924591064,-1.1209584474563599
1783696685067288000,7.6162880859375,1.0582431554794312,0.7125604748725891,-0.8817443251609802
1783696685077251000,7.6262509765625,0.981202244758606,0.7314693331718445,-0.7277307510375977
1783696685087214300,7.63621435546875,0.867397129535675,0.6227503418922424,-0.745923638343811
1783696685097177300,7.64617724609375,0.6698315739631653,0.465228408575058,-0.8931366205215454
1783696685107140000,7.65614013671875,0.4786541759967804,0.2467871457338333,-1.059715747833252
1783696685117103000,7.66610302734375,0.3438340723514557,-0.08072524517774582,-1.2139347791671753
1783696685127066000,7.676066162109375,0.27701082825660706,-0.49067041277885437,-1.3231734037399292
1783696685137029000,7.686029052734375,0.27549976110458374,-0.8281211853027344,-1.366472601890564
1783696685146992000,7.6959921875,0.29539385437965393,-0.9368985295295715,-1.316171646118164
1783696685156955100,7.705955078125,0.27401378750801086,-0.8114374876022339,-1.1595114469528198
1783696685166918400,7.71591845703125,0.18301516771316528,-0.5391684174537659,-0.9280180931091309
1783696685176881200,7.725881103515625,0.03404882550239563,-0.25210800766944885,-0.6709347367286682
1783696685186843100,7.735843017578125,-0.14210648834705353,-0.003717618528753519,-0.4348907768726349
1783696685196806100,7.74580615234375,-0.31074997782707214,0.2795350253582001,-0.17684578895568848
1783696685206769200,7.75576904296875,-0.46986478567123413,0.4294893741607666,0.07145323604345322
1783696685216732200,7.765732177734375,-0.6168946027755737,0.39415761828422546,0.2819623351097107
1783696685226695200,7.775695068359375,-0.748369038105011,0.25582608580589294,0.43932825326919556
1783696685236658200,7.785658203125,-0.8596015572547913,0.1435285359621048,0.5558278560638428
1783696685246621200,7.79562109375,-0.9158419370651245,0.12389571219682693,0.6691682934761047
1783696685256584200,7.805584228515625,-0.902994692325592,0.1929657757282257,0.7701075673103333
1783696685266547200,7.815547119140625,-0.8064391613006592,0.32070162892341614,0.8475608229637146
1783696685276510200,7.82551025390625,-0.6130097508430481,0.5413911938667297,0.9007719159126282
1783696685286473200,7.83547314453125,-0.3006267845630646,0.9132012724876404,0.9118181467056274
1783696685296436000,7.84543603515625,0.11570369452238083,1.3956621885299683,0.8746216297149658
1783696685306399200,7.855399169921875,0.5985813736915588,1.8789691925048828,0.7901384234428406
1783696685316362200,7.8653623046875,1.1030101776123047,2.244529962539673,0.6832954287528992
1783696685326325200,7.8753251953125,1.5617988109588623,2.433722734451294,0.5922635197639465
1783696685336288300,7.885288330078125,1.8094203472137451,2.445838689804077,0.5215209722518921
1783696685346251300,7.895251220703125,1.73590087890625,2.357269048690796,0.4894176721572876
1783696685356214300,7.90521435546875,1.3682855367660522,2.0504908561706543,0.39547404646873474
1783696685366177000,7.915177001953125,0.9754735231399536,1.3683503866195679,0.16150841116905212
1783696685376140000,7.92514013671875,0.7712191939353943,0.45621708035469055,-0.11865928769111633
1783696685386103000,7.93510302734375,0.7158195972442627,-0.3579016923904419,-0.3198230266571045
1783696685396066300,7.94506640625,0.6998945474624634,-0.9372528791427612,-0.3826976418495178
1783696685406029300,7.955029296875,0.6876469850540161,-1.1600103378295898,-0.3854715824127197
1783696685415992300,7.964992431640625,0.6487483978271484,-1.0186522006988525,-0.44389936327934265
1783696685425954000,7.9749541015625,0.5289117693901062,-0.7383936643600464,-0.624514102935791
1783696685435917000,7.9849169921875,0.29516953229904175,-0.48149415850639343,-0.9471935033798218
1783696685445880000,7.994880126953125,-0.018135124817490578,-0.5420597195625305,-1.448285698890686
1783696685455843300,8.00484326171875,-0.3571099042892456,-0.5859090089797974,-1.805970311164856
1783696685465806300,8.014806396484374,-0.7474411725997925,-0.556348443031311,-1.9497077465057373
1783696685475769300,8.024769287109375,-1.2323031425476074,-0.5028682351112366,-1.9319602251052856
1783696685485732000,8.034732177734375,-1.7283363342285156,-0.5688611268997192,-1.7918784618377686
1783696685495695000,8.044695068359376,-2.1758244037628174,-0.8520767688751221,-1.568900465965271
1783696685505658000,8.054658203125,-2.5030901432037354,-1.211328387260437,-1.262494444847107
1783696685515621000,8.06462109375,-2.641674518585205,-1.448339581489563,-0.9096824526786804
1783696685525584100,8.074584228515626,-2.5700321197509766,-1.5731462240219116,-0.5546143651008606
1783696685535547100,8.084547119140625,-2.3190248012542725,-1.7067583799362183,-0.2067757099866867
1783696685545510400,8.094510498046875,-1.9498671293258667,-1.872726559638977,0.11865432560443878
1783696685555473200,8.10447314453125,-1.598602056503296,-2.0099973678588867,0.3960423767566681
1783696685565436200,8.114436279296875,-1.3941783905029297,-1.985498070716858,0.5811504125595093
1783696685575399200,8.124399169921874,-1.3884772062301636,-1.7803412675857544,0.6158292293548584
1783696685585362200,8.134362060546875,-1.5162415504455566,-1.4825180768966675,0.5106700658798218
1783696685595325200,8.1443251953125,-1.6769146919250488,-1.1899819374084473,0.3347090482711792
1783696685605288200,8.1542880859375,-1.7892675399780273,-0.9760766625404358,0.14837460219860077
1783696685615251000,8.1642509765625,-1.819659948348999,-0.8470370769500732,0.018914105370640755
1783696685625214200,8.174214111328125,-1.7462235689163208,-0.7287024259567261,-0.020853547379374504
1783696685635177200,8.18417724609375,-1.5786945819854736,-0.5947538614273071,0.015013055875897408
1783696685645140200,8.19414013671875,-1.348323106765747,-0.45458027720451355,0.11617482453584671
1783696685655103200,8.204103271484374,-1.1008155345916748,-0.32195207476615906,0.263986736536026
1783696685665066200,8.214066162109376,-0.9050326943397522,-0.16524556279182434,0.42985454201698303
1783696685675028000,8.224028076171875,-0.7942603826522827,0.02371129021048546,0.5683510303497314
1783696685684991200,8.2339912109375,-0.7383334636688232,0.19609132409095764,0.6625505089759827
1783696685694954200,8.243954345703125,-0.7000880837440491,0.33221518993377686,0.7063817381858826
1783696685704917200,8.253917236328125,-0.6789262890815735,0.40688464045524597,0.6939341425895691
1783696685714880300,8.26388037109375,-0.6657674312591553,0.40526074171066284,0.6239675283432007
1783696685724843300,8.27384326171875,-0.6436517834663391,0.33051034808158875,0.5292870998382568
1783696685734806000,8.283805908203124,-0.6166786551475525,0.21932199597358704,0.4413013458251953
1783696685744769000,8.29376904296875,-0.5951517820358276,0.109891377389431,0.3841528594493866
1783696685754732000,8.30373193359375,-0.567923367023468,0.05962151288986206,0.35863643884658813
1783696685764695000,8.313695068359374,-0.5324868559837341,0.12307798117399216,0.3419610559940338
1783696685774658300,8.323658203125,-0.5154894590377808,0.29711678624153137,0.3173425495624542
1783696685784621300,8.333621337890625,-0.48506125807762146,0.5109867453575134,0.2722475230693817
1783696685794584300,8.343584228515626,-0.41402506828308105,0.6800392270088196,0.22327257692813873
1783696685804547000,8.353547119140625,-0.31977951526641846,0.7928435802459717,0.1838924139738083
1783696685814510000,8.363510009765625,-0.22633378207683563,0.8245316743850708,0.17141318321228027
1783696685824473000,8.37347314453125,-0.1598338484764099,0.7733624577522278,0.19218450784683228
1783696685834436000,8.38343603515625,-0.13098499178886414,0.6770734190940857,0.2750319540500641
1783696685844399000,8.393399169921874,-0.13399116694927216,0.611899733543396,0.42048636078834534
1783696685854362400,8.4033623046875,-0.13951259851455688,0.5719318985939026,0.6227542161941528
1783696685864325400,8.413325439453125,-0.10896801203489304,0.5838615298271179,0.8541762828826904
1783696685874288000,8.4232880859375,-0.03352365270256996,0.6508934497833252,1.0819288492202759
1783696685884251600,8.433251708984375,0.06618482619524002,0.5850984454154968,1.2010821104049683
1783696685894213400,8.44321337890625,0.13761508464813232,0.3124295473098755,1.1653579473495483
1783696685904176400,8.45317626953125,0.14674599468708038,-0.08062880486249924,1.014512300491333
1783696685914139400,8.463139404296875,0.09676741063594818,-0.38166502118110657,0.8324412703514099
1783696685924102700,8.4731025390625,0.015127678401768208,-0.4561759829521179,0.6774934530258179
1783696685934065700,8.483065673828126,-0.03463725745677948,-0.34497523307800293,0.5842462182044983
1783696685944028700,8.493028564453125,-0.03311232849955559,-0.18091730773448944,0.5416425466537476
1783696685953991400,8.502991455078124,0.010121481493115425,-0.012524371966719627,0.4708271324634552
1783696685963954400,8.512954345703125,0.06875230371952057,0.15679381787776947,0.31152430176734924
1783696685973917400,8.52291748046875,0.11155305802822113,0.2801167070865631,0.03774503991007805
1783696685983880400,8.53288037109375,0.12797890603542328,0.3187306523323059,-0.29827478528022766
1783696685993843500,8.542843505859375,0.12214919924736023,0.32929274439811707,-0.6078566908836365
1783696686003806500,8.552806396484375,0.10602588951587677,0.3534611761569977,-0.8214784264564514
1783696686013769700,8.562769775390626,0.07946661859750748,0.41410574316978455,-0.936173141002655
1783696686023732500,8.572732421875,0.07126594334840775,0.4964490830898285,-0.9461547136306763
1783696686033695500,8.582695556640624,0.07800155133008957,0.5927175879478455,-0.8537764549255371
1783696686043658500,8.592658447265626,0.10500653833150864,0.6993588209152222,-0.6883004307746887
1783696686053621500,8.60262158203125,0.13537095487117767,0.7878267168998718,-0.5057709813117981
1783696686063584500,8.61258447265625,0.1477450728416443,0.7897146344184875,-0.35682862997055054
1783696686073547500,8.622547607421875,0.15900197625160217,0.666306734085083,-0.2584506869316101
1783696686083510300,8.63251025390625,0.19049039483070374,0.483722060918808,-0.19443388283252716
1783696686093473500,8.6424736328125,0.22778524458408356,0.2984021306037903,-0.1336076706647873
1783696686103436500,8.6524365234375,0.25449278950691223,0.12435523420572281,-0.05761170759797096
1783696686113398500,8.6623984375,0.26426634192466736,-0.0288526713848114,0.019561532884836197
1783696686123361500,8.672361572265626,0.25712108612060547,-0.16553515195846558,0.08919760584831238
1783696686133324500,8.682324462890625,0.22054511308670044,-0.2733931839466095,0.15187713503837585
1783696686143287300,8.692287353515624,0.15756402909755707,-0.33073690533638,0.19752532243728638
1783696686153250600,8.70225048828125,0.09274508059024811,-0.3568740487098694,0.22181707620620728
1783696686163213600,8.712213623046875,0.03757503256201744,-0.3616882562637329,0.22732795774936676
1783696686173176600,8.722176513671876,0.02451314777135849,-0.3463372588157654,0.23172838985919952
1783696686183139600,8.7321396484375,0.05310564488172531,-0.3024859130382538,0.256896048784256
1783696686193102600,8.7421025390625,0.09560580551624298,-0.23082004487514496,0.3188287317752838
1783696686203065300,8.7520654296875,0.1326810121536255,-0.15423846244812012,0.40528133511543274
1783696686213028400,8.7620283203125,0.1407783031463623,-0.10565850883722305,0.4894123375415802
1783696686222991400,8.771991455078124,0.13176509737968445,-0.11574629694223404,0.5667819380760193
1783696686232954600,8.78195458984375,0.13429565727710724,-0.15587438642978668,0.6395190358161926
1783696686242917600,8.791917724609375,0.17696136236190796,-0.1725926548242569,0.7097122669219971
1783696686252880600,8.801880615234374,0.22007077932357788,-0.1828402578830719,0.7670643329620361
1783696686262843600,8.81184375,0.22324393689632416,-0.1502080112695694,0.8099864721298218
1783696686272806400,8.821806396484375,0.14894333481788635,-0.04592813923954964,0.819143533706665
1783696686282769400,8.831769287109376,-0.014320945367217064,0.12714910507202148,0.7802739143371582
1783696686292732400,8.841732421875,-0.22297734022140503,0.3586949408054352,0.7136825323104858
1783696686302695400,8.8516953125,-0.38311585783958435,0.6188647747039795,0.6538287401199341
1783696686312658400,8.861658447265626,-0.4518987834453583,0.9067407250404358,0.601931095123291
1783696686322621700,8.87162158203125,-0.4409603774547577,1.199457049369812,0.5526000261306763
1783696686332583400,8.88158349609375,-0.3930426836013794,1.3960113525390625,0.49071204662323
1783696686342546400,8.89154638671875,-0.34874340891838074,1.4441245794296265,0.40278032422065735
1783696686352509400,8.901509521484375,-0.31984415650367737,1.3363436460494995,0.2914457321166992
1783696686362472400,8.911472412109376,-0.2991809546947479,1.045151948928833,0.15054664015769958
1783696686372435500,8.921435546875,-0.2931135892868042,0.6012363433837891,-0.019467707723379135
1783696686382398700,8.931398681640625,-0.3280278742313385,0.16765588521957397,-0.16622120141983032
1783696686392361500,8.941361572265626,-0.39950647950172424,-0.17570602893829346,-0.24679724872112274
1783696686402324500,8.951324462890625,-0.44768229126930237,-0.4051397740840912,-0.25039994716644287
1783696686412287500,8.96128759765625,-0.44242849946022034,-0.42647847533226013,-0.22030417621135712
1783696686422250500,8.97125048828125,-0.4217509329319,-0.205007866024971,-0.16653096675872803
1783696686432213500,8.981213623046875,-0.3854615092277527,0.15920111536979675,-0.08387144654989243
1783696686442176500,8.991176513671874,-0.3219837248325348,0.516063392162323,0.00985424593091011
1783696686452139500,9.001139404296875,-0.2351982295513153,0.6269016265869141,0.046956419944763184
1783696686462102500,9.0111025390625,-0.15342800319194794,0.3935144245624542,-0.0063592675141990185
1783696686472065500,9.0210654296875,-0.10724537074565887,-0.08142264187335968,-0.08822233974933624
1783696686482028500,9.031028564453125,-0.07058722525835037,-0.6189545392990112,-0.13685990869998932
1783696686491991600,9.040991455078125,-0.023746125400066376,-1.0837993621826172,-0.1631900519132614
1783696686501954600,9.05095458984375,0.02942335233092308,-1.439911127090454,-0.22180195152759552
1783696686511917600,9.06091748046875,0.06859991699457169,-1.6602132320404053,-0.33610203862190247
1783696686521880600,9.070880615234374,0.04811940714716911,-1.7574950456619263,-0.48364490270614624
1783696686531842600,9.080842529296875,-0.027383269742131233,-1.7177447080612183,-0.6188512444496155
1783696686541805600,9.0908056640625,-0.12425548583269119,-1.5612996816635132,-0.6886694431304932
1783696686551768600,9.1007685546875,-0.21291686594486237,-1.338573694229126,-0.6972992420196533
1783696686561731600,9.110731689453125,-0.2717133164405823,-1.1227343082427979,-0.681403398513794
1783696686571694600,9.120694580078125,-0.28047975897789,-1.0183842182159424,-0.6641600131988525
1783696686581657300,9.1306572265625,-0.23412823677062988,-1.055917501449585,-0.6751101613044739
1783696686591620400,9.140620361328125,-0.13990406692028046,-1.174584984779358,-0.6862902641296387
1783696686601583400,9.150583251953124,-0.023935118690133095,-1.2677665948867798,-0.6729204058647156
1783696686611546600,9.160546630859375,0.06372298300266266,-1.2634484767913818,-0.6518487334251404
1783696686621509600,9.170509521484375,0.10178142040967941,-1.1704130172729492,-0.6306195855140686
1783696686631472600,9.18047265625,0.09123826771974564,-1.029819130897522,-0.6266516447067261
1783696686641435600,9.190435546875,0.025803864002227783,-0.827560544013977,-0.633689284324646
1783696686651398400,9.2003984375,-0.10252867639064789,-0.5538623929023743,-0.6527363657951355
1783696686661361400,9.210361328125,-0.2615675926208496,-0.24250930547714233,-0.6826394200325012
1783696686671324400,9.220324462890625,-0.43221795558929443,0.0656670480966568,-0.7088150382041931
1783696686681287400,9.230287353515624,-0.5665746927261353,0.32019227743148804,-0.7103708386421204
1783696686691250700,9.240250732421876,-0.6306989192962646,0.535399854183197,-0.6617093682289124
1783696686701213700,9.250213623046875,-0.6171684861183167,0.7336492538452148,-0.54688960313797
1783696686711176400,9.260176513671874,-0.5452763438224792,0.902129590511322,-0.3745274245738983
1783696686721139500,9.270139404296875,-0.4429004490375519,1.0196332931518555,-0.1662362813949585
1783696686731101400,9.280101318359375,-0.3116249442100525,1.0626929998397827,0.042890746146440506
1783696686741064400,9.290064453125,-0.1653878390789032,1.03001070022583,0.2300422489643097
1783696686751027700,9.30002783203125,-0.010817410424351692,0.9549782872200012,0.3808174729347229
1783696686760990700,9.30999072265625,0.11817918717861176,0.9101226925849915,0.5095999240875244
1783696686779049500,9.328049560546875,0.1296495944261551,0.8289655447006226,0.6644164323806763
1783696686789012500,9.338012451171876,0.04834604635834694,0.6952252984046936,0.7097375988960266
1783696686798975500,9.3479755859375,-0.020050058141350746,0.5170592665672302,0.7524291276931763
1783696686808938500,9.3579384765625,-0.05093196779489517,0.43274056911468506,0.7899589538574219
1783696686818901500,9.367901611328126,-0.027604276314377785,0.5168647766113281,0.8114996552467346
1783696686828863700,9.37786376953125,0.04377816244959831,0.7146502137184143,0.813230574131012
1783696686838826500,9.387826416015624,0.14556337893009186,0.7991986274719238,0.7739045023918152
1783696686848789500,9.39778955078125,0.2336043417453766,0.6830803751945496,0.6664412617683411
1783696686858752500,9.40775244140625,0.29280561208724976,0.44021689891815186,0.5529876947402954
1783696686868715500,9.417715576171876,0.28431153297424316,0.10919784009456635,0.48717400431632996
1783696686878678500,9.427678466796875,0.17502231895923615,-0.1520356386899948,0.5059123039245605
1783696686888641800,9.437641845703125,0.02217603661119938,-0.1339084506034851,0.6357397437095642
1783696686898604800,9.447604736328126,-0.043385930359363556,0.13795875012874603,0.8186746835708618
1783696686908567600,9.457567626953125,0.04074632748961449,0.36487799882888794,0.9499042630195618
1783696686918530800,9.46753076171875,0.23134130239486694,0.33307427167892456,0.9246196746826172
1783696686928493800,9.477493896484376,0.4176482856273651,0.04713519290089607,0.6839672327041626
1783696686938456800,9.487456787109375,0.4863937795162201,-0.5996443629264832,0.15723919868469238
1783696686948419800,9.497419921875,0.4243943989276886,-1.5175025463104248,-0.5598154067993164
1783696686958382800,9.5073828125,0.27100616693496704,-2.3231382369995117,-1.2545228004455566
1783696686968345900,9.517345947265625,0.0915655642747879,-2.7519454956054688,-1.7415038347244263
1783696686978308600,9.52730859375,-0.08510055392980576,-2.768022060394287,-1.924941897392273
1783696686988271600,9.537271728515625,-0.22375211119651794,-2.421203374862671,-1.812711238861084
1783696686998234600,9.547234619140625,-0.2866610288619995,-1.759126901626587,-1.5122190713882446
1783696687008198000,9.557197998046876,-0.2785149812698364,-0.8870898485183716,-1.1636133193969727
1783696687018161000,9.567160888671875,-0.26673129200935364,-0.09676486253738403,-0.8781261444091797
1783696687028122600,9.57712255859375,-0.31689223647117615,0.28278613090515137,-0.7551177144050598
1783696687038085600,9.587085693359375,-0.4026649296283722,0.17369666695594788,-0.8297770619392395
1783696687048048600,9.597048583984375,-0.48677507042884827,-0.1369471549987793,-0.9982929825782776
1783696687058011600,9.60701171875,-0.5717578530311584,-0.33988773822784424,-1.1480984687805176
1783696687067975000,9.616974853515625,-0.6601045727729797,-0.3392455279827118,-1.2098971605300903
1783696687077938000,9.62693798828125,-0.7234699726104736,-0.1822763979434967,-1.1781784296035767
1783696687088523800,9.637523681640625,-0.7267817258834839,0.07855992019176483,-1.0485104322433472
1783696687098485800,9.64748583984375,-0.7074477076530457,0.31688836216926575,-0.8551161885261536
1783696687108448800,9.65744873046875,-0.6693539023399353,0.5026625394821167,-0.6146827340126038
1783696687118411800,9.667411865234374,-0.6305623054504395,0.6762716174125671,-0.3297725021839142
1783696687128374800,9.677374755859375,-0.5822232961654663,0.8299323320388794,-0.028964973986148834
1783696687138337800,9.687337890625,-0.5305065512657166,0.9453582167625427,0.25897014141082764
1783696687148300500,9.697300537109374,-0.4823826253414154,0.9967528581619263,0.4984421730041504
1783696687158263800,9.707263916015625,-0.4283667802810669,0.9229779839515686,0.6764872670173645
1783696687168226800,9.717226806640625,-0.3672415018081665,0.7677680850028992,0.8078169226646423
1783696687178189800,9.72718994140625,-0.27972015738487244,0.6036022901535034,0.8887131214141846
1783696687188152800,9.73715283203125,-0.15620878338813782,0.493987113237381,0.9169570803642273
1783696687198115800,9.74711572265625,-0.022150039672851562,0.46848201751708984,0.9004979133605957
1783696687208078800,9.757078857421876,0.10958769172430038,0.5455360412597656,0.8386315107345581
1783696687218041600,9.76704150390625,0.22019915282726288,0.6929590106010437,0.7742769718170166
1783696687228004600,9.777004638671874,0.27860429883003235,0.8034120202064514,0.7338381409645081
1783696687237967600,9.786967529296875,0.2691327631473541,0.8270465135574341,0.7101916670799255
1783696687247931000,9.796930908203125,0.2124541997909546,0.7641696929931641,0.6850926280021667
1783696687257894000,9.806893798828124,0.13441158831119537,0.7010237574577332,0.658397376537323
1783696687267857000,9.81685693359375,0.04569559544324875,0.7449552416801453,0.6379625201225281
1783696687277820000,9.82681982421875,-0.04053569585084915,0.931464433670044,0.7027625441551208
1783696687287782700,9.83678271484375,-0.13481789827346802,1.074210524559021,1.0038702487945557
1783696687297744600,9.84674462890625,-0.10076406598091125,0.5028307437896729,1.1729726791381836
1783696687307708000,9.8567080078125,0.04419992119073868,-0.2648452818393707,1.1761025190353394
1783696687317671000,9.8666708984375,0.16250552237033844,-0.8012229204177856,1.0678019523620605
1783696687327634000,9.876634033203125,0.15375667810440063,-1.0016918182373047,0.8054313063621521
1783696687337596700,9.8865966796875,0.008491906337440014,-0.8691284656524658,0.48580294847488403
1783696687347559700,9.8965595703125,-0.14699813723564148,-0.4408140480518341,0.26681292057037354
1783696687357522700,9.906522705078125,-0.23771286010742188,0.03727847710251808,0.14227764308452606
