time,seconds_elapsed,z,y,x
1783696710590526500,0.0615263671875,4.896621118447184,4.175056318157911,-1.539165085749328
1783696710600489500,0.071489501953125,4.65337525666356,4.055750724297762,-1.61330920323804
1783696710610452200,0.0814521484375,4.3447424382120365,3.702844464355707,-1.2506652470052242
1783696710620415200,0.091415283203125,3.920934257572889,2.8887282216191292,-0.6209824654690921
1783696710630378200,0.101378173828125,3.489140923398733,1.982479054108262,-0.4016045321375131
1783696710640341200,0.11134130859375,2.754163683828711,0.7704010196506976,0.16074074318483472
1783696710650304300,0.12130419921875,1.8816320770025252,-0.6688146223545074,1.0319903473764658
1783696710660267300,0.131267333984375,1.1387602847903966,-2.1147271316498517,1.6539520331412554
1783696710670229200,0.141229248046875,0.5720218890756368,-3.3236107539802786,1.7891877481915055
1783696710680192300,0.151192138671875,-0.3839186533212662,-4.146833263236284,1.6892182845726609
1783696710690155300,0.1611552734375,-2.5812246994584798,-4.9856128225862975,1.9108400513082742
1783696710700118300,0.1711181640625,-5.2304287101656195,-5.553268917667865,2.2392703339025375
1783696710710081300,0.181081298828125,-6.864252732035517,-5.47293398271501,2.37833495959118
1783696710720044300,0.191044189453125,-7.058938853311538,-5.752991864067316,2.9940342239603397
1783696710730007300,0.20100732421875,-6.006966040614247,-6.4009343787848945,3.8320904374718663
1783696710739970300,0.21097021484375,-4.50009198987782,-6.893839476525783,4.019376511624455
1783696710749932300,0.220932373046875,-3.7008009758293627,-7.752650016513466,4.1309535570591684
1783696710759895300,0.230895263671875,-3.560425121411681,-8.358030569833517,4.2179754224300385
1783696710769858300,0.2408583984375,-3.821936123204231,-8.374824468246102,4.174046848854422
1783696710779821000,0.250821044921875,-3.9514761108309027,-7.836293345361947,3.710179629549384
1783696710789784300,0.260784423828125,-4.124586944636702,-6.559976939749717,2.586108672107756
1783696710799747300,0.270747314453125,-4.839292965072393,-4.831998716410994,1.066468078778684
1783696710809710300,0.28071044921875,-6.12755115289092,-3.2172347843199964,-0.27194895530715585
1783696710819673300,0.29067333984375,-7.305743868881463,-1.7900860122054814,-1.259223085861653
1783696710829635000,0.300635009765625,-7.117873857361078,-0.7524509369403123,-1.9533634342610835
1783696710839598000,0.31059814453125,-5.3610132384091616,-0.1644213313937187,-2.314379643161595
1783696710849561000,0.32056103515625,-2.998077654132247,0.3355605728656053,-2.4325825364768505
1783696710859524400,0.3305244140625,-0.7646978395730256,0.915412132653594,-2.3390030661560592
1783696710869487400,0.3404873046875,1.1528256350219248,1.4339531914323567,-2.1237788915030658
1783696710879450400,0.350450439453125,2.5150176585793496,2.022254015135765,-1.9165666122615337
1783696710889413400,0.360413330078125,3.372333576095104,2.689687412264943,-1.7596594558902083
1783696710899375000,0.370375,3.79411229673326,3.1914550308972593,-1.6042347931616008
1783696710909338000,0.380338134765625,3.9984278316199777,3.6643127813875673,-1.488777399162203
1783696710919301400,0.39030126953125,4.054627273225784,4.12071156450808,-1.2512282877154648
1783696710929264000,0.40026416015625,4.189562982416152,4.084956945037842,-0.9455886597305536
1783696710939227100,0.41022705078125,4.494520327225327,4.362584092111885,-0.8795092638190836
1783696710949190100,0.420190185546875,4.657384492304921,4.672264081528782,-1.0646863829936832
1783696710959153200,0.430153076171875,4.7708711707532405,4.689001281318069,-1.0297482675381004
1783696710969116200,0.4401162109375,4.867227850702404,4.636823058052361,-0.6897502967469393
1783696710979078400,0.450078369140625,4.995318224042654,4.44836618655473,-0.31575477928593754
1783696710989041200,0.460041259765625,5.35420823456943,4.153951570808887,-0.011003770703822373
1783696710999004200,0.470004150390625,5.832299209538101,3.8183155946195124,0.17096001244746148
1783696711008967200,0.47996728515625,6.063405720716714,3.3929800582826135,0.19231069738157092
1783696711018930200,0.48993017578125,6.062399758544564,3.040053047813475,0.054596244192868466
1783696711028893200,0.49989306640625,6.007478666311502,2.9306974778205155,-0.28844080203324557
1783696711038856200,0.509856201171875,5.828562361097336,2.8629572360247373,-0.6910481545377523
1783696711048819000,0.51981884765625,5.582401488649845,2.7114365949973465,-1.1446719199869781
1783696711058781200,0.52978125,5.271462146821618,2.5857664345413447,-1.5819398131147027
1783696711068744200,0.539744140625,4.778831189846993,2.4076208214387296,-1.832847880089283
1783696711078707200,0.549707275390625,3.960217051169276,2.2683988132312893,-1.762995030053705
1783696711088670200,0.559670166015625,3.3173201294034715,2.183952059045434,-1.5737198279105127
1783696711098633200,0.56963330078125,2.8209552465975283,1.886224080967903,-1.354250124642253
1783696711108596000,0.579595947265625,2.167097370356321,1.175860473650694,-0.8294590655580163
1783696711118559200,0.589559326171875,0.7324088503867388,0.02780921342372894,-0.037952714036405086
1783696711128521200,0.599521240234375,-1.139503796634078,-1.1851187158614396,0.2810071449011564
1783696711138484200,0.609484130859375,-2.7638626555442807,-2.331958262211084,0.398506127730757
1783696711148447200,0.619447265625,-4.201229454812407,-3.625245091846585,0.8306324932515621
1783696711158410000,0.629409912109375,-5.652637054392695,-4.918421446844935,1.2318848509505391
1783696711168373000,0.639373046875,-7.382887898838519,-6.026025545871257,1.5998152231536804
1783696711178336300,0.649336181640625,-9.073938951796293,-6.98621906953752,2.1390258527345956
1783696711188299300,0.65929931640625,-10.094781882214546,-7.783712678775191,2.848483304992318
1783696711198262300,0.66926220703125,-10.18500400493145,-8.275052426895499,3.701659930746257
1783696711208224000,0.67922412109375,-9.720022102382778,-8.6710467179358,4.257795976164937
1783696711218187000,0.68918701171875,-8.484721597769855,-8.965033171397447,3.8845796263828873
1783696711228150000,0.69914990234375,-6.85520316413939,-9.015859103271364,3.1808009504139423
1783696711238113300,0.70911328125,-5.554855310076475,-8.607036310318112,2.938900073498487
1783696711248076300,0.719076171875,-4.822973113912344,-8.053341520571708,2.836776500585675
1783696711258039300,0.729039306640625,-4.710146360677481,-7.11205143481791,2.738934258253872
1783696711268002300,0.739002197265625,-4.876958971121907,-5.462414342266321,2.5232120709508656
1783696711277964000,0.748964111328125,-4.71331680740714,-3.410302949005365,1.7052550810076295
1783696711287927000,0.758927001953125,-3.7501188412278887,-1.8636419545426963,0.7517426425404846
1783696711297890300,0.768890380859375,-2.403186930644512,-1.1762073873922227,0.2094246945939958
1783696711307853300,0.778853271484375,-1.8491840978622436,-0.792823279339075,0.41106268083453174
1783696711317816300,0.78881640625,-1.495814896583557,-0.2742988794341683,0.8126555225342512
1783696711327779300,0.798779296875,-0.5321884758591652,0.43903176099509,0.7912658207640051
1783696711337742000,0.8087421875,0.5867746370494366,0.7468614463701844,0.5005269709214568
1783696711347705000,0.818705078125,1.4523802440047264,0.8936357696533203,-0.11369359919726849
1783696711357667300,0.828667236328125,2.152363911604881,1.2067273210793732,-0.8561500886067748
1783696711367630300,0.83863037109375,2.770397610270977,1.4366221183806658,-1.3465803206667304
1783696711377593300,0.84859326171875,3.4344378578305244,1.7374521541267633,-1.6772614509277044
1783696711387556000,0.85855615234375,3.968782634940743,2.1162208773389457,-2.0193881043106314
1783696711397519000,0.86851904296875,4.370719175511598,2.4442238744318483,-2.34480269234553
1783696711407482000,0.878482177734375,4.898905429992079,2.8344644242510197,-2.741217400754988
1783696711417445000,0.888445068359375,5.3882239014178515,3.1807755237117408,-3.1602678654730316
1783696711427407400,0.898407470703125,5.658122207805514,3.462235673077404,-3.401809845948219
1783696711437370000,0.9083701171875,5.745556745630503,3.4523490698352455,-3.280385360237956
1783696711447333000,0.9183330078125,5.8101733024477955,3.323509339432418,-2.8933474058523774
1783696711457296100,0.928296142578125,5.9387675336569545,3.175495537482202,-2.5829689127773046
1783696711467259100,0.938259033203125,6.267488031369448,3.103504360243678,-2.4403368038654327
1783696711477222100,0.94822216796875,6.735360979184508,3.2146444755658505,-2.4518203209102154
1783696711487185200,0.95818505859375,7.271615973830222,3.3102076670497653,-2.521831430247426
1783696711497147100,0.968147216796875,7.593551341447234,3.312681948208809,-2.540591368035972
1783696711507110100,0.978110107421875,7.519702261382341,3.532420093154907,-2.460332713189721
1783696711517073200,0.9880732421875,7.202926468485593,3.963787310871482,-2.334681841956079
1783696711527036200,0.9980361328125,6.758987353965639,4.350305917558074,-2.194542280512303
1783696711536999200,1.007999267578125,6.262340147086977,4.67961678237915,-2.1243163593806327
1783696711546962200,1.017962158203125,5.603274765330553,4.875659578961134,-2.1153419025473297
1783696711556925200,1.02792529296875,5.160737334302067,4.924434423524141,-1.9915069946944712
1783696711566888200,1.03788818359375,4.585025943058729,4.676861346191168,-1.5511469077050686
1783696711576850200,1.04785009765625,3.513402673473954,4.001379082641005,-0.8343591125592589
1783696711586813200,1.057813232421875,2.5044629468172785,3.022072862225771,0.2573629422023892
1783696711596776200,1.067776123046875,1.1376835954695939,1.6500731458812952,1.8169190740734338
1783696711606739200,1.0777392578125,-0.7879039431154727,-0.13765958119630814,3.290323693667352
1783696711616702000,1.087701904296875,-2.6394629534155127,-1.8574498219043016,3.9027445208877323
1783696711626665200,1.097665283203125,-4.069671697622537,-3.4766198799997565,3.5480849875375626
1783696711636628200,1.107628173828125,-5.211461559367179,-5.133850496420264,2.6090765829801557
1783696711646590200,1.117590087890625,-6.3615995627403255,-6.622594431704282,2.0014920898750423
1783696711656553200,1.12755322265625,-7.289578331500292,-7.611929878702759,2.276041583069414
1783696711666516000,1.137515869140625,-7.528068523189425,-8.064021904540061,3.680810034941137
1783696711676479000,1.14747900390625,-6.952047335344552,-8.271310317757726,5.396819295805693
1783696711686442200,1.157442138671875,-6.066569737705588,-8.44081172889471,6.835273890310526
1783696711696405200,1.1674052734375,-5.363116348168254,-8.593824946567416,7.663202385300397
1783696711706368300,1.1773681640625,-5.039935364404321,-8.355096269947289,7.964442755413055
1783696711716331300,1.187331298828125,-5.319793339270353,-7.684427544158697,8.165471523714064
1783696711726293000,1.19729296875,-6.1203568574726575,-6.418700921621919,7.746516628324985
1783696711736256000,1.207256103515625,-7.013506304913759,-4.3243689277470105,6.037478667777776
1783696711746219300,1.21721923828125,-7.7467714798688885,-2.172877707323432,3.8731542692661285
1783696711756182300,1.227182373046875,-8.206513143676519,-0.7542588631451129,2.30083042575866
1783696711766145300,1.237145263671875,-7.768702741169929,0.21212328602820635,1.2180810742646455
1783696711776108300,1.2471083984375,-6.1602504764437676,0.7086936282783747,0.553020836007595
1783696711786070000,1.257070068359375,-3.9124417390376327,0.7955155871629714,0.12355594478100537
1783696711796033000,1.267032958984375,-1.4079168329000473,0.7746309123054146,-0.6091673783823848
1783696711805996300,1.276996337890625,1.006504608464241,0.8342699729710816,-1.531999724164605
1783696711815959300,1.286959228515625,2.777010890930891,1.090047399547696,-2.2203856006905434
1783696711825922300,1.29692236328125,3.711154612061381,1.6546300785332917,-2.464564651671052
1783696711835885300,1.30688525390625,4.14111605463326,2.206522495032847,-2.5149706045672295
1783696711845848000,1.31684814453125,4.48737220903635,2.538350311110914,-2.262103658609837
1783696711855811000,1.32681103515625,4.845794017529487,3.01383110358119,-2.033522135864198
1783696711865773300,1.336773193359375,5.239276033487916,3.423326681229472,-1.9328408707141875
1783696711875736300,1.346736328125,5.445590633237361,3.573051086489856,-2.0258312891006467
1783696711885699300,1.35669921875,5.325234653541445,3.4193364425495263,-2.3172651354700324
1783696711895662000,1.366662109375,5.147790174445509,3.2642011181563135,-2.675742765803635
1783696711905624000,1.3766240234375,5.218763991335034,3.2002690364718434,-2.987780716523528
1783696711915587000,1.386587158203125,5.445773004066944,3.0218086583316324,-3.274506239071488
1783696711925549300,1.39654931640625,5.661283302184939,2.897523522493243,-3.5589351751148697
1783696711935512300,1.40651220703125,5.6620688996046775,2.9112153632372615,-3.965429817381501
1783696711945475300,1.416475341796875,5.354005405473709,2.946759847088158,-4.217347645920515
1783696711955438300,1.426438232421875,4.837316112041473,3.0682790253445504,-3.6682626880571245
1783696711965401000,1.436401123046875,4.394003020465374,3.274342865203321,-3.1476947996258735
1783696711975364000,1.446364013671875,3.952048357760906,3.384073990510404,-2.823186074389517
1783696711985327400,1.456327392578125,3.644290568578243,3.3876819518744945,-2.599098209801316
1783696711995289300,1.466289306640625,3.5555753432929516,3.5062048709243534,-2.574416480748355
1783696712005252400,1.47625244140625,3.624689211529493,3.5934406713068485,-2.525653034362197
1783696712015215000,1.486215087890625,3.677143036866188,3.2968554335236546,-2.403166180117428
1783696712025178000,1.49617822265625,3.4509377417325973,2.646847802969813,-2.0723272289462384
1783696712035141000,1.50614111328125,2.844614939126372,1.682554442769289,-1.1933850244253874
1783696712045104400,1.5161044921875,2.0104700538396836,0.48613224260509014,0.14372355741038917
1783696712055067400,1.5260673828125,0.9347738357275723,-1.208074644035101,1.7363003537431358
1783696712065029000,1.536029052734375,0.10068038836717605,-3.3999744472146034,3.1990602452039716
1783696712074992000,1.5459921875,-0.9519693006783724,-5.294610967218875,4.156813682241737
1783696712084955100,1.555955078125,-2.5965344967931507,-6.7852668736040584,4.200076485385001
1783696712094918100,1.565918212890625,-5.404399375671148,-7.506177009376883,3.3397505723983048
1783696712104881400,1.57588134765625,-7.622132708287238,-6.708259621769189,1.851004152896255
1783696712114844400,1.585844482421875,-8.773186072939634,-5.603161952605843,1.288203096630424
1783696712124807400,1.595807373046875,-9.401706678828596,-5.963364214774966,2.7937153574943543
1783696712134769200,1.60576904296875,-8.534652626630663,-6.397957408800721,4.066136509233713
1783696712144732200,1.615732177734375,-7.139780568742752,-6.44656098845005,4.174814326095581
1783696712154695200,1.625695068359375,-6.339223480281233,-6.375208985897898,4.162392066895961
1783696712164658400,1.635658447265625,-5.975188508081436,-6.115372054797411,4.4298473640456795
1783696712174621400,1.645621337890625,-5.600083275812864,-5.716743323600292,4.634807042054832
1783696712184584400,1.65558447265625,-4.730519871142507,-5.002777892398834,4.019971554908156
1783696712194547200,1.665547119140625,-3.1996441825717685,-3.9932004523605107,2.490844171309471
1783696712204509200,1.67550927734375,-1.6428326732337475,-2.8096543926432727,0.699046971271932
1783696712214472200,1.68547216796875,-0.9508908577919005,-1.7279408139377832,-0.4618044415563345
1783696712224435500,1.695435546875,-1.1862217086672782,-0.6082607849314808,-0.8014481920823454
1783696712234398500,1.7053984375,-1.5079735364109277,0.5221519427523017,-0.4601531672179699
1783696712244361200,1.715361328125,-1.3863403763860462,1.4363523615285754,-0.07967617878317833
1783696712254324200,1.72532421875,-0.9897183088362216,2.0889532234460115,0.010006722490489482
1783696712264287200,1.735287353515625,-0.35720483391880986,2.5697812221631406,-0.1516243936628103
1783696712274249200,1.745249267578125,0.4841302551329136,2.9934163843229413,-0.5181391999796032
1783696712284212200,1.755212158203125,1.6515069780766962,3.3477444937616583,-1.1049359027303756
1783696712294175200,1.76517529296875,2.878149544459581,3.527141860491037,-1.5719778065487742
1783696712304138200,1.77513818359375,3.7131554304897785,3.6886022962525487,-1.6736299625575541
1783696712314101200,1.785101318359375,4.193078297060728,3.5689456969976425,-1.8563146803945303
1783696712324064300,1.795064208984375,4.2172827639907595,3.236713976293802,-2.058116186633706
1783696712334027300,1.80502734375,4.0294016465544695,2.9747563997775313,-2.1241887874782086
1783696712343989200,1.8149892578125,3.8774674562901255,2.97707169098258,-2.2902917883485556
1783696712353952300,1.8249521484375,3.6901620929151773,3.0619752490252257,-2.4111099787287413
1783696712363915300,1.834915283203125,3.598083528676629,3.2204894022017716,-2.3407804510921237
1783696712373878300,1.844878173828125,3.559149110126495,3.3647301153540607,-2.169479589317739
1783696712383841300,1.85484130859375,3.760606917494535,3.4774072309851642,-1.878187781767547
1783696712393804300,1.86480419921875,3.9778497384935614,3.4374136587709185,-1.3903727006420492
1783696712403767300,1.874767333984375,3.94681864041388,3.0942250752449034,-1.0572192619834095
1783696712413729300,1.884729248046875,3.891246975317597,2.914884991660714,-1.1176416550464927
1783696712423692300,1.8946923828125,3.8852024344563483,3.273722979739308,-1.4048146291010082
1783696712433655300,1.9046552734375,3.865174376428127,3.659442545002699,-1.6179532296516
1783696712443618300,1.914618408203125,3.856016087460518,3.91643811519742,-1.5709963942959904
1783696712453581300,1.924581298828125,3.821598269551992,4.142193912997842,-1.2636403177820146
1783696712463544300,1.93454443359375,3.7993425986021756,4.231204906359315,-0.7769744066916405
1783696712473507000,1.944507080078125,3.5736359006404874,4.095711563286185,-0.31624592380374666
1783696712483469300,1.95446923828125,2.1462971589118243,3.6033056472390887,-0.14334332592114804
1783696712493432300,1.964432373046875,1.3054974919110536,2.6897686608076095,-0.37671295972615476
1783696712503395300,1.974395263671875,0.6144786365330219,1.811047551691532,-0.4688201655372977
1783696712513358300,1.9843583984375,0.13627660240530967,0.629046091067791,0.08012180365882814
1783696712523321000,1.994321044921875,0.5663870980590582,-0.7062760457426309,0.6781639769148081
1783696712533284000,2.0042841796875,0.6483259610772133,-2.378634673190117,1.4234449491605161
1783696712543247000,2.0142470703125,-0.5532032068371773,-4.50893112989366,2.144155032316595
1783696712553209300,2.024209228515625,-2.897758500292897,-6.4070250968754285,2.973345656196773
1783696712563172400,2.03417236328125,-4.73137151953578,-6.850847307017445,3.0353739500865338
1783696712573135400,2.04413525390625,-5.354244474926591,-6.583493424415588,2.7673344233080743
1783696712583098000,2.05409814453125,-5.441335313880443,-6.813745364591479,3.139776573847234
1783696712593061000,2.06406103515625,-5.446400196054578,-7.318094231888652,3.579238835214078
1783696712603024100,2.074024169921875,-5.283702619713544,-7.548796253919601,3.4592163252562282
1783696712612987400,2.0839873046875,-4.851115504813194,-7.558108272144198,3.386354210402071
1783696712622949400,2.093949462890625,-4.624382386413217,-7.382779177767038,3.5151860497593876
1783696712632912100,2.103912109375,-4.532992973482608,-6.662836425721645,3.562342645470798
1783696712642875100,2.113875244140625,-4.206151713645458,-5.329895046567916,3.1255250533938406
1783696712652838100,2.123838134765625,-3.820701028451323,-3.7098832769513126,2.2417188960984347
1783696712662801200,2.13380126953125,-3.528041439679265,-2.24291161301434,1.1033130507688969
1783696712672764400,2.143764404296875,-3.1594553800463676,-1.0940911219805478,-0.006344985112547874
1783696712682726100,2.15372607421875,-2.6437527595639225,-0.11627075620889663,-0.9756486477557569
1783696712692689200,2.163689208984375,-1.7767939844340086,0.8155892378985882,-1.8497215657398103
1783696712702652200,2.173652099609375,-0.6243231541991233,1.7136802333950996,-2.548407887005806
1783696712712615200,2.183615234375,0.6157675072997808,2.4677286686599254,-2.93812119808048
1783696712722578200,2.193578125,1.8085154028654098,3.101159842944145,-3.0080411220028993
1783696712732541400,2.20354150390625,2.910722611284256,3.7382062851160764,-2.9602000511586666
1783696712742504400,2.21350439453125,3.7942999282598495,4.34376804022193,-2.8411604147583245
1783696712752466200,2.223466064453125,4.411244078123569,4.780864741501212,-2.590829270888865
1783696712762429200,2.23342919921875,4.880374917045235,5.050258020976186,-2.3547759509578348
1783696712772392200,2.24339208984375,5.194394104710221,5.273373533400893,-2.2041429064199325
1783696712782355200,2.253355224609375,5.488624303799868,5.4492006404280655,-2.1090794811516997
1783696712792318500,2.263318359375,5.710825623989105,5.597831112971901,-2.005393627358228
1783696712802281200,2.27328125,5.918547752448916,5.722935163977742,-1.87755737490952
1783696712812244200,2.283244140625,6.063188278573751,5.798984384435415,-1.7203242014542222
1783696712822206200,2.293206298828125,6.166264037644863,5.73810175344944,-1.6377162070028484
1783696712832169200,2.303169189453125,6.1888084624081845,5.496252898982167,-1.7274026154078541
1783696712842132200,2.31313232421875,6.147837569594383,5.076165784692764,-1.9393096283368765
1783696712852095500,2.323095458984375,6.008069617941975,4.485344502601027,-2.4079139591664074
1783696712862058200,2.333058349609375,5.639887462934851,3.9543431906998157,-3.011248101350665
1783696712872021200,2.343021240234375,5.555614604011177,3.2142683357298374,-3.551488366240263
1783696712881983200,2.352983154296875,5.479434450650214,2.2183839054793117,-4.060815898732841
1783696712891946200,2.3629462890625,5.021472071474791,1.6063690287113188,-4.600305929777026
1783696712901909500,2.372909423828125,4.606640393495559,1.374479258200526,-5.278747043132782
1783696712911872500,2.38287255859375,4.561393723058701,1.058732223829627,-5.57043749461174
1783696712921835800,2.392835693359375,4.826390228879451,0.7004302423238754,-5.4451358752071854
1783696712931798800,2.402798828125,5.206632239514589,0.35304829876124855,-4.736234157136082
1783696712941761800,2.41276171875,5.160283160793781,-0.20159809262156486,-2.9837156590417027
1783696712951723500,2.4227236328125,4.125066252586246,-1.0668255139142275,-0.5805301897019147
1783696712961686500,2.4326865234375,1.9707944615334272,-2.2316613202035427,1.926073568536341
1783696712971649500,2.4426494140625,-1.2570043868988752,-3.829886789947748,4.066106698617339
1783696712981612800,2.45261279296875,-4.662462233960628,-5.330577183613181,5.0465270177543164
1783696712991575800,2.462575927734375,-7.302950438770651,-6.014101299321651,4.680981056469679
1783696713001538800,2.472538818359375,-9.901424379193783,-6.447840506866574,3.866743233180046
1783696713011501600,2.48250146484375,-12.80947806352973,-7.446673265528679,3.6736172008275982
1783696713021463600,2.492463623046875,-14.86717514796853,-8.374794073107838,3.6218592488005754
1783696713031426600,2.502426513671875,-14.90365515910387,-8.327683362364768,3.6103467979222534
1783696713041389800,2.512389892578125,-14.949152004909514,-8.275894722938537,3.579975917316973
1783696713051352800,2.522352783203125,-9.356458254826068,-9.317079015117884,2.6553829916030165
1783696713061315600,2.532315673828125,-7.430765502300858,-8.707196474203467,2.5004876134455203
1783696713071278600,2.542278564453125,-7.36086194499135,-8.07293878596723,3.1934733849823473
1783696713081241600,2.55224169921875,-8.387597440579533,-7.048261976474524,3.99727661575824
1783696713091203600,2.56220361328125,-8.858037608534097,-5.680118935558199,4.213741730383038
1783696713101166800,2.572166748046875,-8.40672065872252,-4.32442737993598,3.85780180183351
1783696713111129600,2.582129638671875,-6.935666693907976,-3.125975135248899,3.3495325462222096
1783696713121092600,2.592092529296875,-4.882825817328691,-2.0262837090432644,3.020850626954436
1783696713131055600,2.6020556640625,-2.904882653084397,-0.9986293450444936,2.9490976423859596
1783696713141018600,2.6120185546875,-1.2051315763205288,-0.03882248260825872,2.7868758668631313
1783696713150981600,2.621981689453125,0.3904033391654491,0.7015142381682992,2.278020189666003
1783696713160943900,2.63194384765625,1.9283008891969917,1.2779668031677602,1.3423369840085506
1783696713170906600,2.64190673828125,3.2070518284797664,1.6800529813423752,0.20601590906381606
1783696713180869600,2.65186962890625,4.079301695755124,1.9746406155675649,-0.9888820041425526
1783696713190832600,2.66183251953125,4.500239873915911,2.2613784130752084,-2.0314178570613266
1783696713200795600,2.671795654296875,4.753799039921164,2.5834476362049577,-2.713874343538284
1783696713210758700,2.681758544921875,4.981498957526684,2.9709011856541037,-3.0065856624975797
1783696713220720600,2.691720703125,5.196852603778242,3.3854029010266062,-3.062167556726932
1783696713230683600,2.70168359375,5.498510907042026,3.7517271532073613,-3.0446508969977497
1783696713240646700,2.711646728515625,5.728873906376958,4.086242016412317,-2.8222213210105895
1783696713250609700,2.721609619140625,5.861331242755055,4.383255124218762,-2.3718632793590424
1783696713260572700,2.73157275390625,5.904447330904007,4.572865549665689,-1.813338731368631
1783696713270535700,2.74153564453125,5.836304938048124,4.704977433606982,-1.3200076633006335
1783696713280498700,2.751498779296875,5.836310198745132,4.733951014634966,-1.1020905963018537
1783696713290460700,2.761460693359375,5.945155773389339,4.667878998312354,-1.167107550613582
1783696713300423700,2.771423583984375,6.292924670442939,4.45163015678674,-1.5636765728019177
1783696713310386700,2.78138671875,6.67321461187303,4.049800583721697,-1.9973264946281908
1783696713320349700,2.791349609375,6.903181889888644,3.6672324682265516,-2.26097056292668
1783696713330312700,2.801312744140625,6.885282660582662,3.393875838078558,-2.548321377766132
1783696713340275500,2.811275390625,6.867693227878212,3.516533957237005,-2.8789474168390035
1783696713350238500,2.821238525390625,6.8871203974038355,3.580239244428277,-2.876493593946099
1783696713360200700,2.83120068359375,6.8044929675996295,3.6257986340761184,-2.6337030747145413
1783696713370163700,2.841163818359375,6.731167619147897,3.7940555981099604,-2.2062463084399697
1783696713380126700,2.851126708984375,6.7626762716114515,3.8553599616393446,-1.7183952792182564
1783696713390089700,2.86108984375,6.75051938534975,3.723928168916702,-1.243671442595124
1783696713400052500,2.871052490234375,6.666067078205943,3.056433396989107,-0.6705277098827064
1783696713410015500,2.881015380859375,6.244853005713224,1.6540426340341567,0.32346433074995873
1783696713419977700,2.890977783203125,5.142480962121486,0.04687164129018783,1.648221380534768
1783696713429940700,2.900940673828125,3.632182782155275,-1.735264873215556,2.7723917066976425
1783696713439903700,2.91090380859375,2.7617537005662918,-3.545644900909066,3.0793127527952193
1783696713449866500,2.920866455078125,1.0009171637207268,-5.0643689639151095,2.453945057979226
1783696713459829500,2.93082958984375,-2.8790006083309647,-6.419631480470299,0.811231042689085
1783696713469792500,2.94079248046875,-8.932638383749127,-7.216040217080712,-1.2049389763578773
1783696713479755500,2.950755615234375,-14.859818355464935,-6.973246190717816,-2.8976252293020486
1783696713489717800,2.9607177734375,-18.503743013340234,-6.5102335424155,-2.8344936503455043
1783696713499680500,2.970680419921875,-18.47958004746437,-6.578413344672322,-2.9347055444180965
1783696713509643500,2.9806435546875,-18.470429941803214,-6.627901890462637,-3.048969636979699
1783696713519606500,2.9906064453125,-18.46316784184575,-6.67549074011147,-3.157736885690689
1783696713529569500,3.000569580078125,-18.451279835653303,-6.7276581497222185,-3.2479888190239667
1783696713539532500,3.010532470703125,-18.433953437799214,-6.781088711136579,-3.3093326377809045
1783696713549495800,3.020495849609375,-9.208537391856312,-4.162010081841052,6.542163050639629
1783696713559457500,3.03045751953125,-7.162578091484308,-4.442091051807999,5.304813796803355
1783696713569420500,3.040420654296875,-5.030553203552961,-4.404862268131971,3.2828169712990523
1783696713579383600,3.050383544921875,-3.5813416527122257,-4.057957294431328,1.3782752894826233
1783696713589346600,3.0603466796875,-2.715788068205118,-3.4948034792050717,0.05972410860061645
1783696713599309600,3.0703095703125,-1.783801817369461,-2.883996809183061,-0.8391436434220522
1783696713609272800,3.08027294921875,-0.7843330988913774,-2.3675682125136257,-1.4946910071201622
1783696713619234600,3.090234619140625,0.36993279806673524,-1.8243252586767076,-1.9248320440426467
1783696713629197600,3.100197509765625,1.7558868054836987,-1.1210706065818667,-2.120894860499352
1783696713639160600,3.11016064453125,3.1349305951207875,-0.23066256680339572,-2.2564055930987
1783696713649123600,3.12012353515625,3.879143865069747,0.6983806163176893,-2.3775194054245947
1783696713659086600,3.130086669921875,3.932098041144013,1.504919994059205,-2.311380607476085
1783696713669049900,3.1400498046875,3.9115263777583835,2.2810110420450567,-2.0918118277475237
1783696713679012600,3.1500126953125,4.20336997397244,3.056485711698234,-1.8094988609448075
1783696713688974600,3.159974609375,4.644655359113216,3.7164860362172125,-1.556056307056546
1783696713698937600,3.1699375,5.137095177429914,4.065009258769452,-1.306097942022234
1783696713708900600,3.179900634765625,5.488006464162469,4.105852433550358,-1.1601942640937863
1783696713718863600,3.189863525390625,5.805177393856645,3.785879890438914,-1.0014096234127878
1783696713728826600,3.19982666015625,6.051941492894292,3.2249636250063776,-0.7793423048667609
1783696713738789600,3.20978955078125,6.229182558372616,2.7445553130060434,-0.6161576756611467
1783696713748751600,3.219751708984375,6.431745696634054,2.4245240254446863,-0.4794941197648644
1783696713758714600,3.229714599609375,6.7093585229218,2.157751742123067,-0.36075682731196285
1783696713768677600,3.239677734375,7.048367190414667,1.8884537397161125,-0.4489548968553543
1783696713778640600,3.249640625,7.303132809600234,1.8388880370363592,-0.7716831684157252
1783696713788603600,3.259603759765625,7.540446943247318,1.9518764105737207,-1.0190693448744714
1783696713798566700,3.269566650390625,7.654801636701822,1.8701874306634068,-1.2073399000197649
1783696713808529700,3.27952978515625,7.588917251905799,1.8578876287996768,-1.31179410783723
1783696713818491600,3.28949169921875,7.435534616398811,1.965369221614301,-1.2940841174930333
1783696713828454700,3.29945458984375,7.073201771941781,2.1336218017339705,-1.1138587755069136
1783696713838417400,3.30941748046875,6.624820875582099,2.277724567720294,-0.9395790440522134
1783696713848380700,3.319380615234375,5.9136161412656305,2.3735712523207066,-0.7756206539951265
1783696713858343700,3.32934375,4.3239843123435975,2.3228578409105536,-0.5427634997569024
1783696713868306700,3.339306640625,2.6320693360328673,1.8471084606319665,-0.18944310605600476
1783696713878269700,3.349269775390625,0.028145898032188414,1.265069327671826,0.3553713348813355
1783696713888231700,3.359231689453125,-3.0760563813477755,0.6561863191887736,0.942985345364362
1783696713898194400,3.3691943359375,-6.303074893057346,-0.19119097263664006,1.7121521470449863
1783696713908158000,3.379157958984375,-9.098849521169067,-1.5593471652954816,2.29498798334077
1783696713918121200,3.389121337890625,-10.595158338749409,-2.9217101615056396,2.1128587074294685
1783696713928084000,3.399083984375,-11.1730657787323,-3.746817753855884,1.0877375882353633
1783696713938047000,3.409046875,-11.21301200467348,-3.6920790324524044,1.0280524234056472
1783696713948009000,3.419009033203125,-11.258284394073486,-3.646460021571815,0.9084497462950646
1783696713957972000,3.428971923828125,-11.314172870033978,-3.5979403208136556,0.7522459158875048
1783696713967935000,3.43893505859375,-11.38050909025073,-3.5380069533765313,0.5963473520368338
1783696713977898200,3.448898193359375,-9.079168084621429,-7.681738158944249,1.8441314906477928
1783696713987861000,3.458861083984375,-5.786669677263498,-6.487059003055095,0.1943871383294463
1783696713997824000,3.468823974609375,-3.7556302981257437,-5.669363732787966,-0.48354894811362026
1783696714007787000,3.478787109375,-3.4426661724716423,-5.405815672209859,0.038352234748005865
1783696714017749000,3.4887490234375,-4.061151122036576,-4.6844706521511075,0.7440230080738663
1783696714027712000,3.4987119140625,-4.42310285822153,-3.2968788143992422,0.9752803259000181
1783696714037675000,3.508675048828125,-4.077228396612406,-1.714721559141576,0.7028732515618205
1783696714047638000,3.518637939453125,-3.2241642913222313,-0.2961681814149022,0.28797172321677206
1783696714057601000,3.52860107421875,-2.030191822397709,0.8504828566253185,0.024249621246010062
1783696714067564000,3.53856396484375,-0.5824298858433962,1.7462416097819804,-0.013916589410603046
1783696714077526000,3.548526123046875,1.0414648626863956,2.3942814473941922,0.12252251008003949
1783696714087489000,3.558489013671875,2.5167186172783373,2.8544880983650684,0.17697496188804507
1783696714097452000,3.5684521484375,3.8122114325255154,3.2256656357958913,-0.0719036450855434
1783696714107415000,3.5784150390625,4.958507958039641,3.40321649787575,-0.6412719509124756
1783696714117378000,3.5883779296875,5.788115199896693,3.398533600756526,-1.2778785403624175
1783696714127341000,3.598341064453125,6.327588572067022,3.336458252854645,-1.8474927837744355
1783696714137304000,3.608303955078125,6.62899669996202,3.225123784004152,-2.287343752197921
1783696714147265800,3.618265869140625,6.735638042560219,3.090807960277796,-2.6139973805084824
1783696714157229000,3.62822900390625,6.804206551873683,2.962136572179198,-2.807477925387025
1783696714167192000,3.638192138671875,6.947579834541678,2.87600727173388,-2.903248914402723
1783696714177155000,3.648155029296875,7.088933594080805,2.8781305474981664,-2.8900118316888808
1783696714187118000,3.6581181640625,7.23881552799046,2.9659613911643623,-2.8679397006124256
1783696714197081000,3.6680810546875,7.49484312993586,3.0232056656479833,-2.7455057455986736
1783696714207042800,3.678042724609375,7.711762125808,2.929368859565258,-2.6540187175124883
1783696714217006000,3.688006103515625,7.9108128720343105,2.7463194000691176,-2.6742686015978454
1783696714226969000,3.697968994140625,7.867421474075317,2.542968910822272,-2.459567866297066
1783696714236932000,3.70793212890625,7.671804209429025,2.3769231930971144,-2.316921144337952
1783696714246895000,3.71789501953125,7.581171167823672,2.3836557162225245,-2.4889257704675196
1783696714256858000,3.727858154296875,7.25313923689723,2.5495102952897546,-2.5276170279115435
1783696714266820900,3.73782080078125,6.700014355993271,2.598694012914598,-2.40021609814018
1783696714276783000,3.747783203125,6.065916242232919,2.548887194955349,-2.1981638320103287
1783696714286746000,3.75774609375,5.412623598659038,2.5481857686877247,-1.9845538145557045
1783696714296709000,3.767709228515625,4.6654888883054255,2.623509305219352,-1.632376161149144
1783696714306672000,3.777672119140625,3.71982891690433,2.834223601232469,-1.2959729999795555
1783696714316635000,3.787634765625,2.615583480656147,2.7803669233605266,-0.7672016390874982
1783696714326598000,3.797597900390625,1.2211392927914857,2.2065192801624534,-0.16051730969250202
1783696714336561000,3.807560791015625,-0.6454489443361758,0.9575611293360591,0.6109153910934925
1783696714346523100,3.817523193359375,-2.8802111531645056,-0.9331029799059033,1.4077563816413283
1783696714356486100,3.827486083984375,-4.902133159866929,-3.0759423995792865,2.1084832688242194
1783696714366449200,3.83744921875,-6.465041817036271,-5.00144342892468,2.5159347734242674
1783696714376412000,3.847411865234375,-7.2276698645979165,-5.687657514369487,2.133031726886332
1783696714386375000,3.857375,-7.880007983925938,-5.246117862206697,1.4474389882102607
1783696714396338000,3.867337890625,-9.432071421954035,-4.594151206539571,1.2489713025689124
1783696714406301000,3.877301025390625,-11.500668086069822,-4.006063441064954,1.773792464530468
1783696714416263200,3.88726318359375,-12.996674705833195,-3.7058310789510607,2.6987936787843703
1783696714426226000,3.897225830078125,-12.964113329446315,-3.7458246511653064,2.7621827396333214
1783696714436189000,3.90718896484375,-12.930414473462104,-3.7807261609375473,2.8402257642567155
1783696714446152000,3.91715185546875,-12.89336279991865,-3.822053904365003,2.926028316965699
1783696714456115000,3.927114990234375,-12.853603620982168,-3.874220144931972,3.011589462134242
1783696714466078000,3.937077880859375,-12.81440090688467,-3.9335537929102777,3.089184742990136
1783696714476041000,3.947041015625,-12.77937284812331,-3.9943396855235096,3.1509634460330007
1783696714486003000,3.9570029296875,-8.870549884104728,-2.2187746583625674,4.122496694359183
1783696714495966000,3.966966064453125,-7.024108362948894,-2.086574511615932,3.6491409312188625
1783696714505929000,3.976928955078125,-5.2526843811154365,-1.910588414634764,3.1529058122724294
1783696714515892000,3.98689208984375,-3.754885617238283,-1.6543097605377435,2.818680871924758
1783696714525855000,3.99685498046875,-2.4794524242013694,-1.3781974019408225,2.535105922362208
1783696714535818000,4.00681787109375,-1.1935913606524466,-0.9836471722289919,2.1150744837827977
1783696714545781000,4.016781005859375,0.29959143386185166,-0.4383750506520271,1.6336783297888933
1783696714555743000,4.026742919921875,1.8317291051924227,0.3059817194208503,1.1991478257358072
1783696714565706000,4.0367060546875,3.4044361027985808,0.8576067171558738,0.7682260867644101
1783696714575669000,4.0466689453125,4.690626836693287,1.1991419805169106,0.31028789218217134
1783696714585632000,4.056632080078125,5.499305856812,1.6344173115879297,0.09769640412032604
1783696714595595000,4.066594970703125,6.209633808293939,2.0939351035118103,0.009521057865396141
1783696714605558000,4.07655810546875,6.689102501356602,2.370349952186644,-0.13463694543950258
1783696714615521000,4.08652099609375,6.906566271629929,2.575176359204948,-0.2251335011836141
1783696714625483000,4.09648291015625,7.0775687349796295,2.6303642856806517,-0.3645023705158382
1783696714635446000,4.106446044921875,7.143350243923067,2.602024326381087,-0.5121799993142485
1783696714645409000,4.116408935546875,7.182967968562245,2.5255758774727584,-0.7278822398077696
1783696714655372000,4.1263720703125,7.109993917766213,2.366936928872764,-0.9377912838526069
1783696714665335000,4.1363349609375,6.852194045451283,2.1239014949694273,-1.0186797610349954
1783696714675298000,4.146298095703125,6.564743131238222,1.8996642850384116,-1.091932701837644
1783696714685260000,4.156260009765625,6.434036437919736,1.765875407795608,-1.190589110096544
1783696714695223000,4.16622314453125,6.418916610199212,1.629811863619089,-1.2246034617707133
1783696714705186000,4.17618603515625,6.436127272719144,1.565387029981613,-1.1817695515640079
1783696714715148800,4.186148681640625,6.559630902791023,1.6372469820559024,-1.2254017725415527
1783696714725112000,4.196112060546875,6.731918145254254,1.78152802721858,-1.256029404386878
1783696714735075000,4.206074951171875,6.716120272141695,2.210100353519618,-1.2749258280366658
1783696714745038000,4.2160380859375,6.647671589815616,2.448506958578527,-1.531654563988745
1783696714755000000,4.226,6.338955184733868,2.5958734025359154,-1.8619653996326029
1783696714764962800,4.235962890625,5.36282525626719,2.7104063751667735,-2.0232097084254024
1783696714774925800,4.24592578125,4.093208056032657,2.273844803677499,-1.8045842008963227
1783696714784889000,4.25588916015625,2.8612591999351977,1.2579668021902441,-1.3735481148302555
1783696714794852000,4.26585205078125,1.7602040841609239,-0.017747253614664078,-0.7741068153660744
1783696714804815000,4.275815185546875,0.05843289974629878,-1.3278098614841698,-0.13183357845656574
1783696714814778000,4.285778076171875,-2.5964351280719042,-2.7085993257448076,0.21330182828828692
1783696714824739800,4.29573974609375,-5.91770194927454,-3.743771518027782,0.5370093201443553
1783696714834702800,4.305702880859375,-9.037620853224396,-4.268322923137247,0.6406809262167662
1783696714844666000,4.315666015625,-11.310673922002314,-4.4821761016979815,0.540381719186902
1783696714854629000,4.325629150390625,-13.018069376039504,-4.880727968266606,0.4330559745211154
1783696714864592100,4.335592041015625,-13.053249410492182,-4.794117314045131,0.49977224356401706
1783696714874555100,4.34555517578125,-13.0960726531744,-4.699081945827603,0.5334610165456309
1783696714884518000,4.355517822265625,-13.139150747400521,-4.610846028491855,0.5320846866911277
1783696714894480000,4.36547998046875,-13.173612988972662,-4.5456507950037714,0.5027653609653935
1783696714904442000,4.375442138671875,-9.780531808403135,-5.005394212377071,-0.6486174183044582
1783696714914405000,4.385405029296875,-8.975089870509505,-4.863836454698443,-0.45270482397340234
1783696714924368100,4.3953681640625,-8.600672035983205,-4.828917409269511,0.053060778253898024
1783696714934331000,4.405330810546875,-8.274629817569256,-4.7456733088716865,0.5134213046122342
1783696714944294000,4.4152939453125,-7.48190006173253,-4.409035462163389,0.641732700292021
1783696714954257000,4.4252568359375,-6.246560978674888,-3.7777278559044003,0.37629203090034424
1783696714964219100,4.43521923828125,-4.8251866983085865,-2.7777038416311144,-0.2794968864686787
1783696714974182100,4.44518212890625,-3.3267426222652197,-1.748681988671422,-0.8368052636023611
1783696714984145200,4.455145263671875,-1.793936257892847,-0.9913809813514352,-0.9380609676394611
1783696714994108000,4.46510791015625,-0.2730325127601623,-0.32234365615695715,-0.7938226656399667
1783696715004071000,4.47507080078125,1.2629916446149347,0.38066871161460875,-0.6268496039368212
1783696715014034000,4.485033935546875,2.890420412489772,1.2128700616180896,-0.5625755404142663
1783696715023997200,4.4949970703125,4.45536846653223,2.0911440114885567,-0.5118607042320072
1783696715033959200,4.504959228515625,5.725729763132334,2.9152459339275953,-0.5634629907732829
1783696715043922000,4.514921875,6.5448109347999095,3.61988327255249,-0.7520661754064262
1783696715053885000,4.524885009765625,6.92957889842689,4.096357167713344,-0.97703462222144
1783696715063848000,4.534847900390625,7.041202121090889,4.364624073506891,-1.1484437666758893
1783696715073811000,4.54481103515625,7.067900158402323,4.598773021121323,-1.323441729402542
1783696715083774200,4.554774169921875,7.005982339149713,4.809993805351853,-1.4536474874615668
1783696715093737200,4.5647373046875,6.784110689306258,4.836722237801552,-1.4192837378278373
1783696715103699000,4.574698974609375,6.43225598424375,4.525685865339637,-1.1428585138894616
1783696715113662000,4.584661865234375,6.040768356972932,4.054533749723435,-0.770248313307017
1783696715123625000,4.594625,5.73621900844276,3.645615971963107,-0.6051438219547272
1783696715133588000,4.604587890625,5.646406635570526,3.3635841601893306,-0.7084145190760492
1783696715143551200,4.61455126953125,5.825104329597949,3.2046760392591356,-0.9884612945124507
1783696715153514200,4.62451416015625,6.277149593684077,3.325866716213524,-1.3767695610947905
1783696715163477000,4.63447705078125,6.646113838979601,3.653349196563661,-1.6920223822079599
1783696715173439000,4.64443896484375,6.822101105004549,3.9134433172956107,-1.798460749579966
1783696715183402000,4.654402099609375,6.7284758958458895,3.9581092652350662,-1.8525486058592795
1783696715193365000,4.664364990234375,6.401394397512078,3.8442841486126182,-1.9565458636894821
1783696715203328300,4.674328369140625,5.845355674988031,3.764761114564538,-2.046029589129239
1783696715213291300,4.684291259765625,5.003657013320923,3.6334538250043984,-1.861028995565325
1783696715223254000,4.69425390625,4.167656271034479,3.252007407015562,-1.361511932338774
1783696715233217000,4.704217041015625,3.6156139246702192,2.611277307894826,-0.7017348951816559
1783696715243179000,4.714178955078125,3.2618606925100084,1.8584657209485769,0.05132920522093773
1783696715253142000,4.72414208984375,2.826376102602482,1.0412433288902043,0.684089640636742
1783696715263105300,4.734105224609375,2.061508167159557,0.2253156528174877,1.1013738263346253
1783696715273068000,4.744068115234375,0.8623685247302055,-0.5814344450652599,1.3827607643336057
1783696715283031000,4.754031005859375,-0.7374947753489017,-1.4603180512666702,1.6714064412891865
1783696715292994000,4.763994140625,-2.3626088365405797,-2.176419325453043,1.7601172826603053
1783696715302957000,4.77395703125,-4.003582145643234,-2.612662624773383,1.381329854747653
1783696715312920000,4.783920166015625,-5.964524490725994,-3.0436048950761556,0.7208782793298363
1783696715322882000,4.793882080078125,-8.57255594856739,-4.248878510215878,0.537986567678675
1783696715332845000,4.803844970703125,-11.078287892407179,-5.930372045755386,0.5465423607084899
1783696715342808000,4.81380810546875,-11.713098538351058,-7.019697560769319,0.7093901591751725
1783696715352771000,4.82377099609375,-10.093031823676824,-7.3839815392941235,1.6761474983364342
1783696715362734000,4.833734130859375,-7.724378446274995,-6.860516468116641,2.647338509096205
1783696715372697000,4.843697021484375,-5.840740290147066,-5.695846081522107,3.021854251039028
1783696715382660000,4.85366015625,-4.892932785323262,-5.123166020798683,3.434373268161714
1783696715392622000,4.8636220703125,-4.789084872835875,-5.329536150127649,3.9959968050807713
1783696715402585000,4.873585205078125,-4.909779290705919,-5.350948355990648,3.9053511962547898
1783696715412548000,4.883548095703125,-4.572017992925644,-4.427138981869817,2.8025863539531826
1783696715422511000,4.893510986328125,-3.882184547939896,-3.0326123764187094,1.2758876588061452
1783696715432474000,4.90347412109375,-3.024724838039279,-1.8447499148070812,0.08278960722913034
1783696715442436900,4.913436767578125,-2.128551658862829,-1.0620961473047732,-0.49498212321065366
1783696715452399900,4.92339990234375,-1.4721487743139265,-0.42409868801832196,-0.7293490244247018
1783696715462362000,4.933362060546875,-0.8570838623255491,0.34460955623984335,-0.8199366194531321
1783696715472325000,4.9433251953125,-0.0903472104012966,1.0724188038766385,-0.6760260881032795
1783696715482288000,4.9532880859375,0.8162801427721976,1.657276209127903,-0.3705102326285094
1783696715492251100,4.963251220703125,1.7432143709152936,2.1906407430291175,-0.003433116253837943
1783696715502214000,4.9732138671875,2.50625099927783,2.672632232567668,0.2513749538339674
1783696715512177000,4.983177001953125,2.932335892677307,3.0397233774676917,0.3292044087719172
1783696715522139100,4.99313916015625,3.0484061578780413,3.3038866473346946,0.36238406318761407
1783696715532102100,5.00310205078125,3.0333155562520027,3.3326866253614424,0.345768370886147
1783696715542065200,5.013065185546875,2.985791004011035,3.2182515601471064,0.3008143267203122
1783696715552028000,5.02302783203125,2.9889111818581817,3.072209350530803,0.2477380586363375
1783696715561991000,5.032990966796875,3.0885481986522674,2.9218536616295574,0.25606559586822986
1783696715571954000,5.042953857421875,3.27206001496315,2.819453025341034,0.23858473810479044
1783696715581917000,5.0529169921875,3.5151603307962414,2.773741660001874,0.16145590571686624
1783696715591879200,5.062879150390625,3.8577825126111507,2.8259920717209575,0.0973755016028881
1783696715601842200,5.07284228515625,4.2434477173388006,2.8893285255998373,0.058437283660471434
1783696715611805000,5.082804931640625,4.69022819276452,2.9365368514984844,0.04797054244279861
1783696715621768000,5.092767822265625,5.1669700912117955,3.0408167256623506,0.0662843438990414
1783696715631731000,5.10273095703125,5.58067598003149,3.2129274425148964,0.1420778360299766
1783696715641694000,5.11269384765625,5.837368183365464,3.4220015701055524,0.2618514857932925
1783696715651657200,5.1226572265625,5.999321663340925,3.6515427316635845,0.3336673064649105
1783696715661619000,5.132618896484375,6.125392513552308,3.833273509776592,0.32144203114211556
1783696715671582000,5.14258203125,6.147773272186518,3.8904344898909327,0.25645649488195776
1783696715681545000,5.152544921875,6.222043208011985,3.7386037600010633,0.2339878387685865
1783696715691508000,5.162508056640625,6.307684432679414,3.5355525459617376,0.25484244728144256
1783696715701471000,5.172470947265625,6.370501246598362,3.277736891555786,0.4318518228957429
1783696715711434200,5.182434326171875,6.204906195250153,2.842824548578262,0.9085969727460295
1783696715721397200,5.192397216796875,5.345622192531824,2.1174971808850764,1.4485083710074425
1783696715731359000,5.20235888671875,3.355155646800995,1.124773845013976,1.7915287583597004
1783696715741322000,5.212322021484375,0.3460755371391773,-0.4317109165877104,2.027073836507648
1783696715751285000,5.222284912109375,-2.8821342301815744,-2.8531857835948466,2.051477625402063
1783696715761248000,5.232248046875,-5.341643936550617,-5.917543543842434,1.7644091346353292
1783696715771211300,5.242211181640625,-6.6798857602000234,-8.631390414851904,0.8964197012834251
1783696715781174000,5.252174072265625,-7.275192078751325,-10.129205545341968,-0.08605287420824169
1783696715791137000,5.262136962890625,-8.0040452824831,-10.508770679628848,-0.27613040571026504
1783696715801099000,5.27209912109375,-9.49472515426576,-10.01463224070072,0.19437785904444754
1783696715811062000,5.28206201171875,-10.921807875406742,-8.892191222548485,0.9295906609360128
1783696715821025000,5.29202490234375,-11.166556542968749,-7.641385105767846,1.848741030269861
1783696715830988300,5.30198828125,-10.165765051454304,-6.328197059354186,2.5057816282004115
1783696715840951000,5.311950927734375,-8.858974012601376,-4.554030500814318,2.6138416054248808
1783696715852782000,5.323781982421875,-8.051856250450015,-2.652286779153347,2.735809111970663
1783696715862745000,5.3337451171875,-8.28838654024303,-1.7778776880174874,2.839913629567623
1783696715872707000,5.34370703125,-8.826509082326293,-1.4315800325602293,2.679094414319098
1783696715882670000,5.353670166015625,-8.770914036354423,-1.471637317660451,2.174164240002632
1783696715892633000,5.363633056640625,-7.6468445402175185,-1.6057903520405292,1.403476804625988
1783696715902596000,5.37359619140625,-5.863658224397898,-1.6005664799124002,0.4847608811866492
1783696715912558800,5.383558837890625,-3.864062615793943,-1.3196405835539102,-0.35488154207039624
1783696715922521900,5.39352197265625,-1.8759996240735053,-0.8564677762538194,-0.8995676439203322
1783696715932483800,5.40348388671875,0.0648375060915947,-0.35401217535734175,-1.0412627642430365
1783696715942446800,5.41344677734375,1.9041864386379717,0.19460662629902362,-0.9380655707493424
1783696715952409900,5.423409912109375,3.459682773724198,0.8147621394246816,-0.853402543464303
1783696715962372900,5.433372802734375,4.570530969238281,1.5107172821611166,-0.7366102475993335
1783696715972335900,5.4433359375,5.292075895783305,2.1870482714951036,-0.4808760756425559
1783696715982299000,5.453298828125,5.716207901549339,2.8137545214384794,-0.2800652426748536
1783696715992262000,5.463261962890625,5.975298982718587,3.4105636457681654,-0.21433778373990206
1783696716002223900,5.473223876953125,6.105307172378898,3.9329724858909842,-0.2045943883607164
1783696716012187000,5.483186767578125,6.1140761697679755,4.309374187710881,-0.199493064900022
1783696716022150000,5.49314990234375,6.049469549822807,4.520176746529341,-0.24996148857316
1783696716032113000,5.50311279296875,5.898072535175085,4.6587563651800155,-0.32791747423391787
1783696716042076000,5.513075927734375,5.728948725178838,4.718611406683921,-0.3433027479575947
1783696716052039000,5.523038818359375,5.60753300729692,4.711385839344561,-0.2970707928104326
1783696716062002000,5.533001953125,5.562717714014649,4.632780504663288,-0.2032903382911347
1783696716071964000,5.5429638671875,5.556484957104921,4.5287326856896275,-0.10780556407198309
1783696716081927000,5.552927001953125,5.623464151400327,4.397943574784696,-0.13466357771810145
1783696716091890000,5.562889892578125,5.704540844631195,4.318009037326276,-0.2540088825341314
1783696716101853000,5.57285302734375,5.7434062895983455,4.3089743747383356,-0.4527241862609982
1783696716111816000,5.58281591796875,5.809481228530407,4.366140907810628,-0.6930430546820163
1783696716121779000,5.592779052734375,5.921802370330691,4.474424756918848,-1.0039024631418287
1783696716131741000,5.602740966796875,5.886419506782293,4.605699605514109,-1.3232917995378375
1783696716141704000,5.612703857421875,5.797103392994403,4.721351645302772,-1.5508661910675465
1783696716151667000,5.6226669921875,5.678409209030867,4.892839261820912,-1.7870763089954853
1783696716161630000,5.6326298828125,5.609587601739168,5.096144158360362,-1.900257136365026
1783696716172215000,5.643215087890625,5.715076851692795,5.196034857654571,-1.802197159629315
1783696716182177800,5.653177734375,5.855893435615301,5.048014041441679,-1.5586680969901383
1783696716192140800,5.663140869140625,5.808022261893749,4.525599940621853,-1.2099968442693352
1783696716202103800,5.673103759765625,5.611906400075554,3.799196468129754,-0.7503396438747644
1783696716212066800,5.68306689453125,5.465175039151311,2.8898399822533127,0.06336100379824638
1783696716222029800,5.69302978515625,5.301486113685369,1.8921283365756272,0.9597858196482062
1783696716231991800,5.70299169921875,4.89392588801384,0.6262129134684801,1.548583486957848
1783696716241954800,5.712954833984375,3.9703696118712424,-0.8239572532713413,1.8568752368867396
1783696716251917800,5.722917724609375,1.432811035659909,-2.1089739749506116,1.6922551680505276
1783696716261880800,5.732880859375,-3.1051988892018794,-2.8281720461085436,1.1717974619954823
1783696716271843800,5.74284375,-7.963546098834276,-3.2931633010074495,1.253369829788804
1783696716281806800,5.752806884765625,-12.598742724728584,-3.2675004519626496,1.473425662381947
1783696716291768800,5.762768798828125,-15.744800863063334,-2.3628055281564593,1.8260829159989953
1783696716301731800,5.77273193359375,-16.320585319542882,-1.4463330727949737,2.495937402795255
1783696716311694800,5.78269482421875,-15.726993988215922,-1.7614026462957262,3.0616797732099887
1783696716321657900,5.792657958984375,-14.831864180612563,-3.055151832745969,3.3663127083703874
1783696716331620900,5.802620849609375,-14.481405898344516,-4.534032837924361,3.102663525505364
1783696716341584000,5.812583984375,-14.658486804825067,-5.556746238389611,2.418871406510472
1783696716351547000,5.822546875,-14.623706583344935,-5.850630400520563,1.382415019635856
1783696716361508900,5.8325087890625,-13.850945264303684,-5.618040372785925,0.48930970359742637
1783696716371472000,5.842471923828125,-12.085880880630016,-5.217601961818337,0.10328618695139884
1783696716381435000,5.852434814453125,-9.720693133512139,-5.057738732120394,0.2783405560404062
1783696716391398000,5.86239794921875,-7.639374934989213,-5.028161924502253,0.8137637760370969
1783696716401361000,5.87236083984375,-6.382695542261004,-4.857343001025915,1.806513999915123
1783696716411324000,5.882323974609375,-5.458859864655137,-4.068869733589888,2.579068690468371
1783696716421287000,5.892286865234375,-4.367888335999846,-2.878175847944617,2.8833038584828374
1783696716431249000,5.902248779296875,-3.2377561788231133,-1.7451066144026814,2.9863936460793017
1783696716441212000,5.9122119140625,-2.2339877173244953,-0.3975346158174798,2.882737456771731
1783696716451175000,5.9221748046875,-1.2755728937685489,1.1562864430002868,2.6791516974642873
1783696716461137700,5.9321376953125,0.02198737540245056,2.2558830305293203,2.3469395582437516
1783696716471101000,5.942100830078125,1.4164876773685215,2.8170331047177313,1.7256933272719381
1783696716481064000,5.95206396484375,2.3299492604762313,3.0205215411305426,0.8510805302575231
1783696716491027000,5.96202685546875,3.458345387640595,2.8330115950942036,0.054961424243450165
1783696716500989000,5.971989013671875,4.8255076008260245,2.4973668510764835,-0.5955224455200135
1783696716510952000,5.981951904296875,5.92616816432476,2.155065279518068,-1.089660299926251
1783696716520914700,5.991914794921875,6.855491917952895,1.7896281854353844,-1.391290400008857
1783696716530878000,6.0018779296875,7.561202731028199,1.5419383498549462,-1.4085203517511486
1783696716540841000,6.011841064453125,7.993792184016108,1.4677832725808024,-1.2173057059779762
1783696716550804000,6.021803955078125,8.294677749341727,1.6351617002144454,-0.9958061043173074
1783696716560766000,6.031765869140625,8.509652625408767,1.9895967771589755,-0.8151023311644792
1783696716570728700,6.041728759765625,8.7418235509485,2.357047987543046,-0.7216688451856375
1783696716580691700,6.051691650390625,8.780990609210729,2.7715020643815396,-0.8214210127919912
1783696716590655000,6.061655029296875,8.543124102377892,3.139873312219977,-1.0875418464675546
1783696716600618000,6.071617919921875,8.080236541759968,3.3742642518967387,-1.4618825241044162
1783696716610581000,6.0815810546875,7.326407302203774,3.4936154384642837,-1.8365629550896585
1783696716620544000,6.0915439453125,6.339413449895382,3.5363153470277786,-2.3185778255037963
1783696716630505700,6.101505615234375,5.258688005444407,3.45179961925894,-2.760579980611801
1783696716640468700,6.11146875,4.4682010600984094,3.0343840622663496,-2.9646880102276802
1783696716650431700,6.121431640625,3.835024737358093,2.1465295063629743,-2.6282667288795114
1783696716660395000,6.13139501953125,3.226225900027156,0.9298884017735719,-1.6031366226613522
1783696716670358000,6.14135791015625,2.701791107034683,-0.42467853373289105,-0.2228898869752884
1783696716680321000,6.151321044921875,2.2554846788614986,-1.6293945149898528,1.1318781240612268
1783696716690283800,6.16128369140625,1.7629262026011943,-2.4627388975486157,1.8781214385330676
1783696716700245800,6.171245849609375,0.9233984552323817,-2.513929278820753,1.309732353001833
1783696716710208800,6.181208740234375,-0.9202046276271343,-2.4460595654264092,-0.20740648663938044
1783696716720172000,6.191172119140625,-4.058032697755098,-3.115011842685938,-1.6565139925837515
1783696716730135000,6.201135009765625,-7.981779674661159,-4.637952938865125,-2.1464850826993582
1783696716740098000,6.21109814453125,-11.068268018174171,-6.5250704615414135,-1.3746525689408182
1783696716750060800,6.221060791015625,-12.362630952608585,-7.622229738920927,0.017535656690597534
1783696716760023800,6.23102392578125,-11.558492498528956,-7.101735207986831,1.2306918417736887
1783696716769985800,6.24098583984375,-9.382702118629217,-5.676323050406575,1.8523191810175776
1783696716779949000,6.250948974609375,-7.109766538751125,-4.563806921680271,2.0526661045342682
1783696716789912000,6.260912109375,-5.471165219476819,-3.905383929480612,2.3160768024682996
1783696716799874800,6.270874755859375,-4.699941777527332,-3.6482960048273205,3.1357679227277635
1783696716809837800,6.280837890625,-4.289502781549096,-3.3870506682336328,4.026732135084271
1783696716819800800,6.29080078125,-3.567620001351833,-2.5994875013798473,4.100254175151885
1783696716829762800,6.3007626953125,-2.552266900521517,-1.5436737953454256,3.3654029000490904
1783696716839726000,6.31072607421875,-1.7036837400376796,-0.7721691983669996,2.378397941824794
1783696716849688800,6.320688720703125,-1.1315408549308776,-0.31210137134492394,1.3585489908799528
1783696716859651800,6.33065185546875,-0.6568617342323064,-0.03606500059366226,0.44264878244847056
1783696716869614800,6.34061474609375,-0.1256657765418291,0.15858751067370175,-0.35424510733038184
1783696716879577900,6.350577880859375,0.4367360512733459,0.46585137885957956,-1.046076448135078
1783696716889540900,6.360540771484375,1.1129501362293959,0.898079743450135,-1.626473659107089
1783696716899503000,6.370503173828125,1.9373089560389518,1.3843829587079584,-1.950977123646438
1783696716909466000,6.380466064453125,2.7903537721067666,1.8625680417008696,-2.0176091119393704
1783696716919429000,6.39042919921875,3.5621196503698824,2.3512090522564946,-1.88438342153728
1783696716929392000,6.40039208984375,4.339948774194717,2.812791229364276,-1.6839719083517788
1783696716939355100,6.410355224609375,5.00442741317153,3.208949771055579,-1.6101535156860947
1783696716949318100,6.420318115234375,5.600653184655308,3.4707512802273035,-1.6390730284392834
1783696716959281000,6.430281005859375,6.13676438691616,3.6000799631908533,-1.7889853574872017
1783696716969243100,6.4402431640625,6.532250728434324,3.4960385739579793,-1.9773601036593318
1783696716979206100,6.4502060546875,6.768635472276807,3.1186399700552223,-2.1319959540978073
1783696716989169200,6.460169189453125,6.777728879314661,2.512426180781424,-2.209792018222809
1783696716999132200,6.470132080078125,6.704782301047444,1.8672054922431707,-2.3585139684423804
1783696717009095000,6.480094970703125,6.6926721765369175,1.4841107225254178,-2.6583091081827877
1783696717019058000,6.490057861328125,6.743143303623795,1.4361895721822977,-2.9801351702064274
1783696717029020200,6.500020263671875,6.76547671598494,1.6409598650991917,-3.164941410242021
1783696717038983200,6.509983154296875,6.682565208542346,1.8911296809270977,-3.229515589222312
1783696717048946200,6.5199462890625,6.454453787526488,2.036905348561704,-3.313656638459861
1783696717058909000,6.529908935546875,5.998764613980055,2.070395237970352,-3.389012908217311
1783696717068872000,6.539871826171875,5.249462496459484,1.9813816142603753,-3.3026521371036766
1783696717078835000,6.5498349609375,4.40346409177184,1.8575521132349966,-3.07427592767179
1783696717088798000,6.5597978515625,3.7357851954489942,1.7508651779294013,-2.7788351837486025
1783696717098760200,6.56976025390625,3.3894822792947292,1.6490616307511925,-2.473280165307224
1783696717108723200,6.57972314453125,3.107041886720061,1.4191215330034495,-2.2644430613428352
1783696717118686000,6.58968603515625,2.4556284810215234,1.062244031342864,-2.014295457346737
1783696717128649000,6.59964892578125,1.2711089000970124,0.5593441938102245,-1.580547774234414
1783696717138612000,6.609612060546875,-0.13309095810651778,-0.22817776425033806,-0.8274763673081994
1783696717148575000,6.619574951171875,-1.8102835815817118,-1.4463897714182734,0.3708309159502387
1783696717158537200,6.629537109375,-4.0131706427216525,-3.135662416526675,1.7916808801814912
1783696717168500000,6.6395,-6.279860021686553,-4.980156310746073,2.8049191808149216
1783696717178463000,6.649462890625,-8.185694812053441,-6.010916824066639,2.5124220891281963
1783696717188426000,6.659426025390625,-10.114926844620705,-6.00751958284378,1.4017299609586595
1783696717198389000,6.669388916015625,-12.227508196413517,-6.012735856187343,1.2702788790136574
1783696717208352000,6.67935205078125,-13.942307204705475,-6.133254917490482,2.387805675508827
1783696717218315000,6.68931494140625,-14.377265140390396,-5.956638705912232,3.9820238093078135
1783696717228277000,6.699277099609375,-13.432383167624472,-5.586227768939733,5.169648370510339
1783696717238240000,6.709239990234375,-11.536811412596702,-5.144369552347063,5.365534515225887
1783696717248203000,6.719203125,-9.531754031455517,-4.764760286657512,4.89910942813158
1783696717258166000,6.729166015625,-8.220994088971615,-4.723137944197655,4.501823635976017
1783696717268129000,6.73912890625,-7.794124182674288,-4.862996496742963,4.179831277474761
1783696717278092000,6.749092041015625,-7.809560821259021,-4.808965046826005,3.6106133399039506
1783696717288055000,6.759054931640625,-7.782386983129381,-4.520395942237973,2.8761235915899275
1783696717298017000,6.76901708984375,-7.233065586161613,-4.077726993784308,1.9441561915852128
1783696717307980000,6.77897998046875,-6.137027421766519,-3.468946276631951,0.8240849713042377
1783696717317943000,6.788943115234375,-4.698356554162502,-2.7101532771885393,-0.07092559383362532
1783696717327906000,6.798906005859375,-3.1006472172468897,-1.9912620800226926,-0.5571899383857846
1783696717337869000,6.808869140625,-1.4590589911162852,-1.189209784567356,-0.6642312400870025
1783696717347832000,6.81883203125,0.1251385377973318,-0.23401801471114156,-0.626203561118245
1783696717357794000,6.8287939453125,1.6645061603814362,0.7552431980073452,-0.665471449406445
1783696717367757000,6.838757080078125,2.99092836689949,1.796563683786988,-0.8011987473659217
1783696717377720000,6.848719970703125,4.026201973730325,2.7345675874769686,-0.9401045292310416
1783696717387683000,6.85868310546875,4.7101212262362235,3.5498400145113465,-1.0296186498090625
1783696717397645800,6.868645751953125,5.14420822430551,4.272723496183753,-1.0817581484995782
1783696717407609000,6.878609130859375,5.357799537059664,4.9073582010388375,-1.0888545365013182
1783696717417572000,6.888572021484375,5.415862434449791,5.444629679250717,-1.027067065630108
1783696717427534000,6.8985341796875,5.414349691799282,5.856913426312804,-0.9391749932959675
1783696717437497000,6.9084970703125,5.396453385102749,6.195674256524443,-0.8585967511065303
1783696717447459800,6.9184599609375,5.309767619818449,6.41847412712872,-0.8133284533597529
1783696717457422800,6.9284228515625,5.205636798736453,6.51996700092256,-0.8581808637820184
1783696717467386000,6.93838623046875,5.375778845864534,6.449554325047135,-0.8534962130971252
1783696717477349000,6.94834912109375,5.794362569853663,6.147348324772715,-1.0464189779624342
1783696717487311000,6.95831103515625,6.003493980589509,5.942680323186517,-1.413733264093846
1783696717497274000,6.968274169921875,6.2531087928831575,5.737293359676003,-1.6551478187970816
1783696717507236900,6.97823681640625,6.678416856691241,5.413097645911574,-1.801154372578114
1783696717517200000,6.988199951171875,6.993474739754199,5.159615052273869,-1.8316821973107753
1783696717527163100,6.9981630859375,7.084902731129526,5.0060599828094245,-1.9111419568642973
1783696717537126100,7.008126220703125,6.919016587880253,4.854714990609884,-2.01445853895396
1783696717547089200,7.018089111328125,6.575154635137319,4.668199900829792,-2.159633318085968
1783696717557051000,7.02805078125,6.163958683311939,4.509222221794724,-2.4844980171531437
1783696717567014000,7.038013916015625,5.724518049255013,4.3966281082719565,-2.8206860742673276
1783696717576977000,7.047976806640625,5.271463900387287,4.217054215931892,-2.9905642097622156
1783696717586940200,7.057940185546875,4.9088417175948615,4.001244642606378,-2.887930349239707
1783696717596903200,7.067903076171875,4.714451364395022,3.5791561253666875,-2.554645320090651
1783696717606866200,7.0778662109375,4.631134783282875,2.857439349386096,-2.0764795263201
1783696717616828000,7.087827880859375,4.315264414793253,1.742038897395134,-1.336931033311784
1783696717626791000,7.097791015625,3.453754552718997,0.22185937488377094,-0.2909261891081929
1783696717636754000,7.10775390625,2.0710715297967193,-1.8229981017261743,0.9145768508732318
1783696717646717200,7.11771728515625,0.5278717817038298,-3.973639427322149,1.7945780629277228
1783696717656680200,7.12768017578125,-0.728130150154233,-5.862054880854487,2.065408097207546
1783696717666643200,7.137643310546875,-2.370169042661786,-7.289598789766431,1.4500526778399943
1783696717676606000,7.14760595703125,-4.91524281680882,-8.29035988614261,0.47628626363426446
1783696717686568000,7.15756787109375,-8.223639050522447,-8.855007447057963,-0.365718395242095
1783696717696531000,7.167531005859375,-11.379188070780039,-8.791009898921846,-0.4266197309285402
1783696717706494200,7.177494140625,-13.652260428780316,-8.648915550148487,0.8327870409369468
1783696717716457200,7.187457275390625,-15.08379545315504,-8.307321542337537,2.676300107425451
1783696717726420200,7.197420166015625,-15.319786813765763,-7.562929993212222,4.640189904136956
1783696717736383000,7.207383056640625,-14.563599028384685,-6.710150550082326,6.492571628996729
1783696717746345000,7.217344970703125,-13.630054442191122,-5.927449436306953,7.642988449311256
1783696717756308000,7.227307861328125,-12.6096066485703,-5.14215830603838,7.603590504902601
1783696717766271200,7.237271240234375,-11.476336777889728,-4.216633944693207,6.5354398798644535
1783696717776234200,7.247234130859375,-10.213063393723964,-3.266106659516692,5.217482134830951
1783696717786197000,7.257197021484375,-8.559044140565394,-2.516052846845984,4.332056851901114
1783696717796160000,7.267159912109375,-6.256994109883904,-1.934031541803479,3.8029143196091053
1783696717806122000,7.2771220703125,-3.5988229488670824,-1.5760235748082398,3.3224873029083013
1783696717816085000,7.2870849609375,-1.0424801772087813,-1.43025433691442,2.5230846451789137
1783696717826048300,7.29704833984375,1.3836229341208934,-1.2610334962844847,1.3674595886968075
1783696717836011000,7.307010986328125,3.548694351607561,-0.9377356081426144,0.13338628779128192
1783696717845974000,7.31697412109375,5.311567947238683,-0.36881285412609577,-1.0268810415387153
1783696717855937000,7.32693701171875,6.507006981584429,0.4631307217240333,-1.8879061888359485
1783696717865900000,7.336900146484375,7.1971624981313935,1.3305144442677497,-2.2663241989143192
1783696717875862000,7.346862060546875,7.545452788710594,2.122524069136381,-2.2107211157664657
1783696717885825300,7.3568251953125,7.722605006861686,2.8955449158966537,-1.8899105143956838
1783696717895788000,7.3667880859375,7.745833322235941,3.511774780011177,-1.3929429895214736
1783696717905751000,7.3767509765625,7.764743774411082,3.8596418767422436,-0.9455525655038655
1783696717915715300,7.38671533203125,7.9213962253689765,3.9754473535269494,-0.7054828495383262
1783696717925678300,7.39667822265625,8.145770797944069,4.0123441287696355,-0.6177962366484105
1783696717935640000,7.40664013671875,8.252455979683996,4.013331386241316,-0.6920172187656164
1783696717945603000,7.41660302734375,8.211428972768783,4.287372199261188,-0.9051710168853402
1783696717955566000,7.426566162109375,7.931110394653677,4.051461210410297,-1.1851831593997775
1783696717965529000,7.436529052734375,7.452522576078772,3.2069220646202563,-1.5450379233054816
1783696717975492400,7.446492431640625,6.949618062371015,2.4346242714375257,-2.0589567291110753
1783696717985455400,7.456455322265625,6.339963484993577,1.847032765047252,-2.7010703915446994
1783696717995418000,7.466418212890625,5.669141614469885,1.4762915732070803,-3.4651433772176503
1783696718005380000,7.476380126953125,5.26880900196433,1.2176637256354093,-3.936161052799225
1783696718015343000,7.486343017578125,5.115433380720019,1.124947155754268,-4.009412166970968
1783696718025306000,7.49630615234375,5.1699154970139265,1.1458327073946595,-3.8065839480325576
1783696718035269400,7.506269287109375,5.424587008175253,1.291812957690656,-3.4373166281372307
1783696718045232400,7.516232421875,5.7660395616889,1.6260077951610088,-3.038036739555001
1783696718055195100,7.526195068359375,5.942034426498413,2.099654942463338,-2.650125217205286
1783696718065157000,7.5361572265625,5.802900681096315,2.570468912166357,-2.1779396668881175
1783696718075120000,7.5461201171875,5.1775318172365425,2.7685812084987758,-1.2881515125736593
1783696718085083100,7.556083251953125,4.046134754690527,2.3353984657928346,-0.010723930849134922
1783696718095046400,7.56604638671875,2.5318244164735075,1.183148584832251,1.210261924946308
1783696718105009200,7.576009033203125,0.8063760038733482,-0.2554416187509894,2.4481189821742473
1783696718114972200,7.58597216796875,-1.0203250440239906,-1.7943211655572056,3.233302706545591
1783696718124935200,7.59593505859375,-3.26226868878901,-3.326569603785872,3.563987197807431
1783696718134897200,7.605897216796875,-3.480739590278268,-4.118751662611961,2.5075816633597015
1783696718144860200,7.615860107421875,-4.781789455130696,-4.34318030346185,1.5085647803023456
1783696718154823200,7.6258232421875,-6.572377571639418,-4.568257471348345,0.597333805790916
1783696718164786200,7.6357861328125,-8.879372657507657,-4.628106375372409,0.31679500905387104
1783696718174749200,7.645749267578125,-10.427578251063823,-3.8950004826322195,0.2176216642487794
1783696718184712200,7.655712158203125,-11.041405730211734,-2.722558000731468,0.34581385399568826
1783696718194675200,7.66567529296875,-11.203739149415492,-1.6024875111028551,0.5336082795292139
1783696718204637200,7.67563720703125,-10.995083539497852,-0.5142790174201131,0.37534123298153277
1783696718214600200,7.68560009765625,-10.811059682011603,0.29183570516854523,-0.12689213999900967
1783696718224563200,7.695563232421875,-10.662298861086368,0.4844193012073636,-0.43622441195677963
1783696718234526200,7.705526123046875,-10.271230336010456,-0.04982406135499477,-0.029376280077360567
1783696718244489200,7.7154892578125,-9.203419902712106,-1.3045984972447155,0.9166254539661108
1783696718254452200,7.7254521484375,-7.22991968935132,-2.2393451527044177,1.3879489806264638
1783696718264415200,7.735415283203125,-4.672934528136253,-2.1966534274473783,1.0128903639785944
1783696718274377200,7.745377197265625,-2.3182103073656557,-1.6703969719856977,0.3581003214538097
1783696718284340200,7.75534033203125,-0.5256354009538888,-1.2795309837445616,-0.08148958488069474
1783696718294303200,7.76530322265625,0.76910981079638,-1.1268415911987424,-0.2230030467598699
1783696718304266200,7.775266357421875,1.4803636449515818,-1.0504647462219,-0.3856705750225112
1783696718314229200,7.785229248046875,1.7367583266437052,-0.8210609473079442,-0.8574115599099547
1783696718324192300,7.795192138671875,1.6882494395405052,-0.38262744446694846,-1.5716402451574802
1783696718334154200,7.805154296875,1.5723188750714063,0.21458821483701465,-2.237191335671395
1783696718344117200,7.8151171875,1.5530343288868664,0.7634124759376049,-2.5654493304386734
1783696718354080300,7.825080322265625,1.6263497404664753,1.2550500379607081,-2.6398630586490035
1783696718364043300,7.835043212890625,1.584007559299469,1.699621020643413,-2.4961250343218446
1783696718374006300,7.84500634765625,1.6740192541360854,2.053722920110822,-2.1285171720713376
1783696718383969000,7.854968994140625,1.9627888497322796,2.2918971777185795,-1.5423824403606354
1783696718393932000,7.86493212890625,2.4957734444051978,2.386472527208924,-0.9281988412514328
1783696718403894300,7.874894287109375,3.2709009080559013,2.498173783545196,-0.42024994016829875
1783696718413857300,7.884857177734375,4.148806024613976,2.690110313852131,-0.09869248421927913
1783696718423820300,7.8948203125,5.038700269651413,2.934589224562049,-0.00018142098151147364
1783696718433783300,7.904783203125,5.816230702790618,3.0815222455382347,-0.008689767273562028
1783696718443746000,7.91474609375,6.597982553017139,3.100182522344589,0.017853253006096928
1783696718453709000,7.924708984375,6.956781378129124,2.9727111576855183,0.374900466944091
1783696718463672000,7.934672119140625,7.0716422675400965,2.658595816169679,0.6269391819164156
1783696718473634300,7.94463427734375,6.9608987503200765,2.54510796867758,0.7416494108103215
1783696718483597300,7.954597412109375,6.08288549721241,2.3603826849237084,1.0371667271010576
1783696718493560000,7.96456005859375,4.872430095520615,2.312745027697086,1.1285277176547794
1783696718503523000,7.974523193359375,3.830175543761253,2.6333310265317555,0.4715103179367259
1783696718513486000,7.984486083984375,3.695934831097722,3.2187571715816854,-0.29599191153254356
1783696718523449000,7.994448974609375,3.780394737026095,3.5857357960179446,-0.5360988907685503
1783696718533412000,8.004412109375,3.2083225790679455,3.2231568678453564,-0.0797984077902045
1783696718543374000,8.0143740234375,2.5757138270825144,2.6861972320616245,0.5431074178237467
1783696718553337000,8.024337158203124,1.955699183732271,2.33903448420763,0.9982339159861207
1783696718563300000,8.034300048828126,1.109784950196743,1.8331155911147594,1.2132647600241004
1783696718573263000,8.04426318359375,0.0024000468790531158,0.8424769525632262,1.151162158789113
1783696718583226000,8.05422607421875,-0.8113812648147344,-0.023471476480364798,1.0328037095859646
1783696718593189000,8.064189208984375,-0.611438538184762,-1.4866872950151562,0.7515011619348079
1783696718603151000,8.074151123046875,-0.8378332184106111,-2.6907790068939326,0.49828792329039423
1783696718613114000,8.084114013671876,-2.102649155843258,-3.0272929349616167,-0.10718282906375824
1783696718623077000,8.0940771484375,-4.338962685766816,-3.270994723819196,0.12572561697028575
1783696718633040100,8.1040400390625,-7.02266050222814,-4.392011554387212,1.480937937708199
1783696718643003100,8.114003173828126,-8.412701486697793,-5.4523599812418215,2.6086665408745406
1783696718652966100,8.123966064453125,-8.17282890073955,-5.8160389796108,3.065025576506555
1783696718662929200,8.13392919921875,-6.754272015881538,-5.612307966613769,2.9356825727567073
1783696718672891100,8.14389111328125,-5.1013861506670715,-5.036207868313789,2.209522845892608
1783696718682854100,8.153854248046875,-4.3816170016229155,-4.469939720459283,1.5597650984466076
1783696718692817200,8.163817138671876,-4.746913956582546,-3.8768513702183958,1.308169341468811
1783696718702780200,8.1737802734375,-5.783690953713655,-3.2580393806561827,1.3025719598531722
1783696718712743200,8.1837431640625,-6.8374950734913345,-2.600509537903964,1.2781367529071868
1783696718722706200,8.1937060546875,-7.18081400539875,-1.9020026648581028,0.7371640820898115
1783696718732669200,8.203669189453125,-6.573665273362398,-1.0577478889673948,-0.0382157671530731
1783696718742631200,8.213631103515626,-5.269808534395694,-0.32068449077308175,-0.5756638988398015
1783696718752594200,8.22359423828125,-3.6205905440390107,0.21809300808757542,-0.6311075536422431
1783696718762557200,8.23355712890625,-1.7964561317592858,0.7839914458468555,-0.4498596636753529
1783696718772520200,8.243520263671876,-0.0019447043269872665,1.4842308417737482,-0.23531948923114684
1783696718782483200,8.253483154296875,1.6765379589587448,2.3163117802679536,-0.19468524449318647
1783696718792446200,8.2634462890625,2.8337434165000914,2.9737843398749826,-0.028447803588211536
1783696718802409200,8.2734091796875,3.4872599319577215,3.0498133943274617,0.17782796198818832
1783696718812371200,8.28337109375,3.8450469496786592,2.6639561741590496,0.11429306292776018
1783696718822334200,8.293334228515626,4.260201283740997,2.5102166880384087,-0.281083936464414
1783696718832297000,8.303296875,4.973065475702286,2.5410063785776495,-0.7173034165177494
1783696718842260200,8.31326025390625,5.628623141598701,2.3788082761913536,-0.9985804644014685
1783696718852223200,8.32322314453125,5.88974543633461,2.169387819381058,-1.1699401436910033
1783696718862186200,8.333186279296875,5.775426398715377,2.158495253966749,-1.1954092967946082
1783696718872148200,8.343148193359376,5.381770779755711,2.24867441432476,-1.099514023812115
1783696718882111000,8.353111083984375,4.988564073607325,2.317818093177676,-0.9611706250701099
1783696718892074000,8.363073974609375,4.740296584269404,2.4000340195715424,-0.8722674029320477
1783696718902037200,8.373037353515626,4.5906396912872784,2.545463065725565,-0.715458811564371
1783696718911999200,8.382999267578125,4.476840878149867,2.6277920971050857,-0.49641186375282703
1783696718921962200,8.392962158203124,4.286149379467964,2.6056910321950912,-0.3349951210025698
1783696718931925200,8.40292529296875,3.9717134276956316,2.444288756361604,-0.1865216656513512
1783696718941887500,8.412887451171875,3.6278573201715942,2.4196163796588777,-0.14591997147612273
1783696718951850200,8.422850341796876,3.5163165150940414,2.5717382014498114,-0.31536577996835113
1783696718961813200,8.432813232421875,3.540007187283039,2.7382380926832557,-0.48845195425692944
1783696718971776300,8.4427763671875,3.675269644209742,2.7173019798994065,-0.6329452904634177
1783696718981739300,8.4527392578125,3.7954040901094674,2.480797409069538,-0.7356672676607966
1783696718991702300,8.462702392578125,4.035964658331871,2.0229858365416526,-0.8451337506823241
1783696719001665300,8.472665283203124,4.254062634855509,1.4215531440645455,-0.7259707801632582
1783696719011627300,8.482627197265625,4.211564970865846,0.6976186920344829,-0.2541870521126315
1783696719021590300,8.49259033203125,3.9807366921067238,0.06799070942550897,0.3148101553795859
1783696719031553300,8.50255322265625,3.251013719803095,-0.44359600017070766,0.7757059941910207
1783696719041516300,8.512516357421875,1.5779092424243688,-1.0944915194749831,1.1721928910538553
1783696719051479300,8.522479248046874,-0.617014877012372,-2.0160908163309097,1.1949250204090027
1783696719061442300,8.5324423828125,-2.4556828415572642,-2.5114891921922564,0.5829839395295828
1783696719071405000,8.542405029296875,-3.7676597586154936,-2.8285508162930606,-0.23251758355293423
1783696719081367300,8.5523671875,-5.180555548971891,-3.6526843029141425,-0.4836638066649437
1783696719091330300,8.562330322265625,-6.630362727618217,-4.265906801906228,-0.32772081915065643
1783696719101293300,8.572293212890624,-7.222124505430459,-4.012224009521305,-0.17903335572257636
1783696719111256300,8.58225634765625,-7.578198874014616,-3.8414679221481083,0.34219599229209124
1783696719121219000,8.592218994140625,-8.481611356794833,-4.29738447470963,1.0530937795512378
1783696719131182000,8.60218212890625,-9.829888252246379,-4.695924358579516,1.355285020647943
1783696719141145300,8.612145263671875,-11.196680463075637,-4.630872917476296,1.5084712567999958
1783696719151108400,8.6221083984375,-12.269026786237955,-4.477517754498124,1.8812607594721018
1783696719161070300,8.6320703125,-12.30513971762657,-4.088641478769481,2.0904257802166044
1783696719171033000,8.642033203125,-10.965290458780526,-3.4885856276035305,1.7827438327491283
1783696719180996000,8.65199609375,-8.89154649490416,-3.161868286406994,1.1429517451308666
1783696719190959000,8.661958984375,-6.852399797156453,-3.1326866155862807,0.49000261776503173
1783696719200922400,8.67192236328125,-5.2188762195378535,-3.050280427317321,-0.11589998666774481
1783696719210885400,8.681885498046874,-3.9507027883708474,-2.7050743664890526,-0.39744945828467604
1783696719220848400,8.691848388671875,-2.960747748169303,-2.3401240330100057,-0.26019272226821627
1783696719230810000,8.70181005859375,-1.918054220470786,-1.9428782806038856,-0.06677507742489688
1783696719240773000,8.711773193359376,-0.6429606346517801,-1.3883561001226306,-0.11918223234196193
1783696719250736000,8.721736083984375,0.7400321848720312,-0.8299746138647198,-0.345913222716935
1783696719260699400,8.731699462890624,2.1293249813228843,-0.24746172591298818,-0.6405998238045721
1783696719270662400,8.741662353515625,3.5754952647715803,0.26354396892488,-0.931396029857546
1783696719280625400,8.75162548828125,4.890930213329196,0.6021870179757476,-1.110348137037456
1783696719290588400,8.76158837890625,5.960470831421017,0.6433163162216544,-1.2076901747621596
1783696719300550100,8.771550048828125,6.771588476863503,0.46775779700279235,-1.318646604080498
1783696719310513200,8.78151318359375,7.2633666164010755,0.3163917620152235,-1.5477854684479533
1783696719320476400,8.791476318359376,7.487450097075104,0.28159926557540893,-1.7435009327717124
1783696719330439400,8.801439453125,7.424488321727514,0.29691636943370103,-1.7688012321144342
1783696719340402400,8.81140234375,7.008645420879125,0.2391428103789687,-1.5457890339337288
1783696719350365200,8.821365234375,6.311885976022482,0.07524754868596792,-1.0695346267424524
1783696719360328200,8.831328125,5.600074507984519,-0.1246679976761341,-0.7223685178875923
1783696719370290200,8.841290283203126,5.158109908407926,-0.15840601662695408,-0.7999787040516734
1783696719380253400,8.85125341796875,5.066049464347958,0.09189210175573825,-1.0822309536430985
1783696719390216400,8.861216552734374,5.272668600001931,0.5081663797587156,-1.3558616514921187
1783696719400179200,8.87117919921875,5.5674967649847265,1.0528142319574951,-1.3596658660806715
1783696719410142200,8.88114208984375,5.573810770437121,1.5900845411255955,-1.0915814041819423
1783696719420105200,8.891105224609374,5.330768322271108,2.1554513562262057,-0.6212933580491692
1783696719430068200,8.901068115234375,4.896800566667318,2.7332430608749387,-0.2522206108778715
1783696719440030500,8.911030517578125,4.337141900080442,3.274788270883262,-0.03771795543245971
1783696719449993500,8.920993408203126,3.700560152810812,3.6729295108243822,0.12947422891408203
1783696719459956200,8.930956298828125,3.112152361601591,4.072202092882991,0.06925466494672
1783696719469919200,8.940919189453124,2.4305256039470433,4.385517808453739,-0.13518763812482357
1783696719479882200,8.95088232421875,1.2118664375334978,4.42302979298532,-0.04084332091137766
1783696719489845200,8.96084521484375,-0.17145488329231737,4.2180034794807435,0.22168379912115632
1783696719499808300,8.970808349609374,-1.3027560842484236,3.6803763196989894,0.33104631031155585
1783696719509770200,8.980770263671875,-2.0065999344080687,2.7595295947760343,0.3584823065087199
1783696719519733200,8.990733154296874,-2.5600661760956047,1.2244018017187714,0.44988713620416815
1783696719529696300,9.0006962890625,-3.2150515950620173,-0.6766209121912717,0.9485261014219373
1783696719539659300,9.0106591796875,-3.563113922104239,-2.241386595404148,1.267721011224389
1783696719549622300,9.020622314453124,-3.686879417982697,-2.9975743807852266,1.0572677042350171
1783696719559585300,9.030585205078125,-4.632590242788195,-3.691617552420497,1.0576795729715376
1783696719569548300,9.04054833984375,-6.306237156480551,-4.5867339160203935,1.4806632124200463
1783696719579510300,9.05051025390625,-7.9190709972918025,-5.417478637474775,2.270937391798198
1783696719589473300,9.060473388671875,-8.6321216517359,-6.199722070610523,3.649025780406594
1783696719599436300,9.070436279296874,-7.498547245150804,-6.484001369050144,4.478872676238417
1783696719609399300,9.0803994140625,-5.052240134704113,-6.095973526844382,3.9896304849192497
1783696719619362300,9.0903623046875,-3.2959330579817294,-5.7007326845198865,2.9439412825360893
1783696719629325000,9.100324951171874,-4.226566725164652,-5.217967872521281,2.1415413426868617
1783696719639288000,9.1102880859375,-7.568665906515717,-3.8600580563277003,1.5166512022547423
1783696719649250300,9.120250244140625,-10.986028126382827,-2.049757523611188,0.9204555336482823
1783696719659213300,9.13021337890625,-12.934309727334975,-0.6499030011355876,0.7803291239470243
1783696719669176300,9.14017626953125,-12.350102310425042,0.2431488311499357,0.46866384246442466
1783696719679139300,9.150139404296874,-9.892743060088158,0.40846126616448164,-0.008072539557516575
1783696719689102000,9.16010205078125,-6.703921300303936,0.10975012226849794,-0.12004256636518984
1783696719699065000,9.170065185546875,-3.20031287561357,-0.10778759002387522,0.06008295024195685
1783696719709028400,9.1800283203125,0.16385259159505366,-0.5150540934458374,0.2711405980663374
1783696719718990300,9.189990234375,3.3029321230888367,-0.8497942898392676,0.25205230510625987
1783696719728953300,9.199953369140625,5.865214221668243,-0.7239385436832905,-0.0029477256233803924
1783696719738916000,9.209916015625,7.524660176050663,-0.08701251302063465,-0.34267321788240224
1783696719748879000,9.219879150390625,8.174211295008659,0.7447469384342431,-0.26404190850965675
1783696719758842000,9.229842041015624,7.987193516403436,1.5033061291217804,0.37012532496415074
1783696719768805400,9.239805419921876,7.176976619192957,2.3751772262126205,1.0889865653831512
1783696719778768400,9.249768310546875,5.914155070447921,3.2608588219910857,1.6022468342147766
1783696719788730000,9.259730224609376,4.563319722685217,3.9403672723174092,1.5072779553622007
1783696719798693000,9.269693115234375,3.2042543067157268,4.230407033979892,1.3160647708937525
1783696719808656100,9.27965625,2.2983318869411944,4.2856154187217355,1.0142202974081038
1783696719818619100,9.289619140625,2.057853151783347,4.1647845149904485,0.5880678186651319
1783696719828582400,9.29958251953125,2.774377619817853,3.8955119392856954,-0.19966263104695825
1783696719838545400,9.30954541015625,4.091522294902801,3.5669252970859406,-1.1477878600504248
1783696719848508400,9.31950830078125,5.323405100026727,3.222165518720448,-1.7736153543978928
1783696719859093200,9.33009326171875,6.103050333362817,2.750531464806199,-1.777908375416696
1783696719869056300,9.34005615234375,6.303408070534467,2.2130413754075766,-1.072281075906381
1783696719879019300,9.350019287109374,6.05856529494822,2.1458473693177105,-0.21848197087254373
1783696719888982300,9.359982177734375,5.66732375139296,2.578145145882666,0.15744579329267144
1783696719898945300,9.3699453125,5.091158186641335,3.0582094667509194,0.13160064648352562
1783696719908908300,9.379908203125,4.37580802308321,3.3189529913023113,-0.0683581910310313
1783696719918872000,9.3898720703125,3.9017502491533755,3.2771389256626366,-0.456348550770618
1783696719928834800,9.399834716796875,3.757617672550678,3.1365675486728546,-0.937524814936146
1783696719938797000,9.409797119140626,3.6964690841048955,2.939484010866284,-1.3766849515512585
1783696719948760000,9.419760009765625,3.3466251343429088,2.6424445995748043,-1.6722019755810498
1783696719958723000,9.42972314453125,2.621532159927487,2.33802676846981,-1.6989049813285468
1783696719968686000,9.43968603515625,1.4377134207487106,1.979640615811944,-1.5533347731381655
1783696719978648800,9.44964892578125,0.12399579750299453,1.8506424799770116,-1.1933383357394487
1783696719988611800,9.45961181640625,-0.9348451473981142,1.65196641228199,-0.7736337910268455
1783696719998574800,9.469574951171875,-1.739625406512618,1.0607014780759811,-0.3373336469527334
1783696720008537000,9.479537109375,-2.320413954889774,0.19014672428071497,-0.004194309884682297
1783696720018500000,9.4895,-2.6348563364028927,-0.7355757899850607,-0.2196428678780794
1783696720028463000,9.499463134765625,-3.296433408719301,-1.6964304079085588,-0.5179788217861205
1783696720038425900,9.50942578125,-4.561714625576138,-2.704451266154647,-0.47222369037047024
1783696720048388900,9.519388916015625,-5.541803520801663,-3.242002730351686,-0.5318449231185018
1783696720058351900,9.529351806640625,-5.740788800576329,-3.3561095865249633,-0.7369665867563336
1783696720068315100,9.539315185546876,-5.352974893382191,-3.6614006933331487,-0.5914706128459424
1783696720078277000,9.549277099609375,-4.8275335536956785,-4.1857782031804325,-0.2892720652256161
1783696720088239900,9.559239990234374,-4.296483141955733,-4.442085791110992,-0.52523237311095
1783696720098203000,9.569202880859375,-4.055988040184975,-4.446033067432046,-1.2541416909441352
1783696720108166000,9.579165771484375,-4.325608114153146,-4.297694855833053,-1.8704510500356555
1783696720118129000,9.58912890625,-4.7579433001190425,-3.9979993770748377,-2.1320238650180396
1783696720128092200,9.599092041015625,-4.940508775490522,-3.621913901597261,-2.206583285309374
1783696720138055200,9.60905517578125,-4.953357735669613,-3.2625515973836183,-2.0811805436179043
1783696720148017000,9.619016845703126,-4.84381190380156,-3.0368203495025634,-1.8708494017034767
1783696720157980000,9.62897998046875,-4.576553882789612,-2.77006589409858,-1.5937459862425922
1783696720168566000,9.63956591796875,-3.747214351958036,-2.343851821361482,-1.2110867583978921
1783696720178529000,9.649529052734374,-2.571046419793367,-1.9380238263100384,-0.7962778037071228
1783696720188491000,9.659490966796875,-1.255423255187273,-1.6163772125065325,-0.3160072196770459
1783696720198454000,9.6694541015625,0.07207037995457649,-1.4599112240314482,0.13612908369340002
1783696720208417000,9.6794169921875,1.3399445359140634,-1.288543726761639,0.33454533140845594
1783696720218380000,9.689380126953125,2.2607570663064718,-0.9905351781770586,0.3726619307696819
1783696720228343000,9.699343017578125,2.670972190400958,-0.657161009439826,0.3435857661500573
1783696720238306000,9.70930615234375,2.845488214829564,-0.3639624914854765,0.2303255899339914
1783696720248269000,9.71926904296875,2.869005868539214,-0.10376870977133512,0.05394114128500223
1783696720258231000,9.72923095703125,2.964589226028323,0.09846183553487062,-0.26471915018409486
1783696720268194000,9.739194091796875,3.1909780610352754,0.11682429843842983,-0.7098471822276711
1783696720278157000,9.749156982421875,3.564770457139611,0.0793593679189682,-1.1690846959054468
1783696720288120000,9.7591201171875,3.986862481510639,0.20652678119540213,-1.5069434627108276
1783696720298083000,9.7690830078125,4.439583452901244,0.5307672108843923,-1.6195952977702022
1783696720308046000,9.779046142578125,4.88762123491168,0.9651604984238743,-1.4560563021689652
1783696720318008800,9.7890087890625,5.173961557534337,1.4172335272997616,-1.0907559862084686
1783696720327971800,9.798971923828125,5.283246108117699,1.9106179329901933,-0.5907436868108809
1783696720337934000,9.80893408203125,5.317794858929514,2.2860148416817188,-0.08267915999144315
1783696720347897000,9.81889697265625,5.370319411414862,2.510322194239497,0.40204686907753345
1783696720357860000,9.828860107421875,5.4593917795747515,2.5094068329602477,0.6459077940195799
1783696720367823000,9.838822998046876,5.503156687021256,2.3167340973332524,0.5491157913930714
1783696720377785900,9.848785888671875,5.232300933778285,2.145038098761439,0.4075114180937409
1783696720387748900,9.858748779296874,4.953364749932289,1.8954601113468408,-0.007137158403545617
1783696720397712000,9.8687119140625,4.723755199313164,1.5922235989809035,-0.5809935694299638
1783696720407674000,9.878674072265625,4.21082847328484,1.2838894712150095,-0.9806835001178085
1783696720417637000,9.88863720703125,3.201182644185424,1.0448460295572877,-1.2919495896823703
1783696720427600000,9.898599853515625,2.6701614585399627,0.7370791802853346,-1.6098491259120404
1783696720437563000,9.90856298828125,2.289243740600347,0.719907096210122,-1.121928538585454
1783696720447526000,9.91852587890625,0.962339303523302,0.9955851550430059,-0.22631372394412755
1783696720457489000,9.928489013671875,-0.6509896273285151,1.2524191049352287,0.5374864361368119
1783696720467452200,9.9384521484375,-2.0062159035265443,0.9742296478033066,1.4929915097258983
1783696720477415200,9.948415283203126,-3.38608620711565,0.6125383161202073,2.2331768393330274
