time,seconds_elapsed,z,y,x
1783696645033845800,0.058845703125,-0.36835435032844543,0.508730411529541,1.1983720064163208
1783696645043808500,0.06880859375,-0.3876601457595825,0.7084022760391235,1.125519037246704
1783696645053771500,0.078771484375,-0.39803460240364075,0.7125782370567322,1.028627634048462
1783696645063734500,0.088734619140625,-0.37376415729522705,0.5278171896934509,0.9570807814598083
1783696645073697500,0.098697509765625,-0.32977333664894104,0.2379578948020935,0.9202340245246887
1783696645083661600,0.10866162109375,-0.2732040584087372,-0.05631420761346817,0.9103944301605225
1783696645093624600,0.11862451171875,-0.21528595685958862,-0.27589914202690125,0.9100289344787598
1783696645103587600,0.128587646484375,-0.17222371697425842,-0.3540690541267395,0.9048943519592285
1783696645113550600,0.138550537109375,-0.11269114166498184,-0.3345595598220825,0.9309959411621094
1783696645123513300,0.148513427734375,-0.06862008571624756,-0.30055737495422363,0.9729804396629333
1783696645133476600,0.1584765625,-0.0846264660358429,-0.4012121856212616,0.9486727714538574
1783696645143439600,0.168439697265625,-0.16540279984474182,-0.533475935459137,0.842079222202301
1783696645153402600,0.178402587890625,-0.29546040296554565,-0.39896368980407715,0.7062966227531433
1783696645163365600,0.18836572265625,-0.41071322560310364,0.005770755931735039,0.6145483255386353
1783696645173328600,0.19832861328125,-0.49346601963043213,0.43768832087516785,0.5135867595672607
1783696645183292700,0.208292724609375,-0.5101845860481262,0.6582489013671875,0.34433645009994507
1783696645193255700,0.218255615234375,-0.44088366627693176,0.6604557037353516,0.1290835440158844
1783696645203218400,0.228218505859375,-0.3152383863925934,0.4779820442199707,-0.08806875348091125
1783696645213181400,0.238181396484375,-0.19489459693431854,0.0962643027305603,-0.31011858582496643
1783696645223144400,0.24814453125,-0.09230829775333405,-0.36173203587532043,-0.5061339139938354
1783696645233107500,0.258107421875,0.039985425770282745,-0.795121431350708,-0.6578783392906189
1783696645243070700,0.26807080078125,0.21990646421909332,-1.2084296941757202,-0.7798060774803162
1783696645253033700,0.27803369140625,0.3821538984775543,-1.5863151550292969,-0.8876760005950928
1783696645262996700,0.287996826171875,0.44362232089042664,-1.7383557558059692,-0.9384598135948181
1783696645272959500,0.29795947265625,0.3879825472831726,-1.5733282566070557,-0.9194201827049255
1783696645282922500,0.307922607421875,0.24841134250164032,-1.1794813871383667,-0.847724974155426
1783696645292886500,0.317886474609375,0.07916756719350815,-0.7667737007141113,-0.7864769697189331
1783696645302849500,0.327849609375,-0.061374370008707047,-0.4741743206977844,-0.7823309898376465
1783696645312812500,0.3378125,-0.1476711630821228,-0.2425737977027893,-0.8280891180038452
1783696645322775600,0.347775634765625,-0.20800666511058807,-0.05214152857661247,-0.9158394932746887
1783696645332738600,0.357738525390625,-0.23482964932918549,0.05379912629723549,-1.036375880241394
1783696645342701600,0.36770166015625,-0.21730418503284454,0.05906100198626518,-1.1715275049209595
1783696645352664600,0.37766455078125,-0.14736393094062805,-0.03514934331178665,-1.2829512357711792
1783696645362627600,0.387627685546875,-0.06153397634625435,-0.16178745031356812,-1.337748408317566
1783696645372590600,0.397590576171875,-0.014608623459935188,-0.20681114494800568,-1.3047488927841187
1783696645382553600,0.4075537109375,-0.019360234960913658,-0.17123930156230927,-1.2025057077407837
1783696645392517600,0.417517578125,-0.048135410994291306,-0.08783245831727982,-1.0590617656707764
1783696645402480600,0.427480712890625,-0.09228982776403427,0.07768912613391876,-0.8921231627464294
1783696645412443600,0.437443603515625,-0.12955927848815918,0.3141098916530609,-0.6927233338356018
1783696645422406700,0.44740673828125,-0.16097180545330048,0.5443066358566284,-0.4756370782852173
1783696645432369400,0.457369384765625,-0.18065661191940308,0.6607792973518372,-0.2308860868215561
1783696645442332400,0.46733251953125,-0.19895599782466888,0.6230508089065552,0.021399155259132385
1783696645452295400,0.47729541015625,-0.23253704607486725,0.39707446098327637,0.23108287155628204
1783696645462258700,0.4872587890625,-0.28431180119514465,0.10015038400888443,0.373552143573761
1783696645472221700,0.4972216796875,-0.33105042576789856,-0.10252697020769119,0.47229957580566406
1783696645482184700,0.507184814453125,-0.36659562587738037,-0.1347980946302414,0.5123838782310486
1783696645492148700,0.517148681640625,-0.40216004848480225,-0.027979444712400436,0.522550106048584
1783696645502111700,0.52711181640625,-0.43851032853126526,0.15660957992076874,0.5383408069610596
1783696645512074500,0.537074462890625,-0.4399961233139038,0.3768898546695709,0.5950992703437805
1783696645522037500,0.54703759765625,-0.41560104489326477,0.511320948600769,0.6999055743217468
1783696645532000500,0.55700048828125,-0.4019014537334442,0.4199468195438385,0.8142827749252319
1783696645541963500,0.566963623046875,-0.3807532787322998,0.12508295476436615,0.9180267453193665
1783696645551926500,0.576926513671875,-0.3435794711112976,-0.26974865794181824,1.0062812566757202
1783696645561889500,0.5868896484375,-0.316206693649292,-0.6821373105049133,1.065866231918335
1783696645571852800,0.596852783203125,-0.2922195792198181,-1.0355342626571655,1.0820542573928833
1783696645581815600,0.606815673828125,-0.2644326984882355,-1.173371434211731,1.0588927268981934
1783696645591778600,0.616778564453125,-0.2835874557495117,-0.8846995234489441,1.0384770631790161
1783696645601742600,0.62674267578125,-0.3604492247104645,-0.3017846941947937,0.9357805252075195
1783696645611705600,0.63670556640625,-0.5069340467453003,0.32390958070755005,0.6799427270889282
1783696645621668600,0.646668701171875,-0.7189802527427673,0.9361676573753357,0.3356386721134186
1783696645631631600,0.656631591796875,-0.9328389763832092,1.4518765211105347,0.013064170256257057
1783696645641594600,0.6665947265625,-1.0261014699935913,1.805119514465332,-0.1987048089504242
1783696645651557600,0.6765576171875,-0.994134247303009,2.082536220550537,-0.2943132817745209
1783696645661520400,0.686520263671875,-0.9033161997795105,2.232811212539673,-0.3705792725086212
1783696645671483400,0.6964833984375,-0.7745502591133118,2.0275745391845703,-0.5262159109115601
1783696645681446700,0.70644677734375,-0.6567599773406982,1.5104740858078003,-0.7749136090278625
1783696645691409700,0.71640966796875,-0.5390201210975647,0.8667387366294861,-1.0368316173553467
1783696645701372700,0.72637255859375,-0.37103375792503357,0.21108150482177734,-1.2591986656188965
1783696645711336700,0.736336669921875,-0.10774198174476624,-0.32632148265838623,-1.4363658428192139
1783696645721299700,0.7462998046875,0.1522163599729538,-0.6902083158493042,-1.5704981088638306
1783696645731262700,0.7562626953125,0.3534241318702698,-0.8656113147735596,-1.6671779155731201
1783696645741225500,0.7662255859375,0.4668007791042328,-0.8289116024971008,-1.7228970527648926
1783696645751188500,0.7761884765625,0.5299497246742249,-0.5754996538162231,-1.699014663696289
1783696645761151500,0.7861513671875,0.5650357604026794,-0.2158101350069046,-1.612511396408081
1783696645771114500,0.796114501953125,0.572584867477417,0.03233771026134491,-1.495562195777893
1783696645781077500,0.806077392578125,0.5624960064888,0.050365447998046875,-1.3689839839935303
1783696645791040800,0.816040771484375,0.52174973487854,-0.13514627516269684,-1.243613839149475
1783696645801003800,0.826003662109375,0.43483129143714905,-0.4487899839878082,-1.1567423343658447
1783696645810967800,0.8359677734375,0.3264869451522827,-0.7348747849464417,-1.100484013557434
1783696645820930600,0.8459306640625,0.2385304570198059,-0.8363121747970581,-1.0465803146362305
1783696645830893600,0.8558935546875,0.20422673225402832,-0.7393629550933838,-0.9950158596038818
1783696645840856800,0.86585693359375,0.20550265908241272,-0.4933566451072693,-0.9377472400665283
1783696645850819800,0.87581982421875,0.24215973913669586,-0.16296249628067017,-0.8676049113273621
1783696645860782800,0.885782958984375,0.28226450085639954,0.17570912837982178,-0.77768874168396
1783696645870745900,0.895745849609375,0.3167433440685272,0.4448789060115814,-0.651374340057373
1783696645880708600,0.90570849609375,0.37088701128959656,0.5779941082000732,-0.49015140533447266
1783696645890671600,0.915671630859375,0.44238951802253723,0.5732925534248352,-0.2858772575855255
1783696645900635000,0.925634765625,0.4976104497909546,0.44664356112480164,-0.03751564770936966
1783696645910598000,0.935597900390625,0.49773526191711426,0.26461371779441833,0.2502559423446655
1783696645920561700,0.945561767578125,0.43880537152290344,0.05734841153025627,0.5375036597251892
1783696645930525000,0.95552490234375,0.3186560273170471,-0.12854065001010895,0.7507860660552979
1783696645940488000,0.965488037109375,0.18748176097869873,-0.23996251821517944,0.882265031337738
1783696645950451000,0.975450927734375,0.04633947089314461,-0.23629088699817657,0.9364315271377563
1783696645960413700,0.98541357421875,-0.09504587948322296,-0.1579393595457077,0.9280583262443542
1783696645970376700,0.995376708984375,-0.22728300094604492,-0.11046969890594482,0.891361653804779
1783696645980339700,1.005339599609375,-0.29317227005958557,-0.11885971575975418,0.9049320220947266
1783696645990302700,1.015302734375,-0.2606410086154938,-0.05170481279492378,1.0159939527511597
1783696646000265700,1.025265625,-0.14894084632396698,0.12924659252166748,1.2063755989074707
1783696646010229000,1.03522900390625,-0.03126368671655655,0.42822685837745667,1.403204083442688
1783696646020192800,1.04519287109375,0.053243473172187805,0.8084338307380676,1.5283132791519165
1783696646030155800,1.05515576171875,0.12509077787399292,1.1241340637207031,1.5138622522354126
1783696646040118800,1.065118896484375,0.16427865624427795,1.2437230348587036,1.3681464195251465
1783696646050081800,1.075081787109375,0.1635333001613617,1.1206058263778687,1.134716510772705
1783696646060044800,1.085044921875,0.16330774128437042,0.7846736311912537,0.898470401763916
1783696646070007800,1.0950078125,0.20250272750854492,0.37100425362586975,0.7328007817268372
1783696646079970800,1.104970703125,0.28207212686538696,0.0976044088602066,0.6496736407279968
1783696646089933800,1.114933837890625,0.3493901789188385,0.08525121957063675,0.6176947951316833
1783696646099896600,1.124896484375,0.3424510657787323,0.47725415229797363,0.6310358643531799
1783696646109859600,1.134859619140625,0.25689461827278137,1.2895928621292114,0.6951245665550232
1783696646119822800,1.14482275390625,0.11356622725725174,2.1667561531066895,0.7474365234375
1783696646129786600,1.15478662109375,-0.06108284369111061,2.6668460369110107,0.7337712049484253
1783696646139750000,1.16475,-0.2700837254524231,2.599733352661133,0.592797040939331
1783696646149713000,1.174712890625,-0.5008009672164917,2.040261745452881,0.2986440658569336
1783696646159676000,1.184676025390625,-0.7044795155525208,1.1956117153167725,-0.10126470774412155
1783696646169639000,1.194638916015625,-0.8154657483100891,0.3160865008831024,-0.5664514303207397
1783696646179601700,1.2046015625,-0.7719734311103821,-0.3811354637145996,-0.9956334233283997
1783696646189564700,1.214564697265625,-0.5418853759765625,-0.6955399513244629,-1.3050312995910645
1783696646199527700,1.224527587890625,-0.21738024055957794,-0.7352956533432007,-1.4702527523040771
1783696646209490700,1.23449072265625,0.10801692306995392,-0.6623855829238892,-1.5047047138214111
1783696646219453700,1.24445361328125,0.3851228356361389,-0.5662028193473816,-1.4393880367279053
1783696646229417700,1.254417724609375,0.5930915474891663,-0.48572292923927307,-1.3104770183563232
1783696646239380700,1.264380615234375,0.7329551577568054,-0.4168218672275543,-1.1457241773605347
1783696646249344000,1.274343994140625,0.8072460889816284,-0.3599005341529846,-0.9817816019058228
1783696646259306800,1.284306640625,0.8405795693397522,-0.3222764730453491,-0.8538119196891785
1783696646269269800,1.294269775390625,0.8524850010871887,-0.28869810700416565,-0.773934006690979
1783696646279232800,1.304232666015625,0.8622196316719055,-0.24078620970249176,-0.7366784811019897
1783696646289195800,1.31419580078125,0.8528039455413818,-0.15324553847312927,-0.7259182929992676
1783696646299158800,1.32415869140625,0.8057551980018616,-0.029464200139045715,-0.754790723323822
1783696646309121800,1.334121826171875,0.7556400299072266,0.1206575259566307,-0.8009993433952332
1783696646319084800,1.344084716796875,0.7131506204605103,0.2854938805103302,-0.8445063829421997
1783696646329048800,1.354048828125,0.6762534976005554,0.4369586706161499,-0.856865644454956
1783696646339011600,1.364011474609375,0.6266499757766724,0.5427892804145813,-0.8225132822990417
1783696646348974600,1.373974609375,0.5674750804901123,0.5889337062835693,-0.7226554751396179
1783696646358937900,1.383937744140625,0.5038366913795471,0.6145849823951721,-0.5542951822280884
1783696646368900900,1.39390087890625,0.443155974149704,0.6430134773254395,-0.33289778232574463
1783696646378863900,1.40386376953125,0.40729251503944397,0.6635826826095581,-0.07057134807109833
1783696646388827000,1.413826904296875,0.40950605273246765,0.6407556533813477,0.21042464673519135
1783696646398790000,1.423789794921875,0.4452795088291168,0.5727614164352417,0.4725548028945923
1783696646408752600,1.433752685546875,0.5386869311332703,0.4771205484867096,0.6786441206932068
1783696646418715600,1.443715576171875,0.7245383262634277,0.4224354922771454,0.8322083950042725
1783696646428679700,1.4536796875,0.9875816106796265,0.43424487113952637,0.9806279540061951
1783696646438642700,1.463642578125,1.2863996028900146,0.3911530375480652,1.1412440538406372
1783696646448605700,1.473605712890625,1.5767247676849365,0.23043683171272278,1.3232735395431519
1783696646458568700,1.483568603515625,1.7601078748703003,-0.09562277048826218,1.5024789571762085
1783696646468532000,1.493531982421875,1.7640048265457153,-0.5166776776313782,1.6821186542510986
1783696646478495000,1.503494873046875,1.5669771432876587,-0.8836735486984253,1.8702009916305542
1783696646488457700,1.513457763671875,1.1889196634292603,-1.1792879104614258,2.022988796234131
1783696646498420700,1.523420654296875,0.7328107953071594,-1.3948899507522583,2.12164044380188
1783696646508383700,1.5333837890625,0.3892379105091095,-1.4779859781265259,2.143446445465088
1783696646518346800,1.5433466796875,0.28717517852783203,-1.404283046722412,2.021073341369629
1783696646528310800,1.553310791015625,0.40949746966362,-1.0423637628555298,1.6740072965621948
1783696646538273800,1.563273681640625,0.5963605642318726,-0.2832602262496948,1.0908466577529907
1783696646548236800,1.57323681640625,0.6986584663391113,0.658422589302063,0.31623902916908264
1783696646558199800,1.58319970703125,0.6668949127197266,1.4614700078964233,-0.5215813517570496
1783696646568162600,1.59316259765625,0.5831734538078308,1.9463934898376465,-1.226041316986084
1783696646578125800,1.603125732421875,0.5398731231689453,2.070434331893921,-1.6383165121078491
1783696646588088800,1.6130888671875,0.5724536180496216,1.8753427267074585,-1.7044190168380737
1783696646598051800,1.6230517578125,0.6323260068893433,1.4704924821853638,-1.4891633987426758
1783696646608014800,1.633014892578125,0.654171347618103,1.0271426439285278,-1.1235753297805786
1783696646617977900,1.642977783203125,0.6655585169792175,0.4947488009929657,-0.7939213514328003
1783696646627942000,1.65294189453125,0.6939945816993713,-0.12497659772634506,-0.6220986843109131
1783696646637905000,1.66290478515625,0.7182828783988953,-0.6723139882087708,-0.6005278825759888
1783696646647867600,1.67286767578125,0.7734444737434387,-1.0418767929077148,-0.732077419757843
1783696646657830700,1.68283056640625,0.8550274968147278,-1.2529047727584839,-0.9453492164611816
1783696646667793700,1.692793701171875,0.9059175848960876,-1.312566876411438,-1.1191401481628418
1783696646677756700,1.702756591796875,0.9016197919845581,-1.106270432472229,-1.2168495655059814
1783696646687720000,1.712719970703125,0.8557392954826355,-0.7381862998008728,-1.260369062423706
1783696646697683000,1.722682861328125,0.8447982668876648,-0.27474483847618103,-1.2522720098495483
1783696646707646000,1.73264599609375,0.9106190800666809,0.17347705364227295,-1.1753113269805908
1783696646717610000,1.74260986328125,1.0198619365692139,0.5002447962760925,-1.026368498802185
1783696646727572700,1.75257275390625,1.1052113771438599,0.6676661372184753,-0.855412483215332
1783696646737535700,1.76253564453125,1.1308730840682983,0.6582100987434387,-0.6824018359184265
1783696646747498800,1.772498779296875,1.1070804595947266,0.4989819824695587,-0.5154592394828796
1783696646757461800,1.782461669921875,1.0461094379425049,0.30834946036338806,-0.36947140097618103
1783696646767424800,1.7924248046875,0.9352473020553589,0.19220982491970062,-0.27736446261405945
1783696646777387800,1.8023876953125,0.8201638460159302,0.20838132500648499,-0.2894440293312073
1783696646787350800,1.812350830078125,0.7468949556350708,0.3463589549064636,-0.39063331484794617
1783696646797313800,1.822313720703125,0.7059839963912964,0.5743705630302429,-0.5391833782196045
1783696646807276800,1.83227685546875,0.6929887533187866,0.846294105052948,-0.6581620573997498
1783696646817239800,1.84223974609375,0.6871753334999084,1.1099300384521484,-0.6956260800361633
1783696646827203800,1.852203857421875,0.6709667444229126,1.2946697473526,-0.6558769941329956
1783696646837166800,1.862166748046875,0.6473830938339233,1.314726710319519,-0.5680779218673706
1783696646847129600,1.872129638671875,0.6303404569625854,1.1854146718978882,-0.4300529658794403
1783696646857092600,1.882092529296875,0.625215470790863,1.0156590938568115,-0.22028271853923798
1783696646867055600,1.8920556640625,0.6087109446525574,0.8501443862915039,0.05764184147119522
1783696646877018400,1.902018310546875,0.5849880576133728,0.6990230679512024,0.35994765162467957
1783696646886981400,1.9119814453125,0.5509932637214661,0.5435110926628113,0.6238795518875122
1783696646896944600,1.921944580078125,0.5023828744888306,0.3702085018157959,0.8212940692901611
1783696646906907600,1.93190771484375,0.43936097621917725,0.17139539122581482,0.9440639615058899
1783696646916870700,1.94187060546875,0.36335915327072144,0.00024149671662598848,0.9918064475059509
1783696646926834700,1.951834716796875,0.3052787780761719,-0.14399918913841248,0.9825330376625061
1783696646936797700,1.961797607421875,0.29117122292518616,-0.22479629516601562,0.9453606605529785
1783696646946760700,1.9717607421875,0.32509511709213257,-0.2622998356819153,0.9107997417449951
1783696646956723500,1.981723388671875,0.3873917758464813,-0.27315622568130493,0.8830150365829468
1783696646966686500,1.9916865234375,0.43440619111061096,-0.21027560532093048,0.8327103853225708
1783696646976649500,2.0016494140625,0.47180017828941345,-0.13581602275371552,0.7428151369094849
1783696646986612500,2.011612548828125,0.5238428711891174,-0.08655931800603867,0.6187210083007812
1783696646996575500,2.021575439453125,0.573851466178894,-0.12770728766918182,0.4645577371120453
1783696647006538800,2.031538818359375,0.5891610980033875,-0.2566896080970764,0.343951553106308
1783696647016501500,2.04150146484375,0.5260295271873474,-0.31203943490982056,0.3193173110485077
1783696647026465500,2.051465576171875,0.36686408519744873,-0.23731184005737305,0.3485908508300781
1783696647036428500,2.061428466796875,0.19138972461223602,-0.04961250722408295,0.4059649109840393
1783696647046391600,2.0713916015625,0.06682027876377106,0.18893501162528992,0.4879327714443207
1783696647056354600,2.0813544921875,-0.02348804473876953,0.3132529854774475,0.5436421036720276
1783696647066317600,2.091317626953125,-0.05762377753853798,0.31465521454811096,0.5728904008865356
1783696647076280600,2.101280517578125,-0.03427558019757271,0.16075724363327026,0.5815954804420471
1783696647086243600,2.11124365234375,-0.02238818258047104,-0.2485804706811905,0.5160420536994934
1783696647096206300,2.121206298828125,-0.05025763064622879,-0.8459717035293579,0.31682220101356506
1783696647106169300,2.13116943359375,-0.0692216157913208,-1.3716474771499634,-0.0005269197281450033
1783696647116132600,2.141132568359375,-0.07206640392541885,-1.6129915714263916,-0.36543989181518555
1783696647126096400,2.151096435546875,-0.09637638926506042,-1.6427959203720093,-0.7729777097702026
1783696647136059600,2.1610595703125,-0.14359024167060852,-1.5722215175628662,-1.2467193603515625
1783696647146022700,2.171022705078125,-0.16272059082984924,-1.4420017004013062,-1.7327629327774048
1783696647155985700,2.180985595703125,-0.15322668850421906,-1.2757974863052368,-2.170034646987915
1783696647165948700,2.19094873046875,-0.14041267335414886,-1.0945769548416138,-2.4726524353027344
1783696647175911400,2.200911376953125,-0.1423346847295761,-0.8425394296646118,-2.583385944366455
1783696647185874400,2.21087451171875,-0.14776919782161713,-0.5525083541870117,-2.511779546737671
1783696647195837400,2.22083740234375,-0.14364582300186157,-0.2899552881717682,-2.3009116649627686
1783696647205800400,2.230800537109375,-0.12284651398658752,-0.10945788770914078,-1.9868992567062378
1783696647215763500,2.240763427734375,-0.07898958027362823,-0.037513650953769684,-1.5986430644989014
1783696647225727500,2.2507275390625,-0.013373445719480515,-0.028931621462106705,-1.1761181354522705
1783696647235690500,2.2606904296875,0.029820099472999573,-0.021342411637306213,-0.7647510766983032
1783696647245653500,2.270653564453125,-0.004014055710285902,0.008948465809226036,-0.4354422390460968
1783696647255616500,2.280616455078125,-0.08043985068798065,0.04924289137125015,-0.1934695541858673
1783696647265579500,2.29057958984375,-0.16718392074108124,0.12951433658599854,-0.023617763072252274
1783696647275542500,2.30054248046875,-0.24815839529037476,0.23391130566596985,0.08215925842523575
1783696647285505500,2.310505615234375,-0.33005669713020325,0.34731125831604004,0.14189697802066803
1783696647295468500,2.320468505859375,-0.40140223503112793,0.4639984667301178,0.17896685004234314
1783696647305431600,2.330431640625,-0.4511111080646515,0.5777838230133057,0.2147206813097
1783696647315394600,2.34039453125,-0.4733940362930298,0.6790217757225037,0.24475181102752686
1783696647325358600,2.350358642578125,-0.46394434571266174,0.7587384581565857,0.29640597105026245
1783696647335321300,2.3603212890625,-0.4511827230453491,0.8209190368652344,0.37840041518211365
1783696647345284400,2.370284423828125,-0.4508408308029175,0.8687747120857239,0.4767575263977051
1783696647355247600,2.38024755859375,-0.46474334597587585,0.8633818626403809,0.5635776519775391
1783696647365210600,2.390210693359375,-0.4707888960838318,0.8115580081939697,0.6536142230033875
1783696647375173600,2.400173583984375,-0.48525625467300415,0.7240327000617981,0.7324581742286682
1783696647385136600,2.41013671875,-0.5070918798446655,0.5957360863685608,0.7897294759750366
1783696647395099600,2.420099609375,-0.5122091174125671,0.4547174274921417,0.8117234110832214
1783696647405062400,2.4300625,-0.48195409774780273,0.3275120258331299,0.8211662769317627
1783696647415025400,2.440025390625,-0.41859695315361023,0.22627940773963928,0.8422401547431946
1783696647424988400,2.449988525390625,-0.34389498829841614,0.10395497828722,0.8719601035118103
1783696647434952400,2.459952392578125,-0.2726016342639923,-0.0707707554101944,0.8979980945587158
1783696647444915500,2.46991552734375,-0.21272413432598114,-0.29536429047584534,0.9253987073898315
1783696647454878500,2.47987841796875,-0.1850496232509613,-0.5987532138824463,0.9278597235679626
1783696647464841700,2.489841796875,-0.20437251031398773,-0.9101216197013855,0.8711203932762146
1783696647474804700,2.4998046875,-0.3219603896141052,-1.102630615234375,0.6745785474777222
1783696647484767500,2.509767578125,-0.5200083255767822,-1.046082615852356,0.3426697552204132
1783696647494730500,2.51973046875,-0.7148467898368835,-0.5782395005226135,-0.026137825101614
1783696647504693500,2.529693603515625,-0.8311420679092407,0.25829675793647766,-0.26880717277526855
1783696647514656500,2.539656494140625,-0.8914475440979004,0.979645848274231,-0.3501774072647095
1783696647524620500,2.54962060546875,-0.8957211375236511,1.1324336528778076,-0.3784342110157013
1783696647534583600,2.55958349609375,-0.8148438334465027,0.8755916953086853,-0.4051118791103363
1783696647544546600,2.569546630859375,-0.6473252177238464,0.35691797733306885,-0.438735693693161
1783696647554509600,2.579509521484375,-0.4613276720046997,-0.38884541392326355,-0.4819992780685425
1783696647564472300,2.589472412109375,-0.3254557251930237,-1.1664201021194458,-0.5412226915359497
1783696647574435600,2.599435546875,-0.21648317575454712,-1.8067736625671387,-0.6208254098892212
1783696647584398600,2.609398681640625,-0.07978169620037079,-2.212611675262451,-0.7301928997039795
1783696647594361600,2.619361572265625,0.05871200188994408,-2.3378725051879883,-0.857242226600647
1783696647604324600,2.62932470703125,0.1269371211528778,-2.1710758209228516,-0.9360361099243164
1783696647614287600,2.63928759765625,0.10332793742418289,-1.8147311210632324,-0.9492080807685852
1783696647624250600,2.649250732421875,0.03060239925980568,-1.3913767337799072,-0.9151756763458252
1783696647634214700,2.659214599609375,-0.02578391134738922,-0.9562734961509705,-0.8376592993736267
1783696647644177400,2.669177490234375,-0.03261839970946312,-0.5908365845680237,-0.7470216155052185
1783696647654140400,2.679140380859375,-0.01116743590682745,-0.33039191365242004,-0.6749327778816223
1783696647664103400,2.689103515625,-0.01142160128802061,-0.15156958997249603,-0.6732736229896545
1783696647674066400,2.69906640625,-0.03791499137878418,-0.05099824443459511,-0.7522776126861572
1783696647684029700,2.70902978515625,-0.06650432199239731,-0.06254938989877701,-0.8804337978363037
1783696647693992700,2.71899267578125,-0.07047989219427109,-0.14506982266902924,-1.0215480327606201
1783696647703955700,2.728955810546875,-0.03635867312550545,-0.19802652299404144,-1.1258070468902588
1783696647713918500,2.73891845703125,-0.004911094903945923,-0.13204123079776764,-1.1660834550857544
1783696647723881500,2.748881591796875,-0.0007659338298253715,0.0653923973441124,-1.151145339012146
1783696647733845500,2.758845458984375,-0.01945679821074009,0.3224548101425171,-1.0878093242645264
1783696647743808500,2.76880859375,-0.05374530330300331,0.5955694913864136,-0.9470035433769226
1783696647753771500,2.778771484375,-0.1011868491768837,0.8317756056785583,-0.7495881915092468
1783696647763734500,2.788734619140625,-0.14510256052017212,0.9678938388824463,-0.519952118396759
1783696647773697500,2.798697509765625,-0.16142399609088898,0.9898454546928406,-0.26207923889160156
1783696647783660500,2.80866064453125,-0.14293932914733887,0.9343588948249817,0.007359502371400595
1783696647793623600,2.81862353515625,-0.09771565347909927,0.8067495822906494,0.28566408157348633
1783696647803586600,2.828586669921875,-0.06133103370666504,0.6463803648948669,0.5586674213409424
1783696647813549600,2.838549560546875,-0.04808899760246277,0.5154263377189636,0.7881935238838196
1783696647823512600,2.8485126953125,-0.05052397772669792,0.4357545077800751,0.9546728730201721
1783696647833475600,2.8584755859375,-0.05088163912296295,0.3584006130695343,1.0608410835266113
1783696647843439600,2.868439697265625,-0.04753243923187256,0.24931861460208893,1.1253896951675415
1783696647853402600,2.878402587890625,-0.04285060241818428,0.10585307329893112,1.166967749595642
1783696647863365600,2.88836572265625,-0.044957179576158524,-0.02484113723039627,1.2125816345214844
1783696647873328400,2.898328369140625,-0.0658227801322937,-0.1120157241821289,1.2636709213256836
1783696647883291400,2.90829150390625,-0.08665818721055984,-0.1788475513458252,1.3136494159698486
1783696647893254400,2.91825439453125,-0.0875554084777832,-0.30890968441963196,1.335113763809204
1783696647903217700,2.9282177734375,-0.04788140952587128,-0.5474050045013428,1.315547227859497
1783696647913180700,2.9381806640625,0.0395863875746727,-0.7699310183525085,1.2754548788070679
1783696647923143700,2.948143798828125,0.14877575635910034,-0.79864901304245,1.2476401329040527
1783696647933106400,2.9581064453125,0.22889935970306396,-0.5097823143005371,1.2466439008712769
1783696647943069400,2.9680693359375,0.22328051924705505,0.0029891165904700756,1.1800085306167603
1783696647953033500,2.978033447265625,0.1326906979084015,0.5499086380004883,0.9897539019584656
1783696647962996500,2.98799658203125,-0.013040425255894661,1.0717417001724243,0.706850528717041
1783696647972959500,2.99795947265625,-0.1410290151834488,1.5391077995300293,0.4583342373371124
1783696647982922500,3.007922607421875,-0.18161869049072266,1.8950490951538086,0.38601234555244446
1783696647992885500,3.017885498046875,-0.1848115622997284,2.0327913761138916,0.4674004316329956
1783696648002848500,3.0278486328125,-0.20442555844783783,1.838711142539978,0.5638481378555298
1783696648012811500,3.0378115234375,-0.20667779445648193,1.2639676332473755,0.5818372964859009
1783696648022774500,3.0477744140625,-0.17775052785873413,0.3040110170841217,0.4479100704193115
1783696648032737500,3.057737548828125,-0.15370965003967285,-0.7974090576171875,0.17393285036087036
1783696648042700500,3.067700439453125,-0.09472942352294922,-1.8404864072799683,-0.15768049657344818
1783696648052664600,3.07766455078125,0.01995641179382801,-2.607403039932251,-0.49177324771881104
1783696648062627600,3.087627685546875,0.1669032871723175,-3.040346384048462,-0.8257295489311218
1783696648072590600,3.097590576171875,0.3020714819431305,-3.1595258712768555,-1.2333356142044067
1783696648082553600,3.1075537109375,0.4189358651638031,-2.93259859085083,-1.719103217124939
1783696648092516400,3.117516357421875,0.5211716890335083,-2.408574104309082,-2.16985821723938
1783696648102479400,3.127479248046875,0.5831118822097778,-1.6635855436325073,-2.452989101409912
1783696648112442400,3.1374423828125,0.5828279852867126,-0.8583031296730042,-2.515584707260132
1783696648122405600,3.147405517578125,0.5461931228637695,-0.1688157618045807,-2.377041816711426
1783696648132368600,3.15736865234375,0.4713422954082489,0.2540590763092041,-2.129136800765991
1783696648142331600,3.16733154296875,0.36524224281311035,0.3421052098274231,-1.8659508228302002
1783696648152294700,3.177294677734375,0.24761734902858734,0.15013602375984192,-1.6225807666778564
1783696648162258700,3.1872587890625,0.16514259576797485,-0.22897937893867493,-1.3771209716796875
1783696648172221400,3.197221435546875,0.11934741586446762,-0.6586966514587402,-1.1005005836486816
1783696648182184400,3.207184326171875,0.11100444197654724,-0.9769319295883179,-0.8360569477081299
1783696648192147500,3.2171474609375,0.1428995281457901,-1.0845435857772827,-0.6026636362075806
1783696648202110500,3.2271103515625,0.20501971244812012,-0.9810128808021545,-0.4143611192703247
1783696648212073500,3.237073486328125,0.27635037899017334,-0.7219410538673401,-0.28900158405303955
1783696648222036500,3.247036376953125,0.32080113887786865,-0.38823407888412476,-0.2439061850309372
1783696648231999700,3.256999755859375,0.3195553123950958,-0.05473547428846359,-0.26594147086143494
1783696648241962500,3.26696240234375,0.2788514494895935,0.2193412035703659,-0.3134775459766388
1783696648251925500,3.276925537109375,0.21063083410263062,0.40484583377838135,-0.34538382291793823
1783696648261888500,3.286888427734375,0.13823528587818146,0.4778613746166229,-0.33869457244873047
1783696648271852500,3.2968525390625,0.08179835975170135,0.4223986268043518,-0.31507766246795654
1783696648281815600,3.306815673828125,0.05413006246089935,0.28076860308647156,-0.2707482874393463
1783696648291778600,3.316778564453125,0.06450947374105453,0.15517950057983398,-0.19772253930568695
1783696648301741600,3.326741455078125,0.11238541454076767,0.0663427859544754,-0.08056653290987015
1783696648311704600,3.33670458984375,0.18945063650608063,0.005490890238434076,0.08431163430213928
1783696648321667300,3.346667236328125,0.2824738323688507,0.0026860316284000874,0.2856208384037018
1783696648331630600,3.356630615234375,0.35868898034095764,0.048155780881643295,0.5002356767654419
1783696648341593600,3.366593505859375,0.40636563301086426,0.061887938529253006,0.7171785235404968
1783696648351556600,3.376556640625,0.4543651044368744,-0.025664811953902245,0.9256917834281921
1783696648361519600,3.38651953125,0.5075864791870117,-0.1922454535961151,1.1331716775894165
1783696648371482600,3.396482666015625,0.5732637643814087,-0.39662787318229675,1.3296128511428833
1783696648381446700,3.40644677734375,0.6446564197540283,-0.4762127101421356,1.5282858610153198
1783696648391409700,3.41640966796875,0.6934276819229126,-0.3264394700527191,1.720608115196228
1783696648401372400,3.426372314453125,0.7419740557670593,0.006696133408695459,1.828370213508606
1783696648411335400,3.43633544921875,0.7862323522567749,0.43908965587615967,1.7680959701538086
1783696648421298400,3.44629833984375,0.7817890048027039,0.8150901794433594,1.4981142282485962
1783696648431261400,3.456261474609375,0.7194470763206482,1.005414605140686,1.1201125383377075
1783696648441224400,3.466224365234375,0.5991549491882324,1.0855095386505127,0.8205708265304565
1783696648451187700,3.476187744140625,0.4381950795650482,1.1309164762496948,0.7148023247718811
1783696648461150700,3.486150634765625,0.2558284401893616,1.114198088645935,0.7646572589874268
1783696648471113500,3.496113525390625,0.1112491637468338,1.0950052738189697,0.8609044551849365
1783696648481076500,3.506076416015625,0.12677617371082306,1.1447700262069702,0.9275326132774353
1783696648491040500,3.51604052734375,0.2721900939941406,1.3016533851623535,0.8698514699935913
1783696648501003500,3.52600341796875,0.3981270492076874,1.3720399141311646,0.6204293966293335
1783696648510966500,3.535966552734375,0.49117523431777954,1.3235522508621216,0.2848993241786957
1783696648520929500,3.545929443359375,0.5654965043067932,1.2054493427276611,0.0053709205240011215
1783696648530892500,3.555892578125,0.6022803783416748,1.0329314470291138,-0.15134066343307495
1783696648540855600,3.56585546875,0.6307801604270935,0.8440374135971069,-0.1875767856836319
1783696648550818600,3.575818603515625,0.6654819250106812,0.627572774887085,-0.16476228833198547
1783696648560781600,3.585781494140625,0.7105461359024048,0.3787194490432739,-0.12818890810012817
1783696648570744600,3.59574462890625,0.7644879221916199,0.1506814956665039,-0.09779798984527588
1783696648580707600,3.60570751953125,0.8134669661521912,-0.02113565243780613,-0.08430197834968567
1783696648590670600,3.615670654296875,0.8461894989013672,-0.11386638879776001,-0.09544677287340164
1783696648600634600,3.625634521484375,0.8699256777763367,-0.11237268894910812,-0.12995360791683197
1783696648610597600,3.63559765625,0.9011531472206116,-0.036987386643886566,-0.17628143727779388
1783696648620560600,3.645560546875,0.9454226493835449,0.08673723042011261,-0.22541852295398712
1783696648630523400,3.6555234375,1.0070394277572632,0.2643687427043915,-0.2799278497695923
1783696648640486400,3.665486328125,1.0764505863189697,0.49083274602890015,-0.32811063528060913
1783696648650449400,3.675449462890625,1.133733868598938,0.7455893754959106,-0.36696135997772217
1783696648660412700,3.68541259765625,1.1506551504135132,1.0190411806106567,-0.39295852184295654
1783696648670375700,3.695375732421875,1.1072919368743896,1.279956340789795,-0.4047960340976715
1783696648680338700,3.705338623046875,1.035789132118225,1.478219747543335,-0.38698408007621765
1783696648690301400,3.715301513671875,0.9619114995002747,1.5735139846801758,-0.3157743215560913
1783696648700264400,3.725264404296875,0.8880283832550049,1.5460106134414673,-0.18931743502616882
1783696648710228500,3.735228515625,0.825183629989624,1.3603172302246094,0.0018357507651671767
1783696648720191500,3.74519140625,0.7950834035873413,1.0505824089050293,0.22488722205162048
1783696648730154500,3.755154541015625,0.8076024055480957,0.6708056330680847,0.4367336630821228
1783696648740117500,3.765117431640625,0.8610017895698547,0.3431147038936615,0.6178115010261536
1783696648750080500,3.77508056640625,0.9405221939086914,0.18956267833709717,0.7629446983337402
1783696648760043500,3.78504345703125,1.0132983922958374,0.20932865142822266,0.8479958772659302
1783696648770006500,3.795006591796875,1.0664761066436768,0.3462686538696289,0.8781657814979553
1783696648779969500,3.804969482421875,1.0929062366485596,0.5132086277008057,0.8873961567878723
1783696648789932500,3.8149326171875,1.07539701461792,0.6728677749633789,0.9248005151748657
1783696648799895600,3.8248955078125,1.0162701606750488,0.8080261945724487,1.0180493593215942
1783696648809858600,3.834858642578125,0.9206831455230713,0.8640167713165283,1.1595954895019531
1783696648819822600,3.844822509765625,0.7821741700172424,0.7838815450668335,1.3132145404815674
1783696648829785600,3.85478564453125,0.6095944046974182,0.5579107403755188,1.4545477628707886
1783696648839748600,3.86474853515625,0.4259452223777771,0.23294910788536072,1.5667239427566528
1783696648849711900,3.8747119140625,0.2643813490867615,-0.14991945028305054,1.6561989784240723
1783696648859675000,3.8846748046875,0.17063260078430176,-0.4344560503959656,1.7097182273864746
1783696648869637600,3.8946376953125,0.19859924912452698,-0.49694737792015076,1.676665186882019
1783696648879600600,3.9046005859375,0.33264705538749695,-0.316133588552475,1.5169700384140015
1783696648889564000,3.91456396484375,0.5023699998855591,0.02547965943813324,1.2449371814727783
1783696648899527000,3.92452685546875,0.5995569229125977,0.36004555225372314,0.8632414937019348
1783696648909490000,3.934489990234375,0.5748161673545837,0.6689911484718323,0.4470045864582062
1783696648919453000,3.944452880859375,0.4585503041744232,1.1676592826843262,0.10831612348556519
1783696648929416000,3.954416015625,0.30842578411102295,1.7661559581756592,-0.11629142612218857
1783696648939380000,3.9643798828125,0.18460039794445038,2.2129039764404297,-0.28076407313346863
1783696648949342700,3.9743427734375,0.13681477308273315,2.3554084300994873,-0.4341440498828888
1783696648959305700,3.9843056640625,0.1462438404560089,2.178431749343872,-0.5989288091659546
1783696648969268700,3.994268798828125,0.12789759039878845,1.7542784214019775,-0.7910642027854919
1783696648979231700,4.004231689453125,0.09665077924728394,1.2230525016784668,-0.9814909100532532
1783696648989194800,4.01419482421875,0.11898378282785416,0.7236713767051697,-1.098658561706543
1783696648999158000,4.024157958984375,0.20035181939601898,0.3215063214302063,-1.1318618059158325
1783696649009121000,4.03412109375,0.2822727859020233,0.027219019830226898,-1.1076831817626953
1783696649019083800,4.044083740234375,0.32221224904060364,-0.20319746434688568,-1.127710223197937
1783696649029046800,4.054046875,0.3302334249019623,-0.39486783742904663,-1.2303218841552734
1783696649039009800,4.064009765625,0.33437973260879517,-0.5729725360870361,-1.3821965456008911
1783696649048973800,4.073973876953125,0.3419444262981415,-0.7158939838409424,-1.5393483638763428
1783696649058936800,4.083936767578125,0.36263614892959595,-0.747889518737793,-1.6551228761672974
1783696649068899800,4.09389990234375,0.3812465965747833,-0.6627600193023682,-1.7137304544448853
1783696649078862800,4.10386279296875,0.3817288875579834,-0.5022786855697632,-1.7333686351776123
1783696649088825900,4.113825927734375,0.3665645718574524,-0.2951934337615967,-1.7308591604232788
1783696649098788900,4.123788818359375,0.33556675910949707,-0.07636666297912598,-1.701847791671753
1783696649108752000,4.133751953125,0.3079034388065338,0.10277087241411209,-1.6341782808303833
1783696649118715000,4.14371484375,0.3024581968784332,0.22118641436100006,-1.5085134506225586
1783696649128678000,4.153677978515625,0.325268417596817,0.28351449966430664,-1.332006812095642
1783696649138641000,4.163640869140625,0.3529319167137146,0.31694191694259644,-1.1134878396987915
1783696649148604000,4.17360400390625,0.3679332435131073,0.35278648138046265,-0.8692554831504822
1783696649158566700,4.183566650390625,0.37646734714508057,0.40171754360198975,-0.6241551637649536
1783696649168531000,4.193531005859375,0.3937208950519562,0.46859830617904663,-0.3886728584766388
1783696649178493700,4.20349365234375,0.41704535484313965,0.546118438243866,-0.18440105020999908
1783696649188456700,4.213456787109375,0.43498387932777405,0.615314781665802,-0.017535636201500893
1783696649198419700,4.223419677734375,0.4291856288909912,0.6565949320793152,0.11305131018161774
1783696649208382700,4.2333828125,0.3906954824924469,0.6325559020042419,0.22900481522083282
1783696649218346000,4.243345947265625,0.3352714776992798,0.5447790026664734,0.35794228315353394
1783696649228309000,4.25330908203125,0.25402775406837463,0.42196738719940186,0.5187546014785767
1783696649238271700,4.263271728515625,0.13352209329605103,0.22803616523742676,0.7103357911109924
1783696649248234800,4.27323486328125,-0.022434212267398834,-0.020683903247117996,0.9315783977508545
1783696649258197800,4.28319775390625,-0.17250962555408478,-0.22474287450313568,1.1486263275146484
1783696649268160800,4.293160888671875,-0.28157299757003784,-0.3147140443325043,1.3387867212295532
1783696649278124800,4.303124755859375,-0.31807276606559753,-0.2979390323162079,1.4670299291610718
1783696649288087800,4.313087890625,-0.25982916355133057,-0.19005145132541656,1.5200928449630737
1783696649298050800,4.32305078125,-0.07991862297058105,-0.004836004693061113,1.5257834196090698
1783696649308013800,4.333013916015625,0.18626433610916138,0.2380908876657486,1.5220813751220703
1783696649317976800,4.342976806640625,0.4214458167552948,0.40555891394615173,1.4901715517044067
1783696649327939800,4.35293994140625,0.5736944675445557,0.4856494665145874,1.4043197631835938
1783696649337902800,4.36290283203125,0.5999797582626343,0.6572725772857666,1.2872216701507568
1783696649347865900,4.372865966796875,0.5554695725440979,0.741731584072113,1.1187127828598022
1783696649357828900,4.382828857421875,0.4836856722831726,0.5089669823646545,0.9093800187110901
1783696649367791900,4.3927919921875,0.3446694612503052,0.06212078407406807,0.7221046686172485
1783696649377755000,4.4027548828125,0.12155383825302124,-0.20012570917606354,0.620293140411377
1783696649387719000,4.412718994140625,-0.11201924085617065,0.052870068699121475,0.6241693496704102
1783696649397681700,4.422681640625,-0.33092543482780457,0.6765565276145935,0.6410883069038391
1783696649407644700,4.432644775390625,-0.529319703578949,1.2893035411834717,0.5311338305473328
1783696649417607700,4.442607666015625,-0.6254453063011169,1.5021896362304688,0.26711606979370117
1783696649427571000,4.452571044921875,-0.5921041369438171,1.2341539859771729,-0.05460790544748306
1783696649437534000,4.462533935546875,-0.511687695980072,0.5516159534454346,-0.34552887082099915
1783696649447497000,4.4724970703125,-0.42405155301094055,-0.3373716473579407,-0.5168833136558533
1783696649457460000,4.4824599609375,-0.30945855379104614,-1.1794191598892212,-0.5519559383392334
1783696649467422700,4.492422607421875,-0.14039205014705658,-1.7868329286575317,-0.47210314869880676
1783696649477385700,4.5023857421875,0.03095395676791668,-2.061047077178955,-0.3322483003139496
1783696649487348700,4.5123486328125,0.15481384098529816,-2.0992257595062256,-0.2157168984413147
1783696649497311700,4.522311767578125,0.23209720849990845,-2.001997947692871,-0.1790591925382614
1783696649507275800,4.53227587890625,0.2566145360469818,-1.8033198118209839,-0.19987952709197998
1783696649517238800,4.54223876953125,0.2301412969827652,-1.5235146284103394,-0.25020554661750793
1783696649527201800,4.552201904296875,0.16562381386756897,-1.255448579788208,-0.33287620544433594
1783696649537164800,4.562164794921875,0.06296724826097488,-1.0040544271469116,-0.4844602942466736
1783696649547127800,4.5721279296875,-0.075250543653965,-0.7616889476776123,-0.7145094871520996
1783696649557090800,4.5820908203125,-0.22563670575618744,-0.5279366970062256,-1.0165365934371948
1783696649567053800,4.5920537109375,-0.3685019910335541,-0.33893272280693054,-1.3397077322006226
1783696649577016800,4.602016845703125,-0.46822887659072876,-0.16812430322170258,-1.5979650020599365
1783696649586979800,4.611979736328125,-0.4934684634208679,-0.009273666888475418,-1.7389471530914307
1783696649596942800,4.62194287109375,-0.43569591641426086,0.1776806265115738,-1.7111210823059082
1783696649606905900,4.63190576171875,-0.3241555392742157,0.4079663157463074,-1.5267499685287476
1783696649616868600,4.64186865234375,-0.22816377878189087,0.6538615822792053,-1.1997281312942505
1783696649626832600,4.65183251953125,-0.18328498303890228,0.9096829295158386,-0.7820409536361694
1783696649636795600,4.661795654296875,-0.20183539390563965,1.1224596500396729,-0.3219848573207855
1783696649646759000,4.671759033203125,-0.26459091901779175,1.214694857597351,0.12135584652423859
1783696649656722000,4.681721923828125,-0.34630465507507324,1.1851468086242676,0.48378679156303406
1783696649666685000,4.691684814453125,-0.4266309440135956,1.0791209936141968,0.7536728382110596
1783696649676648000,4.70164794921875,-0.4970420002937317,0.909122884273529,0.9218837022781372
1783696649686611000,4.71161083984375,-0.5671582221984863,0.6687515377998352,0.9717375040054321
1783696649696573700,4.72157373046875,-0.652811586856842,0.37996721267700195,0.9252818822860718
1783696649706536700,4.73153662109375,-0.7186142802238464,0.12666092813014984,0.8599457144737244
1783696649716499700,4.741499755859375,-0.7587780356407166,-0.057249512523412704,0.7988184094429016
1783696649726462700,4.751462646484375,-0.7609192132949829,-0.19011755287647247,0.7407359480857849
1783696649736426000,4.761426025390625,-0.7420991063117981,-0.296230286359787,0.670048177242279
1783696649746389800,4.7713896484375,-0.7594234943389893,-0.3488599359989166,0.5697708129882812
1783696649756353000,4.78135302734375,-0.8205207586288452,-0.2630910873413086,0.4875425398349762
1783696649766316000,4.79131591796875,-0.8756875991821289,-0.07572758942842484,0.46903836727142334
1783696649776278800,4.80127880859375,-0.8934670090675354,0.09811844676733017,0.512430727481842
1783696649786241800,4.81124169921875,-0.8680442571640015,0.21896176040172577,0.6151925325393677
1783696649796204800,4.821204833984375,-0.8021023869514465,0.28660354018211365,0.7976558208465576
1783696649806167800,4.831167724609375,-0.7488721609115601,0.20974287390708923,0.995556116104126
1783696649816130800,4.841130859375,-0.6869283318519592,-0.0993799939751625,1.1463624238967896
1783696649826093800,4.85109375,-0.5898851156234741,-0.4531726837158203,1.2258071899414062
1783696649836056800,4.861056884765625,-0.5137712359428406,-0.606980562210083,1.2221680879592896
1783696649846019000,4.87101904296875,-0.5343241691589355,-0.5486594438552856,1.092720866203308
1783696649855982000,4.880982177734375,-0.7060829401016235,-0.47561848163604736,0.8245946764945984
1783696649865946000,4.890946044921875,-0.9518095850944519,-0.3462362587451935,0.4755091071128845
1783696649875909000,4.9009091796875,-1.1153154373168945,-0.08058879524469376,0.14677421748638153
1783696649885872000,4.9108720703125,-1.1524652242660522,0.0027132872492074966,-0.1774560660123825
1783696649895835000,4.9208349609375,-1.1138769388198853,-0.17153838276863098,-0.4640331566333771
1783696649905798000,4.9307978515625,-1.0895553827285767,-0.327176958322525,-0.6449973583221436
1783696649915761000,4.940760986328125,-1.1247906684875488,-0.4774990975856781,-0.7514318227767944
1783696649925724000,4.950723876953125,-1.143996000289917,-0.6371004581451416,-0.793907105922699
1783696649935687200,4.960687255859375,-1.1107606887817383,-0.7576810717582703,-0.7276469469070435
1783696649945650200,4.970650146484375,-1.0171431303024292,-0.7769078016281128,-0.5458337068557739
1783696649955613200,4.98061328125,-0.9299759864807129,-0.755431592464447,-0.34348994493484497
1783696649965576000,4.990575927734375,-0.9356051087379456,-0.8015540838241577,-0.23792597651481628
1783696649975539000,5.0005390625,-1.01863431930542,-0.9172285795211792,-0.2877300977706909
1783696649985503000,5.0105029296875,-1.0888304710388184,-0.9889310002326965,-0.47819751501083374
1783696649995466000,5.020466064453125,-1.0854412317276,-0.9478386044502258,-0.7606440186500549
1783696650005429000,5.030428955078125,-0.9912821650505066,-0.805797815322876,-1.073415756225586
1783696650015392000,5.04039208984375,-0.8488218188285828,-0.6481768488883972,-1.3505851030349731
1783696650025355000,5.05035498046875,-0.6991194486618042,-0.6247671246528625,-1.5122605562210083
1783696650035318000,5.060318115234375,-0.5608903765678406,-0.6805567741394043,-1.5185325145721436
1783696650045281000,5.070281005859375,-0.44533345103263855,-0.7245221138000488,-1.3587303161621094
1783696650055244000,5.080244140625,-0.3679102957248688,-0.7783918976783752,-1.093651533126831
1783696650065207000,5.09020703125,-0.3583727180957794,-0.8793382048606873,-0.8906461596488953
1783696650075170000,5.100170166015625,-0.3763076961040497,-0.9647002220153809,-0.8472211956977844
1783696650085133000,5.110133056640625,-0.3757910430431366,-0.9079881906509399,-0.8887428045272827
1783696650095096000,5.120095947265625,-0.3404613137245178,-0.6089638471603394,-0.9337804913520813
1783696650105060000,5.13006005859375,-0.292140394449234,-0.11668653786182404,-0.8996214270591736
1783696650115023000,5.140023193359375,-0.26628929376602173,0.39788806438446045,-0.7536542415618896
1783696650124985900,5.14998583984375,-0.3175961375236511,0.7561809420585632,-0.543079137802124
1783696650134948900,5.159948974609375,-0.44070637226104736,0.8590292930603027,-0.301524817943573
1783696650144912100,5.169912109375,-0.5765914916992188,0.7510855197906494,-0.048226527869701385
1783696650154875100,5.179875244140625,-0.6822280287742615,0.505494236946106,0.22718383371829987
1783696650164838100,5.189838134765625,-0.7529149651527405,0.18065938353538513,0.5082383751869202
1783696650174801200,5.19980126953125,-0.8134869337081909,-0.1082880049943924,0.7723612189292908
1783696650184764200,5.20976416015625,-0.8621591329574585,-0.3033083379268646,0.998665988445282
1783696650194727000,5.219726806640625,-0.9145858287811279,-0.398326575756073,1.1865659952163696
1783696650204690000,5.22968994140625,-0.959420382976532,-0.4042355716228485,1.379089117050171
1783696650214653000,5.23965283203125,-0.9939884543418884,-0.3907814025878906,1.568481206893921
1783696650224617000,5.249616943359375,-1.0150644779205322,-0.4006132483482361,1.7554556131362915
1783696650234580000,5.259580078125,-1.0328413248062134,-0.4696868360042572,1.909988284111023
1783696650244543000,5.26954296875,-1.0620766878128052,-0.6272242665290833,1.9969210624694824
1783696650254506000,5.279506103515625,-1.0581996440887451,-0.8920905590057373,2.001326560974121
1783696650264469200,5.28946923828125,-0.966400146484375,-1.173027515411377,1.9282207489013672
1783696650274432000,5.299431884765625,-0.7944799661636353,-1.301116704940796,1.793461799621582
1783696650284395000,5.30939501953125,-0.607704758644104,-1.1871147155761719,1.6135231256484985
1783696650294981000,5.319981201171875,-0.4237930476665497,-0.8398522734642029,1.3956098556518555
1783696650304944000,5.329944091796875,-0.27812719345092773,-0.427897185087204,1.1932028532028198
1783696650314907100,5.3399072265625,-0.24342498183250427,-0.11334064602851868,0.9413860440254211
1783696650324870100,5.3498701171875,-0.3814782202243805,0.024700582027435303,0.6285071969032288
1783696650334833200,5.359833251953125,-0.6379413604736328,0.0615985244512558,0.3777623474597931
1783696650344797200,5.369797119140625,-0.9027751088142395,-0.007079070899635553,0.32902729511260986
1783696650354760000,5.379760009765625,-1.0694655179977417,-0.24579277634620667,0.4789606034755707
1783696650364723000,5.389722900390625,-1.104485273361206,-0.7080908417701721,0.6781620979309082
1783696650374686000,5.39968603515625,-1.0837911367416382,-1.3252182006835938,0.7248333692550659
1783696650384649000,5.40964892578125,-1.083072543144226,-1.8832745552062988,0.5494269728660583
1783696650394612000,5.419612060546875,-1.0775505304336548,-2.212982177734375,0.22441627085208893
1783696650404575200,5.4295751953125,-0.9948524832725525,-2.2281363010406494,-0.10255572199821472
1783696650414538200,5.439538330078125,-0.8380168676376343,-2.0769946575164795,-0.384060263633728
1783696650424501000,5.4495009765625,-0.6759629845619202,-1.8301011323928833,-0.6086390614509583
1783696650434464000,5.459464111328125,-0.5840741395950317,-1.564919352531433,-0.8233109712600708
1783696650444427000,5.469427001953125,-0.5799942016601562,-1.3667559623718262,-1.0330240726470947
1783696650454390000,5.47939013671875,-0.6495217680931091,-1.2625508308410645,-1.2372069358825684
1783696650464354000,5.48935400390625,-0.7542639374732971,-1.211024522781372,-1.4176747798919678
1783696650474317000,5.499317138671875,-0.8687050938606262,-1.1873451471328735,-1.5741922855377197
1783696650484280000,5.509280029296875,-0.9645373225212097,-1.1750363111495972,-1.7009934186935425
1783696650494243000,5.5192431640625,-1.036205768585205,-1.1583319902420044,-1.7721848487854004
1783696650504205800,5.529205810546875,-1.0672814846038818,-1.1243386268615723,-1.781280279159546
1783696650514169000,5.539169189453125,-1.0613058805465698,-1.0798773765563965,-1.7147712707519531
1783696650524132000,5.549132080078125,-1.0216045379638672,-0.9956550002098083,-1.578642725944519
1783696650534095000,5.55909521484375,-0.988533079624176,-0.8597570657730103,-1.391448736190796
1783696650544058000,5.56905810546875,-0.9443605542182922,-0.6894047856330872,-1.1467548608779907
1783696650554021000,5.579021240234375,-0.8811025619506836,-0.5151420831680298,-0.8624387979507446
1783696650563984100,5.588984130859375,-0.8244936466217041,-0.40605607628822327,-0.5712026953697205
1783696650573947000,5.59894677734375,-0.8348445892333984,-0.3426804840564728,-0.27369382977485657
1783696650583910000,5.608909912109375,-0.8877962231636047,-0.28067252039909363,0.0334772989153862
1783696650593874000,5.6188740234375,-0.9502743482589722,-0.22906017303466797,0.3152580261230469
1783696650603837000,5.6288369140625,-0.9888486266136169,-0.19377516210079193,0.5625889897346497
1783696650613800000,5.638800048828125,-0.9963894486427307,-0.1604301482439041,0.7688284516334534
1783696650623763200,5.64876318359375,-0.9920498132705688,-0.11957670748233795,0.928294837474823
1783696650633726200,5.658726318359375,-0.9949517846107483,-0.07463576644659042,1.0512045621871948
1783696650644311000,5.66931103515625,-1.0136173963546753,-0.022486014291644096,1.1531485319137573
1783696650654274000,5.679274169921875,-1.0500677824020386,0.039742205291986465,1.2235015630722046
1783696650664237000,5.689237060546875,-1.0994880199432373,0.09534448385238647,1.271878957748413
1783696650674200000,5.699199951171875,-1.1576628684997559,0.10045808553695679,1.2996286153793335
1783696650684163000,5.7091630859375,-1.2179546356201172,0.028895216062664986,1.308258295059204
1783696650694126000,5.7191259765625,-1.2557293176651,-0.0536750964820385,1.307159662246704
1783696650704090000,5.729090087890625,-1.272190809249878,-0.137100487947464,1.305368185043335
1783696650714053000,5.73905322265625,-1.2755223512649536,-0.28846868872642517,1.29352605342865
1783696650724015900,5.749015869140625,-1.2680047750473022,-0.4869908392429352,1.2791694402694702
1783696650733979000,5.758978759765625,-1.234331488609314,-0.581911563873291,1.2803202867507935
1783696650743942100,5.768942138671875,-1.1640024185180664,-0.4974835216999054,1.3119306564331055
1783696650753905200,5.7789052734375,-1.0479826927185059,-0.3436271548271179,1.3246415853500366
1783696650763868200,5.7888681640625,-0.8981146812438965,-0.34778809547424316,1.2752742767333984
1783696650773831200,5.7988310546875,-0.7309814691543579,-0.5980172753334045,1.1388771533966064
1783696650783794000,5.8087939453125,-0.5856778621673584,-0.8932721018791199,0.8934273719787598
1783696650793757000,5.8187568359375,-0.45833101868629456,-0.9644852876663208,0.5890308022499084
1783696650803720000,5.828719970703125,-0.3329738974571228,-0.7337521910667419,0.3220779597759247
1783696650813684000,5.83868408203125,-0.23220759630203247,-0.33755484223365784,0.15405882894992828
1783696650823647000,5.84864697265625,-0.12794990837574005,0.013529700227081776,0.1216103583574295
1783696650833610000,5.85860986328125,-0.007820436730980873,0.13675352931022644,0.186659574508667
1783696650843573000,5.868572998046875,0.12013273686170578,-0.00477776862680912,0.29324617981910706
1783696650853536300,5.878536376953125,0.2080288827419281,-0.426474392414093,0.3480301797389984
1783696650863499300,5.888499267578125,0.23224873840808868,-1.0065186023712158,0.34118637442588806
1783696650873462300,5.898462158203125,0.24515525996685028,-1.4491032361984253,0.3467215895652771
1783696650883425300,5.90842529296875,0.3342917859554291,-1.6408990621566772,0.4240986704826355
1783696650893388300,5.91838818359375,0.4595819413661957,-1.692474603652954,0.5144543051719666
1783696650903351300,5.928351318359375,0.5510131120681763,-1.7120410203933716,0.544681966304779
1783696650913314000,5.93831396484375,0.622521698474884,-1.6896891593933105,0.4909122586250305
1783696650923277000,5.948277099609375,0.6911665201187134,-1.5739710330963135,0.4024580121040344
1783696650933241000,5.958240966796875,0.7447870373725891,-1.3668733835220337,0.2940094769001007
1783696650943204000,5.9682041015625,0.7494182586669922,-1.1573028564453125,0.15325766801834106
1783696650953167000,5.9781669921875,0.6893993616104126,-1.0184308290481567,-0.036041054874658585
1783696650963130000,5.988130126953125,0.5844135284423828,-0.9382392764091492,-0.26758745312690735
1783696650973093400,5.99809326171875,0.46298760175704956,-0.8461145758628845,-0.5356482267379761
1783696650983056400,6.008056396484375,0.34449291229248047,-0.6950256824493408,-0.8260946869850159
1783696650993019100,6.01801904296875,0.22405900061130524,-0.45375895500183105,-1.103423833847046
1783696651002982100,6.027982177734375,0.0997500866651535,-0.0837755873799324,-1.3079103231430054
1783696651012945200,6.037945068359375,-0.0178359542042017,0.39901432394981384,-1.408170461654663
1783696651022908200,6.047908203125,-0.13874560594558716,0.924088180065155,-1.4153279066085815
1783696651032871200,6.05787109375,-0.2760319411754608,1.3921706676483154,-1.331260085105896
1783696651042835200,6.067835205078125,-0.4203779399394989,1.74336576461792,-1.1429647207260132
1783696651052798200,6.077798095703125,-0.5432541370391846,1.9568440914154053,-0.8886935114860535
1783696651062761200,6.08776123046875,-0.6208099126815796,2.0175037384033203,-0.5982539653778076
1783696651072724200,6.09772412109375,-0.6390083432197571,1.9248517751693726,-0.2858717441558838
1783696651082687200,6.107687255859375,-0.6341845393180847,1.7145129442214966,0.03140793740749359
1783696651092650200,6.117650146484375,-0.6359010338783264,1.4282146692276,0.33821749687194824
1783696651102613200,6.12761328125,-0.6633877754211426,1.090185284614563,0.5939083695411682
1783696651112576300,6.137576171875,-0.7041305899620056,0.7027562856674194,0.7881445288658142
1783696651122539300,6.147539306640625,-0.7416284084320068,0.25778231024742126,0.9437101483345032
1783696651132502300,6.157502197265625,-0.7504734396934509,-0.13786332309246063,1.1457009315490723
1783696651142465000,6.167465087890625,-0.7537736296653748,-0.470645010471344,1.390726089477539
1783696651152428000,6.177427978515625,-0.7735037207603455,-0.786363422870636,1.6079556941986084
1783696651162392000,6.18739208984375,-0.8253676891326904,-1.003188133239746,1.7136832475662231
1783696651172355000,6.19735498046875,-0.8476319909095764,-1.074968695640564,1.7288055419921875
1783696651182318300,6.207318359375,-0.8032791614532471,-0.9637427926063538,1.6835699081420898
1783696651192281300,6.21728125,-0.66633141040802,-0.7360975742340088,1.6029634475708008
1783696651202244400,6.227244384765625,-0.4598195254802704,-0.492405503988266,1.4857300519943237
1783696651212207400,6.237207275390625,-0.23669469356536865,-0.278641939163208,1.3481581211090088
1783696651222170000,6.247170166015625,-0.04338034987449646,-0.031292859464883804,1.2221821546554565
1783696651232133000,6.257133056640625,0.1310947686433792,0.18722479045391083,1.0952173471450806
1783696651242096000,6.26709619140625,0.25253838300704956,0.21192800998687744,0.9367770552635193
1783696651252059100,6.27705908203125,0.27114200592041016,0.0459849089384079,0.7466029524803162
1783696651262022100,6.287022216796875,0.18173916637897491,-0.06845937669277191,0.5757678151130676
1783696651271985400,6.2969853515625,0.02769383229315281,0.016887489706277847,0.47913840413093567
1783696651281949200,6.30694921875,-0.17939890921115875,0.17690697312355042,0.3899075984954834
1783696651291912200,6.316912109375,-0.35855886340141296,0.3883223831653595,0.2521173357963562
1783696651301875200,6.326875244140625,-0.39061081409454346,0.6119669675827026,0.059260785579681396
1783696651311838200,6.336838134765625,-0.25847816467285156,0.6409674286842346,-0.23270796239376068
1783696651321801200,6.34680126953125,-0.05122349038720131,0.3734142780303955,-0.5958552956581116
1783696651331764200,6.35676416015625,0.12597185373306274,-0.10045065730810165,-0.9563930034637451
1783696651341727200,6.366727294921875,0.2526664137840271,-0.4483897387981415,-1.2234148979187012
1783696651351690200,6.376690185546875,0.3532845377922058,-0.4956783056259155,-1.3633689880371094
1783696651361653000,6.386653076171875,0.4348725974559784,-0.3410775363445282,-1.4284707307815552
1783696651371616000,6.396615966796875,0.4592507779598236,-0.10048506408929825,-1.4486061334609985
1783696651381579300,6.406579345703125,0.4046080410480499,0.06209558993577957,-1.4326598644256592
1783696651391543000,6.41654296875,0.30136755108833313,0.10373465716838837,-1.34619140625
1783696651401506300,6.42650634765625,0.17435607314109802,0.02860368974506855,-1.1983354091644287
1783696651411469300,6.43646923828125,0.029349537566304207,-0.14434999227523804,-1.0443984270095825
1783696651421432300,6.446432373046875,-0.09538546949625015,-0.43148723244667053,-0.9421399831771851
1783696651431395300,6.456395263671875,-0.14679761230945587,-0.7705090641975403,-0.8978662490844727
1783696651441358000,6.466358154296875,-0.12533973157405853,-1.025373101234436,-0.9188562035560608
1783696651451321000,6.476321044921875,-0.038321517407894135,-1.0879610776901245,-1.001877784729004
1783696651461284000,6.4862841796875,0.08121579885482788,-0.8883198499679565,-1.1018818616867065
1783696651471247000,6.4962470703125,0.17967253923416138,-0.4503811001777649,-1.1792758703231812
1783696651481210000,6.506210205078125,0.20619840919971466,0.07887902855873108,-1.1967846155166626
1783696651491173400,6.51617333984375,0.15199005603790283,0.530989944934845,-1.1265177726745605
1783696651501136400,6.526136474609375,0.04416240006685257,0.791373610496521,-0.9792777895927429
1783696651511099100,6.53609912109375,-0.054752737283706665,0.8303294777870178,-0.7510035634040833
1783696651521063200,6.546063232421875,-0.1030891090631485,0.7276790142059326,-0.4605587124824524
1783696651531026200,6.556026123046875,-0.1260676234960556,0.5342685580253601,-0.146260604262352
1783696651540989200,6.5659892578125,-0.12538425624370575,0.32040926814079285,0.17180632054805756
1783696651550952200,6.5759521484375,-0.10647468268871307,0.18908065557479858,0.4835665225982666
1783696651560915200,6.585915283203125,-0.09567476809024811,0.12861411273479462,0.7406228184700012
1783696651570878200,6.595878173828125,-0.11404770612716675,0.11924529820680618,0.9202389717102051
1783696651580841200,6.60584130859375,-0.17291927337646484,0.1544027477502823,1.01693856716156
1783696651590804200,6.61580419921875,-0.26710161566734314,0.23056578636169434,1.0434495210647583
1783696651600767200,6.625767333984375,-0.37297290563583374,0.29195642471313477,1.0053855180740356
1783696651610730200,6.635730224609375,-0.4721618890762329,0.31909433007240295,0.9184151291847229
1783696651620693200,6.645693359375,-0.5427297949790955,0.3127133846282959,0.8156549334526062
1783696651630657300,6.6556572265625,-0.5743293762207031,0.24847960472106934,0.7259925603866577
1783696651640620300,6.665620361328125,-0.5850052237510681,0.15047422051429749,0.658352255821228
1783696651650583300,6.675583251953125,-0.566579282283783,0.06133931502699852,0.6200610995292664
1783696651660546300,6.68554638671875,-0.5420252084732056,-0.06701306253671646,0.560623824596405
1783696651670509000,6.695509033203125,-0.4682537913322449,-0.2781488001346588,0.46008285880088806
1783696651680472000,6.70547216796875,-0.3066316246986389,-0.4114770293235779,0.4000919759273529
1783696651690435000,6.71543505859375,-0.12094144523143768,-0.32619258761405945,0.420423686504364
1783696651700398000,6.725398193359375,0.03228805586695671,-0.015162816271185875,0.49867987632751465
1783696651710361300,6.735361328125,0.12172988057136536,0.3899424374103546,0.5633425116539001
1783696651720324400,6.745324462890625,0.12794624269008636,0.71369868516922,0.5268808603286743
1783696651730287400,6.755287353515625,0.033810727298259735,0.8993580937385559,0.37559035420417786
1783696651740250000,6.76525,-0.08917085081338882,1.022800087928772,0.20788656175136566
1783696651750214100,6.775214111328125,-0.22644947469234467,1.0519102811813354,0.07393879443407059
1783696651760177200,6.78517724609375,-0.3748141825199127,0.9455553293228149,-0.027890361845493317
1783696651770140200,6.79514013671875,-0.4889029562473297,0.8074455857276917,-0.1253989040851593
1783696651780103200,6.805103271484375,-0.5631864666938782,0.5824571847915649,-0.29830995202064514
1783696651790066200,6.815066162109375,-0.6141456961631775,0.19113856554031372,-0.6329832673072815
1783696651800029200,6.825029296875,-0.566824734210968,-0.22383944690227509,-1.034379005432129
1783696651809992200,6.8349921875,-0.32616105675697327,-0.5137479901313782,-1.3131732940673828
1783696651819955200,6.844955078125,0.06355316936969757,-0.7209195494651794,-1.3719284534454346
1783696651829918200,6.854918212890625,0.46985915303230286,-0.8841663002967834,-1.235912561416626
1783696651839881200,6.864881103515625,0.765018105506897,-1.0088136196136475,-0.9863666892051697
1783696651849844000,6.874843994140625,0.9110316634178162,-1.0578850507736206,-0.7254201173782349
1783696651859807000,6.884806884765625,0.9514560103416443,-1.0529671907424927,-0.5438865423202515
1783696651869770000,6.89477001953125,0.9125689268112183,-0.9780027270317078,-0.46845194697380066
1783696651879734000,6.904734130859375,0.8014392256736755,-0.8552698493003845,-0.5204709768295288
1783696651889697000,6.914697021484375,0.6451399326324463,-0.7507107257843018,-0.697744607925415
1783696651899660000,6.924659912109375,0.48340803384780884,-0.6825314164161682,-0.9559345841407776
1783696651909623000,6.934623046875,0.36664053797721863,-0.6650373935699463,-1.2274309396743774
1783696651919586000,6.9445859375,0.30656495690345764,-0.6690244078636169,-1.4507633447647095
1783696651929549000,6.954549072265625,0.29220789670944214,-0.6112701296806335,-1.5775067806243896
1783696651939512000,6.964511962890625,0.29722875356674194,-0.4443839192390442,-1.5698693990707397
1783696651949475000,6.97447509765625,0.2682078182697296,-0.2195245921611786,-1.4276371002197266
1783696651959438000,6.98443798828125,0.19964979588985443,0.023780206218361855,-1.1688835620880127
1783696651969401000,6.994401123046875,0.1149495542049408,0.2540144622325897,-0.8132710456848145
1783696651979363800,7.00436376953125,-0.005402156617492437,0.43432965874671936,-0.4204563796520233
1783696651989326800,7.014326904296875,-0.13857121765613556,0.5490230917930603,-0.05743369832634926
1783696651999291000,7.024290771484375,-0.25793012976646423,0.6214115619659424,0.2460649311542511
1783696652009254000,7.03425390625,-0.3367614448070526,0.6845760345458984,0.4951392114162445
1783696652019217000,7.044216796875,-0.3840370774269104,0.733478307723999,0.6932714581489563
1783696652029180200,7.05418017578125,-0.4202473759651184,0.7773953080177307,0.8411892652511597
1783696652039143200,7.06414306640625,-0.45849302411079407,0.8466289639472961,0.965273380279541
1783696652049106200,7.074106201171875,-0.49426406621932983,0.9435579180717468,1.0561740398406982
1783696652059069000,7.08406884765625,-0.5295432806015015,1.0603628158569336,1.1165971755981445
1783696652069032000,7.094031982421875,-0.5718054175376892,1.1675686836242676,1.1483895778656006
1783696652078995000,7.103994873046875,-0.6226806044578552,1.1700270175933838,1.144129753112793
1783696652088958000,7.1139580078125,-0.6462878584861755,1.012218713760376,1.1258925199508667
1783696652098921000,7.1239208984375,-0.6430659890174866,0.7071866989135742,1.1098195314407349
1783696652108884200,7.13388427734375,-0.6393554210662842,0.29696887731552124,1.086310625076294
1783696652118847200,7.14384716796875,-0.5990031957626343,-0.1400068700313568,1.0606560707092285
1783696652128811000,7.15381103515625,-0.5123264193534851,-0.5450899004936218,1.0102498531341553
1783696652138774000,7.16377392578125,-0.3827815353870392,-0.8613927364349365,0.9371681809425354
1783696652148737000,7.173737060546875,-0.2349075973033905,-1.0352802276611328,0.8375407457351685
1783696652158700000,7.183699951171875,-0.08892802894115448,-1.013698697090149,0.7027429938316345
1783696652168663000,7.1936630859375,0.04056154936552048,-0.6925585865974426,0.5153933763504028
1783696652178626000,7.2036259765625,0.12882377207279205,-0.059200823307037354,0.33622315526008606
1783696652188589000,7.213589111328125,0.19564612209796906,0.6097097992897034,0.2419682890176773
1783696652198552000,7.223552001953125,0.153457909822464,0.868029773235321,0.20790858566761017
1783696652208514800,7.233514892578125,0.009341076947748661,0.8242940306663513,0.27163252234458923
1783696652218478000,7.24347802734375,-0.17140446603298187,0.707304060459137,0.5022236108779907
1783696652228441000,7.253441162109375,-0.38302820920944214,0.4720686376094818,0.7619537711143494
1783696652238404000,7.263404052734375,-0.549639880657196,0.19060607254505157,0.8997768759727478
1783696652248367000,7.2733671875,-0.5804260969161987,-0.12387342751026154,0.8859308958053589
1783696652258331100,7.2833310546875,-0.46372318267822266,-0.4808027744293213,0.7437308430671692
1783696652268294100,7.293294189453125,-0.26995766162872314,-0.8927402496337891,0.5019344687461853
1783696652278257200,7.303257080078125,-0.0702623724937439,-1.3440887928009033,0.20457234978675842
1783696652288220000,7.313219970703125,0.07761023193597794,-1.7140337228775024,-0.12469644099473953
1783696652298183000,7.323182861328125,0.1656905561685562,-1.906485915184021,-0.4563028812408447
1783696652308146000,7.33314599609375,0.21438336372375488,-1.907116174697876,-0.7637054324150085
1783696652318109000,7.34310888671875,0.2810705006122589,-1.7932943105697632,-0.9859299659729004
1783696652328072200,7.353072265625,0.3844121992588043,-1.5732542276382446,-1.0834004878997803
1783696652338035200,7.36303515625,0.5017426013946533,-1.2488592863082886,-1.0307731628417969
1783696652347998200,7.372998291015625,0.6008919477462769,-0.9072100520133972,-0.8573373556137085
1783696652357961000,7.3829609375,0.6770612597465515,-0.6741788983345032,-0.6287103295326233
1783696652367924000,7.392924072265625,0.7151772975921631,-0.6004292964935303,-0.4114740490913391
1783696652377888000,7.402887939453125,0.726914644241333,-0.6312764286994934,-0.26255062222480774
1783696652387851000,7.41285107421875,0.7302855253219604,-0.677353024482727,-0.19332335889339447
1783696652397814000,7.42281396484375,0.7357540726661682,-0.6666710376739502,-0.21062564849853516
1783696652407777000,7.432777099609375,0.6902523636817932,-0.5538984537124634,-0.3297317922115326
1783696652417740000,7.442739990234375,0.5899348258972168,-0.32523226737976074,-0.49693116545677185
1783696652427703000,7.452703125,0.44229748845100403,-0.023727240040898323,-0.6792303919792175
1783696652437666000,7.462666015625,0.2860511541366577,0.2952424883842468,-0.8426206707954407
1783696652447629000,7.472629150390625,0.15405017137527466,0.6174713373184204,-0.9249043464660645
1783696652457592000,7.482592041015625,0.06495518982410431,0.8886967301368713,-0.9131443500518799
1783696652467555000,7.49255517578125,0.0059227002784609795,1.0560309886932373,-0.8251550197601318
1783696652477518000,7.50251806640625,-0.027890389785170555,1.0977293252944946,-0.6824074387550354
1783696652487481000,7.512481201171875,-0.07121425122022629,1.0098063945770264,-0.49956652522087097
1783696652497444000,7.522444091796875,-0.13159982860088348,0.8298504948616028,-0.3030300438404083
1783696652507406800,7.53240673828125,-0.20106305181980133,0.620107889175415,-0.11364894360303879
1783696652517371000,7.542370849609375,-0.30073851346969604,0.45134127140045166,0.04872051998972893
1783696652527334000,7.552333984375,-0.44242480397224426,0.3596566319465637,0.19103878736495972
1783696652537297000,7.562296875,-0.5760720372200012,0.3844871520996094,0.32856228947639465
1783696652547260200,7.57226025390625,-0.6488708257675171,0.47758248448371887,0.46475619077682495
1783696652557223200,7.58222314453125,-0.6210421323776245,0.6468764543533325,0.6181854009628296
1783696652567186200,7.592186279296875,-0.5078827142715454,0.8409463167190552,0.7616499662399292
1783696652577149200,7.602149169921875,-0.39804354310035706,0.7614192962646484,0.8158932328224182
1783696652587112000,7.61211181640625,-0.3729025721549988,0.3430030345916748,0.7941945791244507
1783696652597075000,7.622074951171875,-0.41081079840660095,-0.16123858094215393,0.7886866331100464
1783696652607038000,7.632037841796875,-0.43716034293174744,-0.5042591691017151,0.8970356583595276
1783696652617001000,7.6420009765625,-0.4149048328399658,-0.5924252271652222,1.1067599058151245
1783696652626964000,7.6519638671875,-0.37013015151023865,-0.6243162751197815,1.3068485260009766
1783696652636928000,7.661927978515625,-0.2892102599143982,-0.6081274747848511,1.4221314191818237
1783696652646891000,7.67189111328125,-0.15390640497207642,-0.47277337312698364,1.4039716720581055
1783696652656854300,7.681854248046875,0.03661320358514786,-0.23558638989925385,1.24478280544281
1783696652666817000,7.691817138671875,0.2791560888290405,-0.0928158313035965,0.9819735884666443
1783696652676780000,7.701780029296875,0.508135199546814,-0.14622339606285095,0.636126697063446
1783696652686743000,7.711742919921875,0.6252259016036987,-0.20434129238128662,0.3019103407859802
1783696652696706000,7.7217060546875,0.5635033845901489,-0.0493791438639164,0.10917151719331741
1783696652706669000,7.7316689453125,0.34711697697639465,0.2388872653245926,0.07077690958976746
1783696652716632000,7.741632080078125,0.1356518715620041,0.515886127948761,0.11675585061311722
1783696652726594800,7.7515947265625,0.044163331389427185,0.5706272721290588,0.09037377685308456
1783696652736558000,7.76155810546875,0.11507612466812134,0.30428823828697205,-0.09400086104869843
1783696652746521000,7.77152099609375,0.20989982783794403,-0.09770610928535461,-0.4264320433139801
1783696652756484000,7.781484130859375,0.2527141273021698,-0.5054853558540344,-0.8198086619377136
1783696652766448000,7.7914482421875,0.30168741941452026,-0.8464878797531128,-1.165855050086975
1783696652776411100,7.8014111328125,0.4285662770271301,-1.1035553216934204,-1.3852367401123047
1783696652786374100,7.8113740234375,0.6261594295501709,-1.202449083328247,-1.4599531888961792
1783696652796337200,7.821337158203125,0.8114102482795715,-1.1198104619979858,-1.4177085161209106
1783696652806300000,7.8312998046875,0.9049941301345825,-0.8850663304328918,-1.3000761270523071
1783696652816263000,7.841262939453125,0.9025890827178955,-0.54179447889328,-1.1374602317810059
1783696652826226000,7.851225830078125,0.8714349865913391,-0.12527000904083252,-0.9573516249656677
1783696652836189000,7.86118896484375,0.8339653611183167,0.26674649119377136,-0.798263430595398
1783696652846152200,7.871152099609375,0.8141185641288757,0.5473967790603638,-0.6498580574989319
1783696652856115200,7.881115234375,0.7797861695289612,0.7605159878730774,-0.5088162422180176
1783696652866078200,7.891078125,0.7214972972869873,0.8920150995254517,-0.3838747441768646
1783696652876041200,7.901041259765625,0.6549472808837891,0.9147238731384277,-0.2893250584602356
1783696652886004200,7.911004150390625,0.5996262431144714,0.8358018398284912,-0.20179282128810883
1783696652895968300,7.92096826171875,0.5442183613777161,0.7101597785949707,-0.10314562171697617
1783696652905931300,7.93093115234375,0.4751953184604645,0.5853013396263123,0.007344943005591631
1783696652915894300,7.940894287109375,0.4015330970287323,0.5290343761444092,0.11510603129863739
1783696652925857000,7.95085693359375,0.3362952768802643,0.5870401263237,0.20161153376102448
1783696652935820000,7.960820068359375,0.2942540943622589,0.7581300735473633,0.2954091429710388
1783696652945783000,7.970782958984375,0.2438836693763733,1.0198423862457275,0.40347611904144287
1783696652955746000,7.98074609375,0.1985739767551422,1.2633739709854126,0.5174082517623901
1783696652965709300,7.990709228515625,0.16976886987686157,1.4099985361099243,0.6377296447753906
1783696652975672300,8.00067236328125,0.16355891525745392,1.4600560665130615,0.7465234994888306
1783696652985635300,8.01063525390625,0.15174515545368195,1.4521069526672363,0.8432863354682922
1783696652995598000,8.02059814453125,0.10816039144992828,1.4133765697479248,0.9313645362854004
1783696653005561000,8.03056103515625,0.02855507656931877,1.3314028978347778,1.0106186866760254
1783696653015524000,8.040524169921875,-0.0902962014079094,1.1871063709259033,1.0823653936386108
1783696653025487000,8.050487060546875,-0.240205779671669,0.994217038154602,1.1494685411453247
1783696653035451100,8.060451171875,-0.39397379755973816,0.7992539405822754,1.221484899520874
1783696653045414100,8.0704140625,-0.5186260342597961,0.6349784731864929,1.3130826950073242
1783696653055377200,8.080377197265625,-0.6142939329147339,0.47854143381118774,1.4045438766479492
1783696653065340200,8.090340087890626,-0.6987214684486389,0.3201858401298523,1.476630687713623
1783696653075303200,8.10030322265625,-0.7638770341873169,0.19205953180789948,1.503602147102356
1783696653085266200,8.11026611328125,-0.7951298952102661,0.10449312627315521,1.4740595817565918
1783696653095229200,8.120229248046876,-0.785507321357727,0.04312457516789436,1.3733367919921875
1783696653105192200,8.130192138671875,-0.7368934750556946,-0.00003142235800623894,1.1831623315811157
1783696653115155200,8.1401552734375,-0.6334690451622009,0.022980686277151108,0.9005234837532043
1783696653125118200,8.1501181640625,-0.4671754539012909,0.15963995456695557,0.5364181995391846
1783696653135081000,8.1600810546875,-0.2605911195278168,0.254079669713974,0.10863889753818512
1783696653145044000,8.1700439453125,-0.01541838701814413,0.28292518854141235,-0.3540627062320709
1783696653155007200,8.18000732421875,0.13281875848770142,0.393572062253952,-0.831089198589325
1783696653164971000,8.189970947265625,0.061932098120450974,0.7797544002532959,-1.261691689491272
1783696653174934300,8.199934326171874,-0.19951708614826202,1.3742374181747437,-1.6058669090270996
1783696653184897300,8.209897216796875,-0.45551443099975586,1.8757761716842651,-1.8636858463287354
1783696653194860300,8.2198603515625,-0.5339974761009216,2.0047922134399414,-2.012768507003784
1783696653204823300,8.2298232421875,-0.4232262670993805,1.6369425058364868,-2.0298659801483154
1783696653214786000,8.2397861328125,-0.25883305072784424,0.9289351105690002,-1.9416147470474243
1783696653224749000,8.2497490234375,-0.14882346987724304,0.12067589908838272,-1.7796034812927246
1783696653234712000,8.259712158203126,0.007691582199186087,-0.5531398057937622,-1.5404887199401855
1783696653244675000,8.269675048828125,0.2895248830318451,-0.9622669816017151,-1.20405113697052
1783696653254638000,8.27963818359375,0.5962377190589905,-1.0720674991607666,-0.8036081194877625
1783696653264601300,8.289601318359376,0.8126737475395203,-1.0758047103881836,-0.40464216470718384
1783696653274564400,8.299564453125,0.8849596381187439,-1.1355867385864258,-0.08310356736183167
1783696653284527000,8.309527099609374,0.834937334060669,-1.2758512496948242,0.11161808669567108
1783696653294491100,8.3194912109375,0.696405827999115,-1.3744844198226929,0.15178146958351135
1783696653304454100,8.3294541015625,0.5115559101104736,-1.3375458717346191,0.06829740852117538
1783696653314417200,8.339417236328124,0.35091349482536316,-1.172205924987793,-0.08337493985891342
1783696653324380200,8.349380126953125,0.24789214134216309,-0.9746357798576355,-0.24227474629878998
1783696653334343200,8.35934326171875,0.20767414569854736,-0.825242817401886,-0.384549081325531
1783696653344306200,8.36930615234375,0.21481460332870483,-0.7475388646125793,-0.5235143899917603
1783696653354269200,8.379269287109375,0.2879796326160431,-0.7076292634010315,-0.6875736117362976
1783696653364232000,8.38923193359375,0.4420105218887329,-0.6614120006561279,-0.8741364479064941
1783696653374195200,8.3991953125,0.6539744734764099,-0.5480894446372986,-1.0613033771514893
1783696653384158200,8.409158203125,0.8592197299003601,-0.33811694383621216,-1.2224396467208862
1783696653394121200,8.419121337890624,0.9912624359130859,-0.045027270913124084,-1.3234269618988037
1783696653404084200,8.429084228515626,0.9999091029167175,0.26694801449775696,-1.3592709302902222
1783696653414047200,8.439047119140625,0.9122347235679626,0.5568224787712097,-1.3220100402832031
1783696653424010200,8.44901025390625,0.7750421166419983,0.8034616112709045,-1.2277292013168335
1783696653433974300,8.458974365234376,0.6284154057502747,0.9968643188476562,-1.082661509513855
1783696653443937000,8.46893701171875,0.4871119260787964,1.12595796585083,-0.8881264328956604
1783696653453900000,8.478900146484374,0.3528635799884796,1.1754770278930664,-0.6424546241760254
1783696653463863000,8.488863037109375,0.24777457118034363,1.1593066453933716,-0.36334851384162903
1783696653473826000,8.498825927734375,0.19828851521015167,1.0951273441314697,-0.06251892447471619
1783696653483789300,8.508789306640624,0.18506626784801483,0.9991593360900879,0.2400556057691574
1783696653493752300,8.51875244140625,0.18136075139045715,0.8904126286506653,0.5500086545944214
1783696653503715300,8.52871533203125,0.18665966391563416,0.8126711845397949,0.8552709221839905
1783696653513678000,8.538677978515626,0.18903040885925293,0.7544609308242798,1.1309096813201904
1783696653523641000,8.54864111328125,0.1922130435705185,0.67560875415802,1.3417071104049683
1783696653533604000,8.55860400390625,0.19406048953533173,0.5355328917503357,1.5029734373092651
1783696653543567000,8.568567138671876,0.19413992762565613,0.354922354221344,1.646956443786621
1783696653553530000,8.578530029296875,0.2017480432987213,0.12229977548122406,1.7764431238174438
1783696653563493400,8.588493408203124,0.22801461815834045,-0.16744466125965118,1.8782706260681152
1783696653573457200,8.59845703125,0.2904471158981323,-0.45634332299232483,1.9484699964523315
1783696653583420200,8.608420166015625,0.38221967220306396,-0.6761050224304199,1.9979145526885986
1783696653593383200,8.618383056640624,0.5104942321777344,-0.8654826283454895,2.0362234115600586
1783696653603346200,8.62834619140625,0.6570001840591431,-1.0811783075332642,2.0071463584899902
1783696653613309200,8.63830908203125,0.7403688430786133,-1.4446145296096802,1.8157963752746582
1783696653623272200,8.648272216796874,0.6833661794662476,-1.9328504800796509,1.4176300764083862
1783696653633235200,8.658235107421875,0.4792178273200989,-2.2291436195373535,0.9109380841255188
1783696653643198200,8.6681982421875,0.1957700252532959,-1.9699532985687256,0.4998401999473572
1783696653653161000,8.678160888671876,-0.06918147951364517,-1.2083449363708496,0.2661776542663574
1783696653663124000,8.6881240234375,-0.1674373596906662,-0.21593141555786133,0.2021084725856781
1783696653673087200,8.698087158203125,-0.064725361764431,0.6880732774734497,0.2013433575630188
1783696653683050200,8.70805029296875,0.1621125489473343,1.203431487083435,0.07135169953107834
1783696653693013200,8.71801318359375,0.45584696531295776,1.2887077331542969,-0.2608526051044464
1783696653702977300,8.727977294921875,0.6912997961044312,1.2345216274261475,-0.7338418364524841
1783696653712940300,8.737940185546876,0.7720513343811035,1.1733677387237549,-1.2315822839736938
1783696653722903300,8.7479033203125,0.7179827690124512,1.1370494365692139,-1.631797194480896
1783696653732866000,8.757865966796874,0.6068562269210815,1.1162227392196655,-1.8869894742965698
1783696653742829000,8.7678291015625,0.48977768421173096,1.1698065996170044,-2.041571855545044
1783696653752792000,8.7777919921875,0.3706829845905304,1.4075384140014648,-2.1562342643737793
1783696653762755000,8.787755126953124,0.24608956277370453,1.7833623886108398,-2.2617878913879395
1783696653772718000,8.797718017578125,0.11345215886831284,2.148360252380371,-2.378526449203491
1783696653782681300,8.807681396484375,-0.022164849564433098,2.20277738571167,-2.4694342613220215
1783696653792644400,8.817644287109376,-0.09748996049165726,1.8041775226593018,-2.4225213527679443
1783696653802607000,8.827607177734375,-0.099873848259449,1.1150157451629639,-2.1624372005462646
1783696653812570000,8.837570068359375,-0.07656692713499069,0.28585514426231384,-1.718599557876587
1783696653822533000,8.847533203125,-0.037750739604234695,-0.5484793186187744,-1.1300617456436157
1783696653832496000,8.85749609375,-0.014877647161483765,-1.236273169517517,-0.4779430031776428
1783696653842459100,8.867459228515624,-0.013834569603204727,-1.6914689540863037,0.16402047872543335
1783696653852423700,8.877423583984376,-0.027889935299754143,-1.8457677364349365,0.7232185006141663
1783696653862386700,8.88738671875,-0.01715283840894699,-1.6944926977157593,1.1537522077560425
1783696653872349700,8.897349609375,0.038777805864810944,-1.3339091539382935,1.4358941316604614
1783696653882312700,8.907312744140626,0.11735362559556961,-0.8890129327774048,1.561790108680725
1783696653892275500,8.917275390625,0.1242392286658287,-0.46434953808784485,1.5289306640625
1783696653902238700,8.92723876953125,0.05831898748874664,-0.11328420788049698,1.382017970085144
1783696653912201700,8.93720166015625,-0.030479060485959053,0.1766251027584076,1.174224853515625
1783696653922164700,8.947164794921875,-0.09482641518115997,0.41681015491485596,0.9707743525505066
1783696653932127700,8.957127685546874,-0.12014322727918625,0.5958089232444763,0.79255211353302
1783696653942090800,8.9670908203125,-0.10685346275568008,0.692020833492279,0.6650997996330261
1783696653952053500,8.977053466796875,-0.0812855213880539,0.7172020673751831,0.5884532332420349
1783696653962016500,8.9870166015625,-0.061671338975429535,0.7182313203811646,0.5659301280975342
1783696653971979500,8.9969794921875,-0.05694209411740303,0.7286440134048462,0.5947702527046204
1783696653981942500,9.006942626953125,-0.08228109776973724,0.6672809720039368,0.6449535489082336
1783696653991906600,9.016906494140626,-0.09507705271244049,0.4369082450866699,0.7121115326881409
1783696654001869600,9.02686962890625,-0.058601297438144684,0.06514719128608704,0.8223633170127869
1783696654011832800,9.036832763671875,-0.00256599229760468,-0.31147411465644836,0.96783047914505
1783696654021795800,9.0467958984375,0.04999672994017601,-0.6045688986778259,1.1262472867965698
1783696654031758600,9.056758544921875,0.08500798046588898,-0.731653094291687,1.2621585130691528
1783696654041721600,9.0667216796875,0.11683372408151627,-0.6864372491836548,1.3711081743240356
1783696654051684600,9.0766845703125,0.15901553630828857,-0.5215703248977661,1.4352277517318726
1783696654061647600,9.086647705078125,0.21442833542823792,-0.37466156482696533,1.4274866580963135
1783696654071610600,9.096610595703124,0.25225934386253357,-0.34755751490592957,1.323882818222046
1783696654081573600,9.10657373046875,0.23212158679962158,-0.5075168013572693,1.1145939826965332
1783696654091536600,9.11653662109375,0.15335354208946228,-0.7600036263465881,0.8230303525924683
1783696654101499600,9.126499755859374,0.040067870169878006,-0.8881688714027405,0.46750062704086304
1783696654111462700,9.136462646484375,-0.09100865572690964,-0.7707860469818115,0.11682623624801636
1783696654121425700,9.14642578125,-0.22933465242385864,-0.5113697648048401,-0.17317388951778412
1783696654131389700,9.1563896484375,-0.3311281204223633,-0.22880063951015472,-0.37913796305656433
1783696654141352700,9.166352783203125,-0.3083791136741638,0.02769368328154087,-0.4813651740550995
1783696654151315700,9.176315673828125,-0.1661207675933838,0.1311950385570526,-0.5319181084632874
1783696654161278700,9.18627880859375,0.02920425869524479,-0.04681668058037758,-0.6294570565223694
1783696654171241700,9.19624169921875,0.25283390283584595,-0.3493557572364807,-0.7940446734428406
1783696654181204500,9.20620458984375,0.5167714357376099,-0.5949156880378723,-0.94393390417099
1783696654191167500,9.21616748046875,0.8092848062515259,-0.758705198764801,-0.9959672689437866
1783696654201130800,9.226130859375,1.0755538940429688,-0.8519393801689148,-0.9354617595672607
1783696654211093800,9.23609375,1.2500346899032593,-0.8832097053527832,-0.8078619837760925
1783696654221056800,9.246056884765625,1.3053926229476929,-0.7907496690750122,-0.6549554467201233
1783696654231019800,9.256019775390625,1.2410104274749756,-0.5501924753189087,-0.5184966921806335
1783696654240982800,9.265982666015624,1.0877056121826172,-0.21826353669166565,-0.4378206431865692
1783696654250945500,9.275945556640625,0.8764801621437073,0.13453952968120575,-0.4183952808380127
1783696654260908500,9.285908447265625,0.6481067538261414,0.4469929337501526,-0.45095890760421753
1783696654270872600,9.29587255859375,0.41580989956855774,0.6750308871269226,-0.5321746468544006
1783696654280835600,9.305835693359375,0.19250351190567017,0.8131648898124695,-0.6415442228317261
1783696654290798600,9.315798583984375,0.013642953708767891,0.8335857391357422,-0.7408148646354675
1783696654308856800,9.33385693359375,-0.12248827517032623,0.6185559034347534,-0.8120672702789307
1783696654318819800,9.34381982421875,-0.12142178416252136,0.45818546414375305,-0.8326937556266785
1783696654328782600,9.353782470703125,-0.11416146904230118,0.34082821011543274,-0.8530621528625488
1783696654338745600,9.36374560546875,-0.1511346995830536,0.3238103985786438,-0.8464387059211731
1783696654348709600,9.373709716796874,-0.2536959648132324,0.37611621618270874,-0.7921615839004517
1783696654358672600,9.383672607421875,-0.3853755593299866,0.41479945182800293,-0.6954237818717957
1783696654368635600,9.3936357421875,-0.5160302519798279,0.390473872423172,-0.5356056094169617
1783696654378598700,9.4035986328125,-0.621082067489624,0.34729912877082825,-0.2916721999645233
1783696654388561700,9.413561767578125,-0.6713665127754211,0.3596673905849457,0.01377665065228939
1783696654398524700,9.423524658203124,-0.6687251329421997,0.4537127912044525,0.34438449144363403
1783696654408487700,9.43348779296875,-0.6362190842628479,0.6155797243118286,0.6546512842178345
1783696654418450700,9.44345068359375,-0.5991287231445312,0.7813042402267456,0.8987065553665161
1783696654428413700,9.45341357421875,-0.5751805305480957,0.8833741545677185,1.0448039770126343
1783696654438376700,9.463376708984375,-0.5474940538406372,0.872715950012207,1.1308166980743408
1783696654448339700,9.473339599609375,-0.5152876377105713,0.7302349805831909,1.1867872476577759
1783696654458302700,9.483302734375,-0.49069666862487793,0.46659544110298157,1.2251652479171753
1783696654468265700,9.493265625,-0.504086971282959,0.17729198932647705,1.228182077407837
1783696654478228500,9.503228515625,-0.5412768721580505,-0.05363134294748306,1.1707404851913452
1783696654488192500,9.513192626953124,-0.588617205619812,-0.15323010087013245,1.045825481414795
1783696654498155500,9.523155517578125,-0.6187770366668701,-0.12232201546430588,0.8622171878814697
1783696654508118500,9.533118408203125,-0.6012872457504272,-0.05684233829379082,0.6507512927055359
1783696654518081800,9.543081787109376,-0.5206779837608337,-0.03530344367027283,0.4446088969707489
1783696654528044800,9.553044921875,-0.38640064001083374,-0.08864416182041168,0.26090964674949646
1783696654538007800,9.5630078125,-0.20302452147006989,-0.09771549701690674,0.1224382221698761
1783696654547970800,9.572970703125,0.017393069341778755,0.09475914388895035,0.014346913434565067
1783696654557933600,9.58293359375,0.2575196921825409,0.4914792478084564,-0.084586501121521
1783696654567896600,9.592896484375,0.4244537949562073,1.0222370624542236,-0.2502012848854065
1783696654577859600,9.602859619140625,0.48437562584877014,1.4955753087997437,-0.48105183243751526
1783696654587822600,9.612822509765625,0.5014268159866333,1.8124794960021973,-0.6046577095985413
1783696654597785600,9.62278564453125,0.4661039412021637,1.924144983291626,-0.534877598285675
1783696654608370400,9.633370361328126,0.32797935605049133,1.7799243927001953,-0.33756160736083984
1783696654618334700,9.643334716796875,0.15653200447559357,1.4594718217849731,-0.22390621900558472
1783696654628297500,9.65329736328125,0.020374443382024765,0.9962455630302429,-0.24961715936660767
1783696654638260500,9.663260498046874,-0.10276822745800018,0.46044227480888367,-0.3963649868965149
1783696654648223700,9.6732236328125,-0.1840021014213562,-0.08451877534389496,-0.5674952268600464
1783696654658186800,9.683186767578125,-0.16774269938468933,-0.4782859683036804,-0.6622957587242126
1783696654668149800,9.693149658203126,-0.09032806754112244,-0.6808417439460754,-0.7026722431182861
1783696654678112800,9.70311279296875,0.03823193907737732,-0.7411471009254456,-0.7538653612136841
1783696654688075500,9.713075439453124,0.1982216089963913,-0.6702191233634949,-0.7955046892166138
1783696654698038500,9.72303857421875,0.32071298360824585,-0.5044696927070618,-0.8313213586807251
1783696654708001500,9.73300146484375,0.3795187771320343,-0.31926438212394714,-0.9242651462554932
1783696654717964500,9.742964599609374,0.37334850430488586,-0.1477244347333908,-1.0608199834823608
1783696654727927800,9.752927734375,0.3342343866825104,0.059198666363954544,-1.152274250984192
1783696654737890800,9.762890869140625,0.30093061923980713,0.2908211052417755,-1.1661531925201416
1783696654747853800,9.772853759765624,0.27483484148979187,0.36626100540161133,-1.1132460832595825
1783696654757817900,9.78281787109375,0.23304834961891174,0.17380252480506897,-1.0111089944839478
1783696654767780600,9.792780517578125,0.19517101347446442,-0.23316895961761475,-0.882821261882782
1783696654777743600,9.80274365234375,0.15805068612098694,-0.6177352666854858,-0.7257222533226013
1783696654787706600,9.81270654296875,0.1315240114927292,-0.7913084030151367,-0.529382050037384
1783696654797669600,9.822669677734375,0.13405919075012207,-0.7023135423660278,-0.32074087858200073
1783696654807632600,9.832632568359376,0.1676693558692932,-0.44520100951194763,-0.09111994504928589
1783696654817595600,9.842595703125,0.19249652326107025,-0.14669974148273468,0.13953626155853271
1783696654827558700,9.85255859375,0.17058537900447845,0.11948160827159882,0.35636019706726074
1783696654837521700,9.862521728515626,0.10301262885332108,0.3073289394378662,0.5433657765388489
1783696654847484200,9.872484130859375,0.03329853340983391,0.38495635986328125,0.6940354108810425
1783696654857447200,9.882447265625,-0.0017544964794069529,0.36869797110557556,0.8112809062004089
1783696654867410200,9.89241015625,0.016544882208108902,0.2994357943534851,0.888836681842804
1783696654877373200,9.902373291015625,0.07729415595531464,0.23564179241657257,0.9293500185012817
1783696654887336200,9.912336181640624,0.13833940029144287,0.23896807432174683,0.9150297045707703
1783696654897299000,9.922298828125,0.19992884993553162,0.30651381611824036,0.8552128076553345
1783696654907263200,9.93226318359375,0.2683353126049042,0.41250601410865784,0.8024800419807434
1783696654917226000,9.94222607421875,0.3300715982913971,0.4981321692466736,0.795526385307312
1783696654927189000,9.95218896484375,0.35351434350013733,0.49488365650177,0.8193038702011108
1783696654937152300,9.96215234375,0.33610236644744873,0.43378573656082153,0.8332707285881042
1783696654947115300,9.972115234375,0.3041393756866455,0.3478069305419922,0.8176960349082947
1783696654957078300,9.982078369140625,0.24934916198253632,0.2520492374897003,0.7653223872184753
1783696654967041300,9.992041259765625,0.21036367118358612,0.20577415823936462,0.7338683009147644
1783696654977004000,10.002004150390626,0.1823052614927292,0.30430206656455994,0.7938923239707947
1783696654986967000,10.011967041015625,0.1298830658197403,0.4014509916305542,0.8695623278617859
1783696654996930000,10.021929931640624,-0.01889973133802414,0.5464360117912292,1.0880986452102661
1783696655006893000,10.03189306640625,-0.17224082350730896,0.11741914600133896,1.1141870021820068
1783696655016856300,10.041856201171875,-0.08276013284921646,-0.5782302618026733,1.078105092048645
1783696655026819300,10.0518193359375,0.14381468296051025,-1.0098942518234253,1.0595290660858154
1783696655036782300,10.0617822265625,0.31839320063591003,-1.2327619791030884,0.9653811454772949
1783696655046746400,10.071746337890625,0.3652176856994629,-1.3387643098831177,0.8268232941627502
1783696655056709000,10.081709228515624,0.35155171155929565,-1.1342651844024658,0.7597130537033081
