time,seconds_elapsed,z,y,x
1783696783160602000,0.06760205078125,-4.82586941987574,-6.556147736850381,1.926329296863079
1783696783170565000,0.077565185546875,-6.905275062775612,-5.133128027364611,2.129748759692907
1783696783180528000,0.087528076171875,-8.23469235945642,-3.1246038468956945,2.021015413251519
1783696783190491100,0.0974912109375,-7.942714907729625,-1.7362632366031407,2.012124104657024
1783696783200454100,0.1074541015625,-6.132136142593622,-0.7576169414013624,1.7758873909831046
1783696783210417200,0.117417236328125,-3.37577290289402,-0.0071305825322866435,1.1369779314182697
1783696783220380400,0.12738037109375,-0.6133446640670299,0.42665714032948016,0.626606954287365
1783696783230343200,0.13734326171875,1.7613398101925848,0.8885507214739918,0.16499664706364273
1783696783240306200,0.14730615234375,3.6852614613920447,1.3330156134337185,-0.5308630724743009
1783696783250269200,0.157269287109375,4.812693711960315,1.3884814800679683,-1.3498574426412582
1783696783260232200,0.167232177734375,4.80901122405529,1.270253744572401,-2.4629247755095363
1783696783270195200,0.1771953125,3.864887376180291,1.4217252857610583,-3.6319065955623984
1783696783280158200,0.187158203125,2.2552719128936527,1.5612544602215288,-4.193787029851973
1783696783290121200,0.197121337890625,0.6926216143995523,1.7096949631512164,-4.046451857815683
1783696783300084200,0.207084228515625,0.07000526411831379,2.012142078705132,-4.011241135963798
1783696783310047200,0.217047119140625,0.40326048265099523,2.3256024634435772,-4.307736649636924
1783696783320010200,0.22701025390625,1.2798521785229444,2.2963187935531137,-4.295551706324518
1783696783329973200,0.23697314453125,2.4487702856898306,1.9590633994683622,-3.613523966653645
1783696783339936300,0.246936279296875,3.5641911959469317,1.7153879140958188,-2.635758545939624
1783696783349899300,0.256899169921875,4.347938019382953,1.7143351901724933,-1.6991151169478893
1783696783359862000,0.266862060546875,4.607200949987769,1.854748453991115,-0.9800498783893883
1783696783369825000,0.276824951171875,4.762485035201907,1.988351745533943,-0.5554850341640413
1783696783379788300,0.286788330078125,4.9695840633273125,2.0547318048924206,-0.25653482081517576
1783696783389751300,0.296751220703125,5.242069463598728,2.1282696270510555,-0.07060593342520297
1783696783399714300,0.30671435546875,5.523972096034884,2.2100193972378968,-0.03161656981743872
1783696783409677300,0.31667724609375,5.788116953462362,2.288233394514024,-0.041842488016560674
1783696783419640300,0.326640380859375,6.181206755232811,2.421726503680646,-0.10078662522062659
1783696783429603000,0.33660302734375,6.66868398270607,2.552337335409224,-0.16130721796117722
1783696783439566000,0.346566162109375,7.122507946902513,2.505833358387649,-0.25787213383354246
1783696783449529000,0.356529052734375,7.397391640487313,2.3389739861920473,-0.4477008051410317
1783696783459492000,0.3664921875,7.335318338412046,2.2880057232379913,-0.6090901484277099
1783696783469455400,0.376455322265625,6.920802302253246,2.477037764275074,-0.5811626423865557
1783696783479418400,0.38641845703125,6.023924774199724,2.557241766324639,-0.492315388219431
1783696783489381400,0.39638134765625,4.844973933318257,2.655057412910461,-0.5009245919369161
1783696783499344100,0.40634423828125,3.6458641015052793,2.9852839312717316,-0.433194798469916
1783696783509307100,0.41630712890625,2.4474130258619784,3.1771433046892286,-0.06470197007842361
1783696783519270100,0.426270263671875,1.2825181828618049,3.0198204071238637,0.3663181877661496
1783696783529233200,0.436233154296875,-0.025939912420511243,2.629426712569594,0.6542299974892288
1783696783539196200,0.446196044921875,-1.1793190896719694,2.1456047927334905,0.6580602233018725
1783696783549159200,0.4561591796875,-2.094621916732192,1.4826041173547506,0.6043260758310556
1783696783559122400,0.466122314453125,-2.9755373210221525,0.30970366255342957,0.6261097453549503
1783696783569085200,0.476085205078125,-3.8523949743539094,-1.0979781925469636,0.6416663570575416
1783696783579048200,0.486048095703125,-4.67253003898859,-2.2034552164167165,0.6831824626639484
1783696783589011200,0.49601123046875,-5.533160195618867,-3.2290830430239437,1.438139829467237
1783696783598974200,0.50597412109375,-6.347526029202342,-4.28013289565742,2.8915152219891547
1783696783608937200,0.515937255859375,-6.446435316243767,-5.168242010843754,3.9852199750006196
1783696783618900200,0.525900146484375,-5.715480171796679,-5.972134381207823,4.5922529717028135
1783696783628863000,0.535863037109375,-4.562053063750267,-7.102416175988316,4.752757421913743
1783696783638826200,0.545826171875,-3.6669793702483173,-8.680287424489855,4.200397387902439
1783696783648789200,0.555789306640625,-3.4092256751626726,-10.253145228743552,3.437841528794169
1783696783658752300,0.565752197265625,-4.0690217092812055,-10.658982283884287,2.706756035965681
1783696783668715300,0.57571533203125,-5.45008736013472,-9.435609532952308,1.5346692356348037
1783696783678678300,0.58567822265625,-6.959982804518938,-7.601874348634481,0.6758195326805114
1783696783688641300,0.595641357421875,-7.747982609224319,-6.256043092769384,0.7171602817200123
1783696783698604000,0.60560400390625,-7.7708315698921675,-4.943052030232549,0.7041318733207881
1783696783708567000,0.615567138671875,-7.196303835475445,-3.6457726238295436,0.7677883529342711
1783696783718530300,0.6255302734375,-5.838543072363734,-2.8419530264407395,1.0345485074266791
1783696783728493300,0.635493408203125,-3.51234702694118,-2.5267227094203233,0.9237284178391099
1783696783738456300,0.645456298828125,-0.9713929630726575,-2.3502792240604755,0.7169388940542936
1783696783748419300,0.65541943359375,0.1254430737018585,-1.7653794409722088,0.4752442072354257
1783696783758382300,0.66538232421875,0.36422552633583544,-0.8853869967460631,-0.015004969169199465
1783696783768345000,0.675344970703125,0.5583867469549179,-0.06615180356055497,-0.33779169291853905
1783696783778308000,0.68530810546875,0.21471885547935962,0.5819456094577908,-0.5553863960951566
1783696783788271000,0.69527099609375,-0.1770914278745651,1.1609651023358105,-0.7699230268754065
1783696783798234000,0.705234130859375,0.010306289958953857,1.571480086159706,-0.8968697831384838
1783696783808197400,0.715197265625,0.8164327029854058,1.5975246279984712,-0.9626767187841236
1783696783818160400,0.725160400390625,1.6721189734727144,1.3559871775679289,-1.125881075603515
1783696783828123100,0.735123046875,2.3767145187824963,1.193439677222073,-1.1594723795600235
1783696783838086100,0.745086181640625,3.051069239607453,1.1979562778636812,-0.8983874942250549
1783696783848049200,0.755049072265625,3.783208040881157,1.1711071416437626,-0.5577072402581572
1783696783858012200,0.76501220703125,4.3961552300632,1.0253564623199403,-0.2763685253150761
1783696783867975200,0.77497509765625,4.852098670631647,0.8903745759002863,-0.05451105012744665
1783696783877938200,0.784938232421875,5.2064031069338315,0.7825937078781425,0.0548421817779541
1783696783887901200,0.794901123046875,5.514534990125894,0.7380604464076459,-0.02630874573290348
1783696783897864200,0.8048642578125,5.791549850520491,0.8090024068541825,-0.28157208530753847
1783696783907827200,0.8148271484375,5.8061377633213995,1.0114566779136658,-0.5889172020360827
1783696783917790200,0.824790283203125,5.67702213858664,1.3043635194450616,-0.9043658379822969
1783696783927753200,0.834753173828125,5.687742270043492,1.5728411453798412,-1.2191475344523788
1783696783937716200,0.84471630859375,5.8555900687545535,1.7616896465435623,-1.5588140813320874
1783696783947679200,0.85467919921875,6.124409932255745,1.9429659588873385,-1.9361831668794154
1783696783957642200,0.864642333984375,6.4282479176461695,2.1613784081876277,-2.3074930985182522
1783696783967605000,0.87460498046875,6.5811787177324295,2.472171327282488,-2.537193250030279
1783696783977568500,0.884568603515625,6.547873244979977,2.9466695384562014,-2.5906916159838436
1783696783987531500,0.894531494140625,6.261468624949455,3.484834458376467,-2.496765670312941
1783696783997494500,0.90449462890625,5.651338831275702,3.9947582031965254,-2.4017200729623434
1783696784007457500,0.91445751953125,4.770258007290959,4.351181531348824,-2.2525950948998332
1783696784017420500,0.924420654296875,3.6909617188602684,4.476760506390035,-2.1389909275516867
1783696784027383600,0.934383544921875,2.615020001554489,4.1428593911692495,-2.1374431135877967
1783696784037346300,0.94434619140625,1.5631898121982812,3.1184160981714726,-1.7177835770606993
1783696784047309300,0.954309326171875,0.9723585932344198,1.1883856087028979,-0.23270167141556738
1783696784057272300,0.964272216796875,0.8427566462874412,-0.8766150767475366,1.457711083638668
1783696784067235600,0.974235595703125,0.7099386599034071,-3.0481589051187035,3.0138544844567776
1783696784077198600,0.984198486328125,0.015093524235486983,-4.808490999573469,4.241486646398902
1783696784087161600,0.99416162109375,-2.025350227585435,-6.156283910900354,4.879868136566877
1783696784097124400,1.004124267578125,-4.73273111745119,-7.6523150805830955,5.012392692962289
1783696784107087400,1.01408740234375,-7.016705977737903,-8.502326228043437,4.492515417143702
1783696784117050400,1.02405029296875,-8.431958560353516,-7.845552756616473,3.0120062262415885
1783696784127013400,1.034013427734375,-8.685738091111183,-7.155778348341584,1.4642746799379587
1783696784136976400,1.043976318359375,-8.013600461813807,-7.362853411069512,0.7283359018594027
1783696784146939400,1.053939453125,-7.101845682623982,-7.506787834751606,0.36426074377968903
1783696784156902700,1.063902587890625,-7.016119117760658,-6.876418970647454,0.0006463350795209408
1783696784166865400,1.073865478515625,-8.188854152867197,-5.747673883914947,0.195964616779238
1783696784176828400,1.083828369140625,-9.149319479212163,-4.630022438126802,1.095659394210577
1783696784186791400,1.09379150390625,-8.58695506079793,-3.7740415686070916,1.621040820403397
1783696784196754400,1.10375439453125,-7.130000348484516,-3.2843647852629423,1.7503421769686043
1783696784206717400,1.113717529296875,-5.308934676125645,-2.8850270290136337,1.5364719011425971
1783696784216680400,1.123680419921875,-3.1100434066236016,-2.4343764341562983,0.9074494832113384
1783696784226643500,1.1336435546875,-0.7813017683714628,-2.0565338858783244,0.10341156689673661
1783696784236606500,1.1436064453125,1.3424082956790924,-1.6327636991620063,-0.7694035330459476
1783696784246569500,1.153569580078125,2.8804198274791237,-0.9356576328247785,-1.419822520879656
1783696784256532500,1.163532470703125,3.794157304918766,0.12923252911269664,-1.8036515962213278
1783696784266495500,1.17349560546875,4.304753542172908,1.4043079947531223,-1.9225889412909745
1783696784276458500,1.18345849609375,4.741067568641901,2.6168241283670066,-1.7435260672129689
1783696784286421500,1.19342138671875,4.9639849281460044,3.5729414886355397,-1.2891715032711624
1783696784296384500,1.203384521484375,4.833019876152277,4.15846904823333,-0.7293591804925352
1783696784306347300,1.21334716796875,4.471939662104845,4.3477083022803065,-0.3180094263449311
1783696784316310500,1.223310546875,4.186151128146052,4.236353375163674,-0.3577742313046008
1783696784326273500,1.2332734375,4.072735761368275,3.8570325710266826,-0.808350372686237
1783696784336236500,1.243236572265625,4.290912063825131,3.3573432199731466,-1.434124456346035
1783696784346199600,1.253199462890625,4.560799264296889,2.8585680611550806,-1.9663310523837803
1783696784356162600,1.26316259765625,4.682752157795429,2.332111699207127,-2.2050535915240643
1783696784366125300,1.273125244140625,4.87596353034377,1.7434008333981037,-2.163504752691835
1783696784376088300,1.28308837890625,4.996770760938525,1.139740527999401,-1.8699869396552442
1783696784386051300,1.29305126953125,4.96770482545197,0.7813941228300333,-1.4245564175337553
1783696784396014300,1.303014404296875,5.003923555302619,0.7584972313672304,-0.9797941500626504
1783696784405977600,1.3129775390625,5.148896674382686,0.8899348693087696,-0.6869639539640396
1783696784415940600,1.322940673828125,5.33846822912395,1.0734349951818585,-0.5777034418433904
1783696784425903600,1.332903564453125,5.527062463265657,1.343684306964278,-0.494378165968135
1783696784435866400,1.342866455078125,5.720445100727677,1.6690262681543826,-0.4741337617754936
1783696784445829400,1.352829345703125,5.585250448340177,1.9938161484196781,-0.5175075510125607
1783696784455792400,1.36279248046875,5.155207172703743,2.3829227257728576,-0.5563322255779057
1783696784465756400,1.37275634765625,4.499752382659912,2.8452015068426726,-0.5563449389290064
1783696784475719400,1.382719482421875,3.553877307203412,3.1636443561688066,-0.5670429316192865
1783696784485681400,1.392681396484375,2.2578765424340963,3.3739702373862266,-0.590277603669092
1783696784495645400,1.4026455078125,0.8207669327974318,3.523145776592195,-0.3976738416250795
1783696784505608400,1.4126083984375,-0.8726227922409773,3.4658240529581903,0.3015662410661578
1783696784515571500,1.422571533203125,-2.4181577052831646,2.840266096267104,1.4497306062787771
1783696784525534500,1.432534423828125,-3.244854612651467,1.512200798717141,2.459040043030679
1783696784535497500,1.44249755859375,-3.5708921548902985,-0.2618184603065252,2.887140952427685
1783696784545460500,1.45246044921875,-3.7150633099377153,-2.3556793295383454,2.8247224901765584
1783696784555423500,1.462423583984375,-4.289281247752904,-4.199945260220765,2.451069210281968
1783696784565386500,1.472386474609375,-5.872647002017498,-5.332881953424215,1.9859725953124463
1783696784575349500,1.482349609375,-8.780417777758837,-6.3091521671444175,1.9774530426397918
1783696784585312300,1.492312255859375,-11.887000814795494,-6.9267965742319815,1.8032906539544462
1783696784595275500,1.502275634765625,-13.643762649548053,-6.733992028918862,1.0300805682323873
1783696784605238500,1.512238525390625,-13.645422691714764,-6.812958013606071,0.6496426696989684
1783696784615201500,1.522201416015625,-11.94793605275154,-7.184359130659699,0.5243577091682702
1783696784625164500,1.53216455078125,-9.457650684368609,-7.03776747046709,0.4954617234211415
1783696784635127600,1.54212744140625,-7.424870014521479,-6.392107513728737,0.5475785718884318
1783696784645090300,1.55209033203125,-6.267651697498559,-5.86742079180181,0.985138506765291
1783696784655053300,1.56205322265625,-5.477459351184964,-5.412558716729283,1.3140030160583556
1783696784665016300,1.572016357421875,-4.644211706998944,-5.133385801517963,1.0392108001492917
1783696784674979300,1.581979248046875,-3.84871891618967,-4.797805939429998,0.7477209858089685
1783696784684942600,1.591942626953125,-3.507787171679735,-3.728085873118043,0.4865517831914127
1783696784694905600,1.601905517578125,-2.9307167670428753,-1.9983990922957657,0.38952465663477776
1783696784704868600,1.61186865234375,-1.5450339777827262,-0.6267737622216344,0.7696960862517357
1783696784714831400,1.621831298828125,0.15862053616046903,0.1423661514520645,1.033420087918639
1783696784724794400,1.63179443359375,1.9244564887285232,0.8009823281362652,0.7005128060407936
1783696784734757400,1.64175732421875,3.402276294416189,1.2950652374848723,0.06254464591406285
1783696784744720400,1.651720458984375,4.57319989618659,1.679161877721548,-0.5647437878314405
1783696784754683400,1.661683349609375,5.376575549200177,2.152643897590041,-1.023952075414732
1783696784764646700,1.671646728515625,5.724004254513979,2.6125182478666304,-1.3041260574273765
1783696784774609700,1.681609619140625,5.58196368175447,3.0322768608540294,-1.2235004689648747
1783696784784572400,1.691572509765625,5.23440112092793,3.3207536109834908,-1.0569981665786354
1783696784794535400,1.701535400390625,4.975282567229867,3.4250098120108246,-0.9929407049488276
1783696784804498400,1.71149853515625,5.193258963200449,3.414848483480513,-1.2340436364196241
1783696784814461400,1.72146142578125,5.674702755728363,3.37360958738029,-1.7933295241713523
1783696784824424400,1.731424560546875,5.914849482452869,3.3050060067534446,-2.270165530642867
1783696784834387500,1.741387451171875,5.871389695432782,3.237546043203771,-2.5785110565856098
1783696784844350500,1.7513505859375,5.7299985264927145,3.230516290697455,-2.7167455150604245
1783696784854313500,1.7613134765625,5.532547032156586,3.306540084452927,-2.6944348990529776
1783696784864276500,1.7712763671875,5.413112843480706,3.317703283502161,-2.482992288765311
1783696784874239500,1.781239501953125,5.391662059172988,3.2932579935535786,-2.0218781675606965
1783696784884202500,1.791202392578125,5.432199236744642,3.2339047640919683,-1.5568440964333712
1783696784894165500,1.80116552734375,5.349646625742316,3.277043064072728,-1.3768725830778479
1783696784904128500,1.81112841796875,5.281421815299987,3.4971500423312185,-1.4033800662532447
1783696784914091300,1.82109130859375,5.451588996869325,3.695860596817732,-1.434793733909726
1783696784924054300,1.83105419921875,5.650353911891579,3.83199048422873,-1.3867527565792201
1783696784934017500,1.841017578125,5.675276171702146,3.9884132180839775,-1.2863742737680672
1783696784943980500,1.85098046875,5.369626168453693,4.096873592802882,-1.239870589007437
1783696784953943600,1.860943603515625,4.777423076614737,4.111352200010419,-1.252950143072009
1783696784963906600,1.870906494140625,4.380900377786159,4.005788715776801,-1.1366346709385513
1783696784973869600,1.88086962890625,3.951706996977329,3.660240417382121,-0.8781156175035982
1783696784983832300,1.890832275390625,3.2009254545539614,3.147656805703044,-0.42687049081921574
1783696784993795000,1.900795166015625,1.9898253252178428,2.504324999651313,0.14719094126001
1783696785003758000,1.910758056640625,0.04525134661197662,1.5371172133088111,0.5768675755411387
1783696785013721300,1.920721435546875,-2.2581705569446084,0.570753476575017,0.8045499574899673
1783696785023684400,1.930684326171875,-4.8365696775883436,-0.1867167498320341,0.7193458090655506
1783696785033647400,1.9406474609375,-7.457627790263294,-0.7489817995250224,-0.03437405183203518
1783696785043610400,1.9506103515625,-9.903025969171523,-1.2166156778872013,-1.0233039137043058
1783696785053573000,1.960572998046875,-12.216785726869105,-2.106511091968417,-1.2567229396089912
1783696785063536000,1.9705361328125,-13.486163857650755,-2.698787249043584,-1.1042178175888955
1783696785073499100,1.9804990234375,-13.21293143840432,-3.127975369155407,-0.3265864082932472
1783696785083462100,1.990462158203125,-11.32948149832487,-4.4309839668601745,1.1461851740941404
1783696785093425200,2.000425048828125,-8.77640211237669,-6.022724750760197,1.8140666072517633
1783696785103388400,2.010388427734375,-6.04692804864645,-7.305801736548543,1.3876463444180787
1783696785113351400,2.020351318359375,-4.12901235986352,-8.69232740637362,1.0502151553750037
1783696785123314200,2.030314208984375,-4.010848337253928,-9.273570128259061,1.2197843710511922
1783696785133277200,2.040277099609375,-5.072886616891623,-8.49838538146317,1.5557717910267412
1783696785143240200,2.050240234375,-5.6447121066123245,-7.439672446855902,1.6612836912035942
1783696785153203200,2.060203125,-4.953312142962217,-6.901345322111249,1.8052803664669392
1783696785163166200,2.070166259765625,-3.370297101831436,-6.457748737418651,2.021388338217139
1783696785173129200,2.080129150390625,-1.5315601637035607,-5.744453168302774,1.9969713975802064
1783696785183092500,2.090092529296875,0.10689444057643413,-4.989198864379525,1.8296841553613543
1783696785193055200,2.10005517578125,1.3425988498151302,-4.200595248562097,1.471751737820357
1783696785203018200,2.110018310546875,2.056372557836771,-3.2302450725406406,0.7351227124553174
1783696785212981200,2.119981201171875,2.2739503098785874,-1.9419155730515718,-0.19276666098814457
1783696785222944300,2.1299443359375,2.3239888907670974,-0.3223375186771154,-0.8036714210897684
1783696785232907300,2.1399072265625,2.678779064759612,1.0495072993665933,-0.951622971458733
1783696785242870300,2.149870361328125,2.9759429792135954,2.104664879579842,-0.6302092896282673
1783696785252833300,2.159833251953125,3.2480209677278995,2.7970082615599035,-0.09312858474813401
1783696785262796300,2.16979638671875,3.660352061063051,3.268514012919366,0.5091763605188578
1783696785272759300,2.17975927734375,4.132014464288949,3.6436183684051033,0.7967023127295076
1783696785282722300,2.189722412109375,4.721493099600076,3.788507900854945,0.7474988674908876
1783696785292685300,2.199685302734375,5.359451395919919,3.821581610678136,0.5817769018273801
1783696785302648300,2.2096484375,5.7508431616008275,3.7026813827484846,0.5910972129562869
1783696785312611300,2.219611328125,5.861294417876005,3.3936142645329235,0.900719225108251
1783696785322574000,2.229573974609375,5.777420202881097,3.0468571748703717,1.3400528185941278
1783696785332537000,2.239537109375,5.541202047777175,2.773416665831208,1.5503947741635142
1783696785342500000,2.2495,5.243755809250474,2.617802910271287,1.5319386416271328
1783696785352463400,2.25946337890625,4.716131280305981,2.5049580368578432,1.3885764648750423
1783696785362426400,2.26942626953125,3.7485569987386462,2.519373515701294,1.1814366663478315
1783696785372389400,2.279389404296875,3.1989076849907634,2.7460549039140343,0.977589479625225
1783696785382352400,2.289352294921875,3.2533529764056204,2.901021009220183,0.8366348024062812
1783696785392315100,2.299315185546875,3.729038059276342,2.9469226364344356,0.5151839669032022
1783696785402278100,2.309278076171875,4.328685621902347,2.8030495875507593,0.06201864927858114
1783696785412241200,2.3192412109375,5.051543969133496,2.5925498110711573,-0.5310810260739177
1783696785422204200,2.3292041015625,5.690608180868625,2.4108009127795693,-0.9848352129697799
1783696785432167200,2.339167236328125,5.909378357565402,2.1608459087461234,-1.2769793995656071
1783696785442130400,2.34913037109375,5.6007496307671065,1.9453905556857585,-1.6020139022417366
1783696785452093400,2.359093505859375,5.024982709944248,1.9320505971193311,-1.8399549356155096
1783696785462056200,2.36905615234375,4.0804456050932405,1.8422265338093042,-1.820108663894981
1783696785472019200,2.379019287109375,2.7054607354581353,1.4865543162852526,-1.626678534029424
1783696785481982200,2.388982177734375,1.2890110520124434,0.9277274243474006,-1.3595635747499764
1783696785491945200,2.3989453125,0.08550678463280201,0.23868366843461988,-1.0546795874379575
1783696785501908200,2.408908203125,-0.9244944337755441,-0.7192331424713134,-0.6429531089324504
1783696785511871200,2.418871337890625,-1.8001415422737597,-2.0875117924660445,0.15526194644756613
1783696785521834200,2.428834228515625,-2.495083124053478,-3.7205332657814023,1.0305555653329939
1783696785531797200,2.43879736328125,-3.478286351907253,-5.438064913907647,1.7717669500522315
1783696785541760300,2.44876025390625,-5.15718928643167,-7.4678212674975395,2.3132826417051255
1783696785551723300,2.45872314453125,-7.423643103075027,-9.296939897930622,2.510743342261016
1783696785561686300,2.468686279296875,-9.498103690788149,-10.018540354055165,2.1918425200343132
1783696785571649300,2.478649169921875,-10.900427233725786,-9.884529358494282,2.352516773854196
1783696785581612300,2.4886123046875,-11.155022757041454,-9.649452774640917,3.214604143555462
1783696785591575000,2.498574951171875,-10.014269837129115,-9.101074796003102,3.5232246870473025
1783696785601538300,2.508538330078125,-8.202849360471964,-8.577195883327722,3.0769901550665497
1783696785611501300,2.518501220703125,-6.565788256376981,-8.500076987811923,2.6699904858872294
1783696785621464300,2.52846435546875,-5.46459811604619,-8.332548922574519,2.2937568341106176
1783696785631427300,2.53842724609375,-5.028381120210886,-7.692330864629149,1.6933996619105338
1783696785641390300,2.548390380859375,-4.943639474731683,-6.279826119416952,0.8883793834950774
1783696785651353300,2.558353271484375,-4.453890795195102,-4.643891973525285,0.011691013182466849
1783696785661316000,2.568316162109375,-3.383354151803255,-3.2706863885223862,-0.375919726989232
1783696785671279000,2.578279052734375,-1.8115204299002885,-1.9914426972866057,-0.40174178518373516
1783696785681242000,2.5882421875,0.030233810222148893,-0.766800949332118,-0.44800271069705483
1783696785691205400,2.598205322265625,1.7076257556617258,0.32408348556160926,-0.6401792603049427
1783696785701168400,2.60816845703125,3.1146634676396845,1.2884744609177112,-0.9629827159933745
1783696785711131400,2.61813134765625,4.198742314171791,2.248426577043533,-1.1554844789676368
1783696785721094100,2.62809423828125,4.738405655956268,3.1880911074221134,-1.196538373889774
1783696785731057200,2.63805712890625,4.875317049133777,3.950515741366148,-1.248330666577816
1783696785741020200,2.648020263671875,4.781492518010735,4.418135591202974,-1.3287936118245125
1783696785750983200,2.657983154296875,4.526413595092296,4.6745519002050155,-1.4160245899014174
1783696785760946200,2.6679462890625,4.223061347392201,4.999828979465365,-1.504146817729622
1783696785770909200,2.6779091796875,3.8697523518681525,5.287921698713302,-1.6853323830500244
1783696785780872400,2.68787255859375,3.4791543669134377,5.505651426446438,-1.9280359546504913
1783696785790835200,2.697835205078125,3.456861286562681,5.647924638918042,-2.1655948568388816
1783696785800798200,2.707798095703125,3.7010482285887,5.6997980340182774,-2.341663517536968
1783696785810761200,2.71776123046875,4.114430292281508,5.653125714692473,-2.205766708229482
1783696785820724200,2.72772412109375,4.62678184877038,5.409451398363709,-1.7245881425090133
1783696785830688300,2.737688232421875,5.157904156702757,5.149557768639922,-1.1398515871584414
1783696785840651300,2.7476513671875,5.516657389107346,5.083977919748425,-0.6771152715794742
1783696785850614300,2.7576142578125,5.636894710859656,5.1989738337159155,-0.1984660051409155
1783696785860577300,2.767577392578125,5.793067853868007,5.175424615824222,0.11079627032056451
1783696785870540000,2.7775400390625,5.9896145083189,5.020818576002121,0.12017718906290828
1783696785880503300,2.78750341796875,6.0299792519330975,4.859302902922034,-0.02931355357207358
1783696785890466300,2.79746630859375,5.9143573150217525,4.659023491683602,-0.2822000810127705
1783696785900429300,2.80742919921875,5.775441011762618,4.399074916902184,-0.5103595789540559
1783696785910392300,2.817392333984375,5.66937542322576,3.9986014346212144,-0.5641250714112073
1783696785920355300,2.827355224609375,5.300872950223088,3.4502602808624503,-0.6953402257084846
1783696785930318300,2.837318359375,4.707154777646064,2.9444425100564957,-0.9269944338977336
1783696785940281000,2.847281005859375,4.136398378461599,2.5105618482142686,-1.1939590979862957
1783696785950244000,2.857244140625,3.3946658194124697,2.0456740536898375,-1.2793338537372647
1783696785960207000,2.86720703125,1.9404653742432594,1.4553934543460607,-0.7693061370860785
1783696785970170400,2.87717041015625,0.18241466872394083,0.8665326586723328,0.03970145739987492
1783696785980134000,2.8871337890625,-1.5039888506889343,0.11298574318885803,0.7033769633002579
1783696785990097000,2.897096923828125,-3.094831808966398,-0.9966840561956166,0.8275025246627629
1783696786000060000,2.907059814453125,-4.744446105164289,-2.1768197229474784,0.131208797621727
1783696786010023000,2.91702294921875,-6.038426762282848,-3.1345424725860354,-1.0818420273907483
1783696786019986000,2.92698583984375,-7.4270526192575685,-4.114287084418535,-1.7895502978935838
1783696786029949000,2.936948974609375,-9.150693690174817,-5.5704293113052845,-1.3285403677158056
1783696786039911700,2.94691162109375,-10.229405456715822,-6.5154316955804825,-0.2873154147325083
1783696786049874700,2.956874755859375,-10.210954438745976,-6.379426311331987,0.7128507479578257
1783696786059837700,2.966837646484375,-9.900042569446564,-6.425903984868526,2.1133279323764143
1783696786069801000,2.976801025390625,-9.269138283291458,-6.539125874900818,2.995596943232417
1783696786079764000,2.986763916015625,-8.425963119331001,-6.413944082483649,2.6829890836700794
1783696786089727000,2.99672705078125,-8.160676106131076,-6.365874755841493,2.0672360432870684
1783696786099689700,3.006689697265625,-8.49167214756012,-6.0870209895819425,1.541927536199987
1783696786109652700,3.01665283203125,-8.807997858601809,-5.40404047923088,1.0669537434037775
1783696786119615700,3.02661572265625,-8.155479706531763,-4.643987835115194,0.5612700473062694
1783696786129578800,3.036578857421875,-6.281571501779556,-3.9605630881279703,0.12170801535937935
1783696786139541800,3.046541748046875,-3.7810353730171915,-3.2901509674489495,-0.12314670639298855
1783696786149505000,3.056505126953125,-1.2812526929706334,-2.6214146710276602,-0.2327363408701494
1783696786159468000,3.066468017578125,1.0728145251959562,-1.9303478848546742,-0.07906358157647773
1783696786169430800,3.0764306640625,3.202255826374888,-1.1454051296323537,0.01222565891528502
1783696786179393800,3.086393798828125,4.799177227783203,-0.4844990884453058,0.2867145810288377
1783696786189356800,3.096356689453125,5.828332059472799,0.019786065965890883,0.5471921298541128
1783696786199319800,3.10631982421875,6.422434262931347,0.5818377651691437,0.6114125269606709
1783696786209282800,3.11628271484375,6.760449827733636,1.2864976078867911,0.40795781015437094
1783696786219245800,3.126245849609375,6.828654179909825,2.1246341931581494,-0.015553725625760852
1783696786229208800,3.136208740234375,6.429718574720621,2.8459891500890255,-0.4855283218951896
1783696786239171800,3.146171875,5.850898111546039,3.1933708013907074,-0.7076406120941042
1783696786249134800,3.156134765625,5.313063154232502,3.3076167737737294,-0.622658435857296
1783696786259097900,3.166097900390625,4.971618199503421,3.405282490494847,-0.5468384941108525
1783696786269060900,3.176060791015625,4.7701644837886095,3.3858453840970992,-0.5139362683970481
1783696786279023900,3.18602392578125,4.692027935662866,3.268810950039327,-0.6455991664618254
1783696786288987000,3.19598681640625,4.83357224933803,3.0043776310592887,-1.0254748280026018
1783696786298949600,3.20594970703125,5.0513341257750985,2.61492472448647,-1.2794754541650413
1783696786308912600,3.21591259765625,5.286209049576521,2.155459831793606,-1.347849025428295
1783696786318876000,3.2258759765625,5.5302282338202,1.7391978287503123,-1.1442696227964013
1783696786328839000,3.2358388671875,5.779118823492527,1.5900746042534708,-0.7957165165625513
1783696786338802000,3.245802001953125,5.962634731456637,1.578471844743192,-0.6482036498717964
1783696786348765000,3.255764892578125,6.007734686899185,1.5242834506988525,-0.7029798537414521
1783696786358728000,3.26572802734375,6.059575348773598,1.4778750430062413,-0.7878294165745378
1783696786368690700,3.275690673828125,6.26101211335361,1.517402459013462,-0.7651812391757965
1783696786378653700,3.28565380859375,6.3776230613023035,1.522178879635036,-0.6575873450931161
1783696786388616700,3.29561669921875,6.111627023050189,1.4550754744380712,-0.601372413657233
1783696786398579700,3.305579833984375,5.640260972422361,1.5755702780827878,-0.6327440688028931
1783696786408543000,3.31554296875,5.271031354188919,1.793410480453074,-0.5614699903251603
1783696786418506000,3.325506103515625,5.0864031010687345,1.7606944980263708,-0.4808963512456044
1783696786428469000,3.335468994140625,4.699402263823151,1.5696744980424642,-0.47559623554348945
1783696786438431700,3.345431640625,3.8918642304331064,1.5503265312328933,-0.28459614583645015
1783696786448394800,3.355394775390625,2.6289175940036773,1.602280882614851,0.2908910081969574
1783696786458357800,3.365357666015625,1.166059795126319,1.2873501330628991,0.9858453398603946
1783696786468320800,3.37532080078125,-0.19474983416199684,0.5227624758660793,1.3914312697842717
1783696786478283800,3.38528369140625,-1.3231442077606916,-0.6916822877228259,1.575043185468763
1783696786488247000,3.3952470703125,-2.524096452569961,-2.2993699978172777,1.8612527213186025
1783696786498209800,3.405209716796875,-4.534890331536531,-4.0123721858203405,2.322762563842535
1783696786508172800,3.4151728515625,-7.443758254864812,-5.165583605289459,2.720579978656769
1783696786518135800,3.4251357421875,-10.559766707372665,-5.376339986878633,2.743390653140843
1783696786528098800,3.435098876953125,-12.818291484582424,-5.617500859081745,2.136021848613024
1783696786538061800,3.445061767578125,-13.086811488354206,-5.9205333733081815,0.7405355312842875
1783696786548024800,3.45502490234375,-12.060047351193427,-5.957096971073747,-1.228220483224094
1783696786557987800,3.46498779296875,-11.377986293774843,-6.588050357067584,-2.6721234062626955
1783696786567950800,3.474950927734375,-11.597374894630908,-7.169110708123445,-3.485328671634197
1783696786577913900,3.484913818359375,-12.533334725272654,-6.504685845160484,-3.88376334156394
1783696786587876900,3.494876953125,-13.72273506397605,-5.417616584640741,-3.52195189063251
1783696786597840000,3.50483984375,-14.169787926602362,-4.568296926575899,-2.834866575311124
1783696786607803000,3.514802978515625,-12.915787397694587,-3.8514299287140368,-1.7391691871777175
1783696786617766000,3.524765869140625,-10.231887336659431,-3.3393832003906367,-0.6131112937025726
1783696786627729000,3.53472900390625,-7.215766076314449,-2.8352842162013054,0.06322758667692542
1783696786637691600,3.544691650390625,-4.620273782050609,-2.6300378302052616,0.8149435604061931
1783696786647654700,3.554654541015625,-2.5296593473941087,-2.2284745068609713,1.3924698190517724
1783696786657618000,3.564617919921875,-0.742266812056303,-1.624099623452127,1.6297630560413001
1783696786667581700,3.574581787109375,0.7311673258930445,-1.078128121434152,1.5690303549200295
1783696786677545000,3.584544921875,1.7651783654421567,-0.6379314083129167,1.1862660592656582
1783696786687508000,3.594508056640625,2.637377963835001,-0.1369587394505739,0.5437849517591298
1783696786697470000,3.604469970703125,3.5074499025493857,0.530260430406034,-0.04509809227902442
1783696786707434000,3.61443408203125,4.147293281963467,1.0734472701415418,-0.3659676572954282
1783696786717396700,3.624396728515625,4.7083372654289,1.4410712067440152,-0.5124285307152197
1783696786727359700,3.63435986328125,5.392350041437148,1.7864868186697362,-0.6034787748193368
1783696786737322800,3.64432275390625,6.125676591190695,2.1320488533288238,-0.601408434818685
1783696786747285800,3.65428564453125,6.762490978172421,2.320492280822992,-0.5761997592821717
1783696786757248800,3.664248779296875,7.20410837174654,2.3915824175685643,-0.5587409672200679
1783696786767212000,3.6742119140625,7.482250774866342,2.3725164825707674,-0.566245643761754
1783696786777175000,3.684175048828125,7.6741621707320204,2.3361583442494274,-0.5104894158788025
1783696786787137800,3.6941376953125,7.8106515391051765,2.274206622727215,-0.3907172274202108
1783696786797100800,3.704100830078125,7.829660775479674,2.171582699076831,-0.34511633671820163
1783696786807063800,3.714063720703125,7.7766230127751825,2.0206641155958174,-0.4357807963751256
1783696786817026800,3.72402685546875,7.70079474159181,1.9114882860839366,-0.7222612581208347
1783696786826989800,3.73398974609375,7.632478161212801,1.849794923236966,-1.114911791691184
1783696786836952800,3.743952880859375,7.55319828827083,1.851990095193684,-1.4513111534684895
1783696786846915800,3.753915771484375,7.502547128441929,1.8591671472162008,-1.6552233682513235
1783696786856878800,3.76387890625,7.422548878097534,1.7966756197288631,-1.861962330892682
1783696786866841900,3.773841796875,7.3370239732861515,1.7313459462061522,-2.1119035986617205
1783696786876804900,3.783804931640625,7.171075870716572,1.763243890248239,-2.2837755383223293
1783696786886767900,3.793767822265625,6.856906460925936,1.7554764711171387,-2.3657483036100864
1783696786896731000,3.80373095703125,6.500934383672475,1.654452383878827,-2.3844286002911628
1783696786906694000,3.81369384765625,6.04681582044363,1.5295134603068232,-2.3329013882800935
1783696786916656600,3.82365673828125,5.397054273605346,1.4748697237104176,-2.072899768137187
1783696786926619600,3.83361962890625,4.4001282253474,1.4248378648236393,-1.5960260600037872
1783696786936583000,3.8435830078125,2.9537077665299174,1.3354708976313472,-0.868165082179755
1783696786946546000,3.8535458984375,1.3948328949213027,1.0549448142454028,0.16209873366504907
1783696786956509000,3.863509033203125,0.004932195705175399,0.479427776530385,1.4060468012444673
1783696786966472000,3.873471923828125,-1.2996785764992236,-0.4788195815041661,2.5300118140935894
1783696786976435000,3.88343505859375,-2.5339433083236216,-1.333096861976385,3.3307378293812273
1783696786986397000,3.89339697265625,-3.880269654229283,-1.9017413835734127,3.6609056032925844
1783696786996360000,3.90335986328125,-5.754285411009192,-2.794081268197298,3.8411215929284688
1783696787006323200,3.9133232421875,-7.356753340628742,-3.757846805131435,3.4863609372913835
1783696787016286200,3.9232861328125,-8.512339088013768,-4.094256688302755,1.8339248616710304
1783696787026249200,3.933249267578125,-10.209942046833037,-4.169570580223202,0.32474655258022245
1783696787036212000,3.9432119140625,-11.221955189585685,-4.087535855615139,-0.2605327678775415
1783696787046175000,3.953175048828125,-10.949611243611573,-3.9894562973961234,-0.4285757603671401
1783696787056138000,3.963137939453125,-10.843951897788047,-3.889753229628503,-0.3578038957905024
1783696787066101000,3.97310107421875,-10.941146197605132,-3.4519252914652228,0.04726484185885638
1783696787076064000,3.98306396484375,-10.634080482339858,-2.9833076627627015,0.8139717196993529
1783696787086027300,3.99302734375,-9.613126492762564,-2.8881065825894474,1.022441013264656
1783696787095990300,4.002990234375,-7.899058136832713,-3.221687672075629,0.37856063341945406
1783696787105953000,4.012953125,-5.613062584373354,-3.664236793541908,-0.7680468577399849
1783696787115916000,4.022916015625,-3.127740391355753,-3.996193204435706,-1.9669860091611742
1783696787125879000,4.032879150390625,-0.842986363390088,-4.059404570630193,-2.8794530282735824
1783696787135842000,4.042842041015625,1.0785410861492157,-3.760851832166314,-3.3723397135749456
1783696787145805000,4.05280517578125,2.33338332657814,-2.9892554652512073,-3.4075489741221068
1783696787155768000,4.06276806640625,2.3012901522248983,-1.7756845618873833,-3.0281384458750487
1783696787165731000,4.07273095703125,1.7576608294188976,-0.5146503349505365,-2.7876176251411438
1783696787175694000,4.082694091796875,1.446373697066307,0.45837636680379507,-2.2563135309010742
1783696787185657000,4.092656982421875,1.06122579421103,1.0824041913181544,-1.5622981240555642
1783696787195620000,4.1026201171875,0.9622206455796957,1.312498018322885,-1.0736418428655714
1783696787205583000,4.1125830078125,0.9740449388861656,1.1908860472165048,-0.8759966525882482
1783696787215546000,4.122546142578125,1.3676491199195384,0.9143355163980275,-0.9188858001135289
1783696787225509000,4.132509033203125,2.2940660461902618,0.5235561104618013,-0.9543302576560526
1783696787235472000,4.142471923828125,3.286027165517211,0.1172170606156811,-0.8688308526121079
1783696787245435000,4.152434814453125,4.05428123626709,-0.13971556387804449,-0.35245837004408237
1783696787255398100,4.162398193359375,4.627167048695683,-0.24505334959700703,0.25099848520439116
1783696787265361200,4.172361083984375,4.920543845826387,-0.2929695315040648,0.9132850574970245
1783696787275324200,4.18232421875,5.042402631300687,-0.32961046882215883,1.5868001126274465
1783696787285287200,4.192287109375,5.186995811152458,-0.3706655693206936,2.234020888941735
1783696787295250200,4.202250244140625,5.398662877845764,-0.3790584268737584,2.75478152346611
1783696787305213000,4.212212890625,5.820845503109693,-0.37261063897386193,3.1354490660369394
1783696787315176000,4.222176025390625,6.323604470866918,-0.37641974893324076,3.2773923159018157
1783696787325139000,4.232138916015625,6.934681190001964,-0.3007406769622117,2.9760514080241323
1783696787335102200,4.242102294921875,7.577907782113551,-0.2062038328513503,2.411590601852536
1783696787345065200,4.252065185546875,7.8358596301198,0.014813099858909844,1.7863640690729021
1783696787355028200,4.2620283203125,7.727529603782296,0.2764632178612053,1.2025798460111021
1783696787364991200,4.2719912109375,7.153443183392286,0.3325587607011199,0.8074146992713213
1783696787374954000,4.2819541015625,6.11444149594903,0.43930400206521153,0.522343373671174
1783696787384917000,4.2919169921875,4.720604626327753,0.7439842834986746,0.29401242815311995
1783696787394880000,4.3018798828125,2.9712340708702802,0.8518316408857702,0.032367388184741136
1783696787404843000,4.311843017578125,0.9913877033531665,0.6248357798963785,-0.21115506205055862
1783696787414806000,4.321805908203125,-1.0953647951781749,0.37632074553817507,-0.4586905473195016
1783696787424769300,4.331769287109375,-2.5482968278467655,0.49390842956453557,-0.6715843793287873
1783696787434732300,4.341732177734375,-3.6175422623842954,0.270580735693872,-0.09263959565479307
1783696787444695000,4.351695068359375,-4.695072710186243,-0.9280766761764884,1.622243766452372
1783696787454658000,4.361657958984375,-5.5854328191697595,-2.0878300646349786,2.8735055180460214
1783696787464621000,4.37162109375,-6.830736246880888,-2.4362974653467533,2.7898183500558136
1783696787474584000,4.381583984375,-8.744729209262132,-2.091206555330753,2.0544884976558384
1783696787484547000,4.391547119140625,-10.352845958423615,-1.8683485247984528,1.7114511591687798
1783696787494510000,4.401510009765625,-10.632432130610942,-1.8508415096804498,1.7457134942546486
1783696787504473000,4.41147314453125,-9.84436101423502,-1.619490960612893,1.5179127466231583
1783696787514436000,4.42143603515625,-8.631241946291922,-1.9012258352667093,1.1815392499394715
1783696787524399000,4.431399169921875,-7.870408965453505,-2.673012171795964,0.5037574042100459
1783696787534362000,4.441362060546875,-8.140764367958903,-2.9147537664964793,-0.8564550629027188
1783696787544325000,4.4513251953125,-9.468010750341415,-2.596459385730326,-1.9968001326665281
1783696787554288000,4.4612880859375,-11.514209120166301,-1.649545614875853,-2.355543428198993
1783696787564251100,4.471251220703125,-12.864716551148891,-0.29322715952694417,-2.1399228015743197
1783696787574214000,4.4812138671875,-12.841806800204514,0.42154666544795033,-1.735637067528814
1783696787584177000,4.491177001953125,-11.62105621446967,0.47994186353236434,-1.2770067259639502
1783696787594140200,4.50114013671875,-9.402064406225085,0.17306056492328642,-0.8464197719048708
1783696787604103200,4.511103271484375,-6.7295975933521985,-0.127159814491868,-0.6951864233862608
1783696787614066200,4.521066162109375,-4.181888210004568,-0.39563393329530955,-0.6521165855318307
1783696787624029200,4.531029296875,-1.6068980210214852,-0.8589572549819946,-0.6366868150793016
1783696787633992200,4.5409921875,0.7779208937615155,-1.3530755279049276,-0.7097037551689893
1783696787643955000,4.550954833984375,2.7489164308249947,-1.6349828365162014,-0.9435324578531086
1783696787653918000,4.56091796875,4.116501837858557,-1.4956626286312937,-1.1524202690914274
1783696787663881000,4.570880859375,4.891989951515198,-0.8943737285390496,-1.3393740425497294
1783696787673844200,4.58084423828125,5.38149313185811,-0.18406009784340857,-1.4181358829669652
1783696787683807200,4.59080712890625,5.848925350168347,0.44145957266390323,-1.4099172129370272
1783696787693770200,4.600770263671875,6.163776312482357,0.970797043006122,-1.299398298253119
1783696787703733000,4.61073291015625,6.306733415564894,1.3628116167604922,-1.3163874269768594
1783696787713696000,4.620696044921875,6.304556656047701,1.6567290966391564,-1.4172472635641693
1783696787723659000,4.630658935546875,6.307809520363807,1.6093799009650944,-1.2793125186882912
1783696787733622000,4.6406220703125,6.625625762224197,1.8381915792047976,-1.5407026705801485
1783696787743585000,4.6505849609375,6.931973684608936,2.0923449117109176,-2.0085542833462355
1783696787753548000,4.660548095703125,7.023623794302344,2.081577433981001,-2.283395599094033
1783696787763511300,4.67051123046875,6.974044647619128,1.91467100777328,-2.513088151821494
1783696787773474000,4.68047412109375,6.9330655714988705,1.7457453506976366,-2.580368082629144
1783696787783437000,4.69043701171875,6.987821244037151,1.6541028397887945,-2.4767408271551132
1783696787793400000,4.700400146484375,7.114208320590853,1.5215432120800017,-2.2698902208328247
1783696787803363000,4.710363037109375,7.277917704322934,1.4200705042913555,-1.991039377182722
1783696787813326000,4.720326171875,7.436592016497254,1.507368556255102,-1.7873127480998634
1783696787823289000,4.7302890625,7.544409417137503,1.636923156929016,-1.714292081683129
1783696787833252000,4.740252197265625,7.526232539933919,1.7371368045672773,-1.6475037337847054
1783696787843215000,4.750215087890625,7.444910932031274,1.8008222180142999,-1.5586854865163564
1783696787853178000,4.76017822265625,7.418461316522955,1.8649805096700787,-1.514798998516798
1783696787863141000,4.77014111328125,7.399197813126444,1.9524545027226208,-1.5133531836226581
1783696787873104100,4.780104248046875,7.286507838013768,2.069162481305003,-1.5102832746580241
1783696787883067100,4.790067138671875,7.090543367365002,2.1505618306189773,-1.4216107194706797
1783696787893030100,4.800030029296875,6.537574553805589,2.080292947128415,-1.1373292290739714
1783696787902993000,4.809992919921875,5.543293467098474,1.8832383431553839,-0.6280144099324941
1783696787912956000,4.819955810546875,4.44656615139544,1.5219348417460918,-0.20358736674264072
1783696787922919000,4.8299189453125,3.208210935387015,0.8472516196191311,0.13282222416773437
1783696787932882200,4.839882080078125,2.1099071641474962,-0.23001988498568535,0.5313756981715559
1783696787942845200,4.84984521484375,1.1423995180755853,-1.7462030313372612,1.3775624650381504
1783696787952808200,4.85980810546875,-0.08641220903992652,-3.6327363243848083,2.3662938086636363
1783696787962771200,4.869771240234375,-2.0136013376027346,-5.59305966078639,2.6851284337863324
1783696787972734000,4.87973388671875,-5.044814953139424,-6.9079013196259735,2.063436066482216
1783696787982697000,4.889697021484375,-8.110701822650432,-7.307758715835213,0.9515154924962669
1783696787992660000,4.899659912109375,-9.984307245063782,-7.148685175210237,-0.22782843935601413
1783696788002623000,4.909623046875,-10.516832405531407,-7.288772860336303,-0.8367884585980325
1783696788012586200,4.919586181640625,-9.792416307464242,-7.8717785002410405,-0.7360056327696889
1783696788022549200,4.92954931640625,-8.720708282205463,-8.404504151716829,-0.4678259303355589
1783696788032512300,4.93951220703125,-8.924007333526015,-8.442290569275617,-0.5860090960370377
1783696788042475300,4.949475341796875,-10.211799657398462,-7.402827109539508,-0.8550167737279086
1783696788052438000,4.95943798828125,-11.31299564294815,-5.7906771593391895,-1.350705437772721
1783696788062401000,4.969401123046875,-11.741449019044637,-4.349940883637965,-1.5650748952925204
1783696788072364000,4.979364013671875,-11.633325328934191,-2.9244772881314156,-1.1104402723003177
1783696788082327000,4.9893271484375,-10.554297920572758,-1.6578379346638916,-0.1130948661191389
1783696788092290000,4.9992900390625,-8.456417294305563,-0.9443091413140297,1.0165190758697689
1783696788102253300,5.00925341796875,-5.804899161437153,-0.7085065812736749,1.6149781593635677
1783696788112216300,5.01921630859375,-2.887704723790288,-0.7368830731913447,1.5093486241564154
1783696788122179000,5.029178955078125,0.0739864427089691,-0.969025357158482,0.7255712594516575
1783696788132142000,5.03914208984375,2.5839240215450525,-1.223242694811523,0.028181699997931717
1783696788142105000,5.04910498046875,4.081518202760815,-1.136480649420619,0.0185480486035347
1783696788152068000,5.059068115234375,4.339963971763849,-0.5027455237537622,0.6878799728304147
1783696788162031000,5.069031005859375,4.078672750201821,0.16717530627697705,1.2142588125627487
1783696788171994000,5.078994140625,3.883976107531786,0.6138187113195658,1.3940057964473962
1783696788181957000,5.08895703125,3.586427577674389,0.8503848030783235,1.3632292576506733
1783696788191920000,5.098920166015625,3.174544228106737,0.88752839268893,0.9563063800346105
1783696788201883100,5.108883056640625,2.9868975039482115,0.6903853797800839,0.530644790081121
1783696788211846100,5.11884619140625,3.134205203455686,0.5375913578160106,0.14658720321319996
1783696788221809200,5.12880908203125,3.7484056075692176,0.4893076577708125,-0.08132334320200607
1783696788231772200,5.138772216796875,4.961725166520476,0.38365328038334845,-0.008643133386550471
1783696788241735200,5.148735107421875,6.533053861510753,0.35867110707908867,0.4148843214819208
1783696788251698000,5.158697998046875,7.929605835309625,0.4345353263586759,0.8194250897344202
1783696788261661000,5.168660888671875,8.880764404127001,0.6224488847598433,1.0533560106839983
1783696788271624200,5.178624267578125,9.18099705850184,0.8151125602975487,1.220950492221117
1783696788281587200,5.188587158203125,8.986568711379169,1.3627742073595523,0.22570077967755495
1783696788291550200,5.19855029296875,9.038349752020835,2.0915134293228386,0.21980819624131545
1783696788301513200,5.20851318359375,9.007118162932992,2.3796435579717157,0.7326914667204022
1783696788311476200,5.218476318359375,7.7241300244718785,2.768006331220269,1.8172326700672505
1783696788321439000,5.22843896484375,6.598676380500197,3.0821003376871348,2.1527618248812854
1783696788331402000,5.238402099609375,5.997372867360711,3.5309473902538415,1.992984373770654
1783696788341365000,5.248364990234375,5.452572162687778,3.9441935526072975,1.8487658724501728
1783696788351328300,5.258328369140625,5.133252530527114,4.262880439822376,1.240989948426187
1783696788361291300,5.268291259765625,4.502763254913687,4.378830585774779,0.8530605250936001
1783696788371254300,5.278254150390625,3.2914813392698763,4.2401878387600185,1.0148670708790422
1783696788381217300,5.28821728515625,2.2457553120076654,3.863419641715288,1.4213887472830713
1783696788391180000,5.298179931640625,1.3477549174040555,2.976417026466131,1.8988237425610421
1783696788401143000,5.30814306640625,0.22203882310390471,1.648079633976519,2.3682534182988104
1783696788411106000,5.31810595703125,-1.2258616451382636,0.1643719392940402,2.789052918641269
1783696788421692200,5.328692138671875,-3.649848202705383,-1.2601985067650674,3.4168303049474953
1783696788431655200,5.3386552734375,-6.8561787311732765,-1.967775113712251,3.7368338277190922
1783696788441618200,5.3486181640625,-10.653217729008198,-2.2417583513259887,3.1805677261799574
1783696788451581200,5.358581298828125,-13.96956813659668,-2.626066296225786,1.3539093483805655
1783696788461544000,5.3685439453125,-15.62408540240526,-2.9277941575944424,-1.0747087414447218
1783696788471507200,5.378507080078125,-15.595586453151702,-3.1035686576515435,-2.692232712833583
1783696788481470200,5.38847021484375,-14.387449849796294,-3.4673242283880708,-2.7011843733131884
1783696788491433200,5.39843310546875,-12.294140184706448,-4.34801985244751,-1.5132864019967616
1783696788501396200,5.408396240234375,-10.34792896028757,-5.200763639742136,-0.8318898729015142
1783696788511359200,5.418359130859375,-9.255007466608285,-5.646282132408023,-1.0305217361286283
1783696788521322000,5.428322021484375,-8.756042630437015,-5.5031759762436145,-1.2841998523384333
1783696788531285000,5.438284912109375,-8.46156810119748,-4.842528293731808,-1.2406556019052863
1783696788541248000,5.448248046875,-7.945810535657405,-4.0712528293341395,-1.0206881782479584
1783696788551211000,5.4582109375,-6.80370970826745,-3.5191789187878366,-0.6789234169799834
1783696788561174300,5.46817431640625,-5.131051221090555,-3.0258465355455875,-0.20729813089407978
1783696788571137300,5.47813720703125,-3.1084792260468004,-2.663646377557516,0.36367074199728666
1783696788581100300,5.488100341796875,-0.9081821814000606,-2.4637872375577685,0.6499259436197579
1783696788591063000,5.49806298828125,1.2267314137101173,-2.327428802087903,0.37420433790609237
1783696788601026000,5.508026123046875,3.032548079010844,-2.205236839136481,0.10038827355280518
1783696788610989000,5.517989013671875,4.380141668373346,-2.0414251640737056,0.09840133751928806
1783696788620952000,5.5279521484375,4.899860538759827,-1.5682602473303675,0.27325813820958134
1783696788630915000,5.5379150390625,4.5289995199322695,-0.48879620111733674,0.19331351774856448
1783696788640878000,5.547878173828125,4.107811750924587,0.6458978571474552,-0.20426541213467717
1783696788650841300,5.55784130859375,3.9323920556545255,1.3358277482450007,-0.7298170803278684
1783696788660804000,5.56780419921875,3.772756204971671,1.865199997639656,-1.0319888130065054
1783696788670767000,5.57776708984375,3.829030465379357,2.1128736127376557,-1.0756499678175895
1783696788680730000,5.587730224609375,4.146647969797254,2.469469374847412,-1.2089313339296728
1783696788690693000,5.597693115234375,4.661775420740247,2.9161151179775593,-1.5830094881728292
1783696788700656000,5.60765625,5.2606040681988,3.2148136946529147,-1.908764706338942
1783696788710619100,5.617619140625,5.743705564805865,3.3063615130156276,-2.0935725538097323
1783696788720582000,5.627581787109375,6.039799219679832,3.067447835217416,-2.1107719642832876
1783696788730545200,5.637545166015625,6.094212946912646,2.5764365883991123,-1.7150827936694024
1783696788740508200,5.647508056640625,5.979651332709193,2.133088717770576,-1.1236262093488127
1783696788750471200,5.65747119140625,6.101167003834247,2.129551483555138,-0.7208145664438604
1783696788761056300,5.66805615234375,6.413665850064158,2.3783818674728274,-0.5710204569481313
1783696788771019300,5.678019287109375,6.816646931251883,2.504566699452698,-0.6338520300447941
1783696788780982000,5.68798193359375,7.111213230428099,2.481797233761847,-0.7814604660645127
1783696788790946000,5.697946044921875,7.266192195215821,2.531421096369624,-0.9055486180260777
1783696788800908000,5.707907958984375,7.211806525033712,2.8203672175765035,-1.0641825981900095
1783696788810871000,5.71787109375,7.054616313937306,3.077990856541693,-1.2448758499488233
1783696788820834000,5.727833984375,6.91892949411869,3.233047270479798,-1.4596028887346386
1783696788830797300,5.73779736328125,6.860266292747855,3.2362527885228394,-1.7276963376574217
1783696788840760300,5.74776025390625,6.82614599648118,3.1256612469941376,-1.9388795663565397
1783696788850724000,5.75772412109375,6.526885402008891,3.0194834302544593,-1.961985570525378
1783696788860687000,5.76768701171875,5.794459600487351,3.027813451704383,-1.7589552531436086
1783696788870650000,5.777650146484375,4.572196856623887,2.9667683236330746,-1.3241720895037055
1783696788880613000,5.787613037109375,3.2089637995809315,2.8535832584798335,-0.6705107587479054
1783696788890576100,5.797576171875,1.9894833799123763,2.7120044580131766,0.00531578819528222
1783696788900539100,5.8075390625,0.8872463608771562,2.166476023587584,0.5201629608921706
1783696788910502100,5.817502197265625,-0.17480653180778025,0.9918144043326377,0.8962060585327446
1783696788920465200,5.827465087890625,-1.1777835506677627,-0.6098182435065508,1.1941278056167066
1783696788930428000,5.837427978515625,-2.071855373650789,-2.372899344408512,1.43670745857656
1783696788940391200,5.84739111328125,-3.1458389426261184,-4.098689702314138,1.745411442568153
1783696788950354200,5.857354248046875,-4.6917800983816385,-5.449513359639048,2.6943548195540905
1783696788960317200,5.867317138671875,-6.347329045325517,-6.311399653810263,3.9234009399473666
1783696788970280200,5.8772802734375,-7.924990450468659,-6.801051302713155,4.714832180406153
1783696788980243700,5.88724365234375,-9.733768888184427,-7.448350258830189,4.540756885482371
1783696788990206500,5.89720654296875,-11.04122803555727,-8.479423491361736,3.329087724086642
1783696789000169500,5.90716943359375,-11.753626948094368,-9.1543446138978,1.5695574475340544
1783696789010132500,5.917132568359375,-11.700503260672091,-9.191299256807564,1.7410455024436116
1783696789020095500,5.927095458984375,-11.633853736722468,-9.25852336577475,1.8639703097142277
1783696789030058500,5.93705859375,-11.561009449785947,-9.34731399438381,1.918742494995892
1783696789040021800,5.947021728515625,-11.48942539204359,-9.44750396888554,1.8995485497042535
1783696789049984800,5.95698486328125,-11.42172372869253,-9.5551734854877,1.8156030230388045
1783696789059947500,5.966947509765625,-9.41583749551177,-3.606338146802783,-0.8468534871470182
1783696789069910500,5.97691064453125,-5.894485324338079,-3.266000276532769,-0.5497413028802722
1783696789079873500,5.98687353515625,-2.5273557466268537,-3.2142654131203887,-0.19414763048514722
1783696789089836500,5.99683642578125,0.14890285974442957,-3.1289357386201617,-0.19834625121876595
1783696789099799600,6.006799560546875,2.044483382600546,-2.7831881182610987,-0.4250102499052882
1783696789109762600,6.016762451171875,3.124914812541008,-2.524940209917724,-0.3781200500451028
1783696789119725600,6.0267255859375,3.589776303580403,-2.1488032965138553,-0.4811284429684281
1783696789129688600,6.0366884765625,3.8067537516415118,-1.437837631650269,-1.4539711664579809
1783696789139651600,6.046651611328125,3.8052988766580818,-0.741117934282124,-2.6827429999545216
1783696789149614600,6.056614501953125,3.1958097189754247,0.16119389377981425,-3.5565228532761335
1783696789159577600,6.06657763671875,2.337529924863577,1.284472824060917,-3.941880307228863
1783696789169540600,6.07654052734375,1.9602438414245842,2.084975551986694,-3.5721190663367506
1783696789179503600,6.086503662109375,2.278660387265682,2.7306396003782747,-3.191108993938565
1783696789189466400,6.09646630859375,3.179604434105754,2.922423570472002,-3.1116029110252854
1783696789199429600,6.1064296875,4.290011315593123,2.586701377303898,-3.012751491650939
1783696789209392600,6.116392578125,5.231653283524513,2.090113791657984,-2.56483119854033
1783696789219355600,6.126355712890625,6.073101185300946,1.6502297977477312,-2.024485865841061
1783696789229318700,6.136318603515625,6.583291179841757,1.4139043828770517,-1.50211311994493
1783696789239281700,6.14628173828125,6.598665859106183,1.3136790448009967,-0.910662015517056
1783696789249244700,6.15624462890625,6.505002071502805,1.3919149616479873,-0.3120958183869719
1783696789259207400,6.16620751953125,6.4179053873300544,1.5533154839158057,0.3643162733592093
1783696789269170400,6.17617041015625,6.3136091465532775,1.6455685279384253,0.958215793852508
1783696789279133400,6.186133544921875,6.247412627068162,1.6232514821901916,1.241163259166479
1783696789289096700,6.1960966796875,6.390543917673826,1.538782808433473,1.0996543090656399
1783696789299059700,6.206059814453125,6.457070107504725,1.5489315697431563,0.6990598307535052
1783696789309022700,6.216022705078125,6.13301643255949,1.8051015027686952,0.3568991289705038
1783696789318985700,6.22598583984375,5.478969171226025,2.148932183590531,0.1284558456517756
1783696789328948500,6.235948486328125,4.726390223991871,2.6535838332265613,-0.021155308492481706
1783696789338911500,6.245911376953125,3.979351959750056,3.205428611192107,-0.2559539521872997
1783696789348874500,6.25587451171875,3.171204270029068,3.5714094567626713,-0.5849342698797583
1783696789358837500,6.26583740234375,2.375368949392438,3.698165366628766,-0.7803064737237989
1783696789368800800,6.27580078125,1.3547674265146255,3.4616122804820537,-0.6307140973452479
1783696789378763800,6.285763671875,0.07808627924323082,2.9601275704443455,-0.20333258826397357
1783696789388726500,6.2957265625,-1.3737684795826672,2.330664715269208,0.1869407678462565
1783696789398689500,6.305689453125,-2.422198505106568,1.5480179620295762,0.36307336062602696
1783696789408652500,6.315652587890625,-2.9843121636301277,0.6066127254635095,0.5346368188593537
1783696789418615600,6.325615478515625,-3.2995606008291243,-0.7057610819578171,0.6243695506241173
1783696789428578600,6.33557861328125,-3.6402912698090075,-2.1129069304853676,0.4684034014299512
1783696789438541600,6.34554150390625,-4.864667060303688,-3.5201328585118055,0.022578984620049595
1783696789448504600,6.355504638671875,-6.985049441236257,-5.048658184564113,-0.3564726837193593
1783696789458467600,6.365467529296875,-8.738788713297247,-6.0596945912390945,-0.7358561412964015
1783696789468430600,6.3754306640625,-9.783282568415999,-6.243073721081018,-1.0173805150046944
1783696789478393600,6.3853935546875,-10.494849706304073,-6.404771764990687,-0.6608837562900036
1783696789488356600,6.395356689453125,-10.198352146804332,-6.7137015205621715,0.32347733636200426
1783696789498319600,6.405319580078125,-8.88783594994843,-6.670657913127541,1.4345181318387388
1783696789508282600,6.41528271484375,-7.724171525526046,-6.34077655494213,2.0118460183680056
1783696789518245600,6.42524560546875,-7.1393375011503695,-5.983941723379492,2.1224809606470165
1783696789528208400,6.43520849609375,-6.728817256629466,-5.306990556320548,1.877369158861041
1783696789538171600,6.445171630859375,-6.052490943470597,-4.470255070018768,1.5928203958302736
1783696789548134700,6.455134765625,-4.916224229061603,-3.8542747967511413,1.4450442020282148
1783696789558097700,6.46509765625,-3.572823415213823,-3.4258839644968506,1.2265139715671538
1783696789568060700,6.475060791015625,-2.230330948382616,-2.933776154613495,0.7965286366630345
1783696789578023700,6.485023681640625,-0.8131693172752856,-2.1400568032175302,0.25203571929764
1783696789587986400,6.494986328125,0.7116495554745197,-1.2423837408721445,-0.08031027543563395
1783696789597949400,6.504949462890625,2.1491934648752213,-0.467023637509346,0.01133461009338498
1783696789607912400,6.514912353515625,3.3904344654530285,0.20555530581474302,0.33221915348321196
1783696789617875500,6.52487548828125,4.264238576433062,0.907469064694643,0.665486720040813
1783696789627838700,6.534838623046875,4.781395487377047,1.5839572904169559,0.7617189698927104
1783696789637801700,6.5448017578125,5.090386033225059,2.157346960714459,0.5395379983717575
1783696789647764700,6.5547646484375,5.273033341661096,2.636560217711329,0.13635072708744556
1783696789657727500,6.5647275390625,5.325668953305483,3.0025135907530784,-0.25579646007064727
1783696789667690500,6.5746904296875,5.1812680811554195,3.2107647115230558,-0.42801655558180063
1783696789677653500,6.584653564453125,4.762694878560304,3.2867531417042013,-0.3729570047261193
1783696789687616500,6.594616455078125,4.243291065472365,3.295487652301788,-0.24197565918471664
1783696789697579500,6.60457958984375,3.8159003501713276,3.3840842196434733,-0.23821363977007567
1783696789707542800,6.614542724609375,3.5776842992484568,3.267371564885974,-0.1380125593524426
1783696789717505800,6.624505859375,3.6064731713593003,3.3928760133862492,-0.23698300199657676
1783696789727468500,6.634468505859375,3.869896728774905,3.4782951197355985,-0.5099724062673747
1783696789737431600,6.644431640625,4.312527098783851,3.2636171807885166,-0.8064156782966106
1783696789747394600,6.65439453125,4.724150920632481,2.9467881963998077,-1.1212243358388543
1783696789757357600,6.664357666015625,4.854527943605184,2.638343593996763,-1.3124223227381706
1783696789767320600,6.674320556640625,4.753536589592695,2.6101719770014284,-1.4057741217829287
1783696789777283600,6.68428369140625,4.772720013490319,2.889227987834811,-1.452542741090059
1783696789787246600,6.69424658203125,5.004045135855675,3.28507790196836,-1.4897589575454593
1783696789797209600,6.704209716796875,5.299249148413539,3.5869542318969962,-1.5813303029142318
1783696789807172600,6.714172607421875,5.517711282074451,3.914155557218194,-1.5559062310613692
1783696789817135600,6.724135498046875,5.52595537880659,4.278910075864196,-1.354130589915812
1783696789827098600,6.7340986328125,5.183358331432938,4.524707375696301,-1.10761783529073
1783696789837061600,6.7440615234375,4.756512390533089,4.5316737075775855,-0.9100423492487519
1783696789847024600,6.754024658203125,4.208458237022161,4.284157328867912,-0.7092553538143634
1783696789856987400,6.7639873046875,3.6604555214375254,3.7254075938194986,-0.5886793746922164
1783696789866950400,6.773950439453125,2.878753940093517,3.0040608201950785,-0.31351569512225685
1783696789876913700,6.78391357421875,1.834389848834276,2.0992741264522072,0.27470008064620194
1783696789886876700,6.793876708984375,0.8657704421281814,0.9997563032478094,1.0416825970903039
1783696789896839700,6.803839599609375,0.15312135422229767,-0.3846002058446407,1.5799524386897683
1783696789906802700,6.813802734375,-0.2828665090322494,-1.7784663015604019,1.7196712905034421
1783696789916765700,6.823765625,-0.4449719646990299,-3.2665625865906476,1.5474214574411511
1783696789926728400,6.833728515625,-1.3750994359254836,-4.882227851435542,1.5092666449613867
1783696789936691500,6.84369140625,-4.376064628192782,-6.219902688851952,1.685497218222916
1783696789946654500,6.853654541015625,-7.936939831459521,-6.8559723949462175,1.69743520103693
1783696789956617500,6.863617431640625,-10.392920779180526,-6.519496460801363,1.1744795406863093
1783696789966580700,6.873580810546875,-11.494807669603825,-6.156371589183807,0.9668000823244451
1783696789976543700,6.883543701171875,-11.07470243513584,-6.608410423529148,1.5690832541510462
1783696789986506800,6.8935068359375,-9.60953519027233,-6.924538566172123,2.0547586928993464
1783696789996469800,6.9034697265625,-8.463204177966713,-6.554141657724976,1.9736166793473064
1783696790006432500,6.9134326171875,-8.192813119626045,-6.362347166237234,2.2741567922361194
1783696790016395500,6.9233955078125,-8.235989998051524,-6.581732844483852,2.9833073705017563
1783696790026358500,6.933358642578125,-7.775529372319578,-6.606744536143541,3.2012393428087234
1783696790036321500,6.943321533203125,-6.671355247741937,-5.964383036428689,2.721573665869236
1783696790046284800,6.953284912109375,-5.1645314658880235,-4.942603701943159,1.888171415643394
1783696790056247800,6.963247802734375,-3.4751965691983697,-3.767323074007034,0.8960550326894968
1783696790066210600,6.97321044921875,-1.9893454327464102,-2.5892764884889123,0.024208668181113897
1783696790076173600,6.983173583984375,-0.9191834678858518,-1.5416051723778248,-0.4236533188709989
1783696790086136600,6.993136474609375,0.0652425797611475,-0.598251139831543,-0.4837809302385896
1783696790096099600,7.003099609375,1.1219453435897826,0.2600198864519596,-0.34462581325490027
1783696790106062600,7.0130625,2.209255427128076,1.0690759231895208,-0.1625653647961095
1783696790116025600,7.023025634765625,3.212644533920288,1.8965660267621278,0.0034261385237798095
1783696790125988600,7.032988525390625,3.9069863962411877,2.6342607085973024,0.17549495246335864
1783696790135951600,7.04295166015625,4.267784870737791,3.302858473330736,0.26184472725894303
1783696790145914600,7.05291455078125,4.370058665776252,3.8103310256063936,0.3054263140277937
1783696790155877600,7.062877685546875,4.38658777577281,4.126060524320602,0.2546952390967868
1783696790165840600,7.072840576171875,4.399409847944975,4.250239861696958,0.23821645278166978
1783696790175803600,7.0828037109375,4.512534707343578,4.1536598943859335,0.30985545558165756
1783696790185766700,7.0927666015625,4.836409518590569,4.027075833955407,0.33490112257618454
1783696790195729700,7.102729736328125,5.352167084130644,3.9597909347116946,0.3458936777662486
1783696790205692400,7.1126923828125,5.920754322582483,3.779164902970195,0.3025662484215572
1783696790215655700,7.12265576171875,6.328275969809293,3.4632723226487636,0.19630809645466504
1783696790225618700,7.13261865234375,6.616774347248673,3.107271019300818,-0.1126939571680501
1783696790235581700,7.142581787109375,6.662012834379077,2.8365432763516902,-0.49623102729320523
1783696790245544700,7.152544677734375,6.584230506518483,2.706148133200407,-1.00207232510522
1783696790255507700,7.1625078125,6.368822499731182,2.7474399285316466,-1.4130802070125936
1783696790265470700,7.172470703125,5.975649695852399,2.898774399337172,-1.6800243397697805
1783696790275433500,7.18243359375,5.585388980028033,3.02489025773406,-1.8431842729255556
1783696790285396500,7.192396484375,5.21869677131772,3.1016835745573044,-2.0003201234862207
1783696790295359500,7.202359375,4.9805993783384555,3.142469758453965,-2.072247003316879
1783696790305322800,7.21232275390625,4.778404488867521,3.116237000566721,-1.9400455413959918
1783696790315285800,7.22228564453125,4.5507139236122365,3.107427671167254,-1.7608825679443776
1783696790325248800,7.232248779296875,4.449920722520351,3.206554984873533,-1.631914096595347
1783696790335211500,7.24221142578125,4.279877459591627,3.283911780798435,-1.4086236659951508
1783696790345174500,7.252174560546875,3.464767529642582,3.2045623497515914,-0.565983631824702
1783696790355137500,7.262137451171875,2.034002905118465,2.7619664665341377,0.498747394028306
1783696790365100500,7.2721005859375,0.29138007035553454,1.8823826031088828,1.3705964254178107
1783696790375063600,7.2820634765625,-1.4790350266963244,0.7865595427691936,1.9611950046695767
1783696790385026800,7.29202685546875,-3.1638194204747676,-0.769814744195342,1.9400088626474141
1783696790394989800,7.30198974609375,-4.8521641370832915,-2.606666014707088,1.4017021961688994
1783696790404952600,7.31195263671875,-6.196999367648362,-3.8843379265815017,0.26272454230077563
1783696790414915600,7.32191552734375,-7.215816345196962,-4.744831305089592,-0.7658853688571602
1783696790424878600,7.331878662109375,-8.64870278418064,-5.875002625232935,-0.8242812245287001
1783696790434841600,7.341841552734375,-10.224033700549603,-6.95925215215683,0.04798172142393887
1783696790444804600,7.3518046875,-11.107478915578126,-7.03967008921802,1.237985505913198
1783696790454767600,7.361767578125,-10.573151089602709,-6.509325779920816,2.373891570316255
1783696790464730600,7.371730712890625,-8.767385277706385,-5.867230237665772,2.8276293175339697
1783696790474693600,7.381693603515625,-7.028826039120554,-5.429504006311297,2.7531103753834962
1783696790484656600,7.39165673828125,-6.961783131939172,-5.262380430221557,3.207339120988548
1783696790494619600,7.40161962890625,-7.979360338559746,-4.880357381388545,3.567239477601647
1783696790504582700,7.411582763671875,-8.141642904359102,-4.480086728203297,2.9942990123763678
1783696790514545700,7.421545654296875,-6.751725838530064,-4.067143640449643,1.9056664480626582
1783696790524508700,7.4315087890625,-3.968421984934807,-3.757586108368635,0.7405259597383439
1783696790534471400,7.441471435546875,-0.45822833663523194,-3.4539807626903056,-0.4590522202387452
1783696790544434400,7.451434326171875,2.793606636422872,-3.0347236694842574,-1.3201561318606136
1783696790554397700,7.461397705078125,5.016565010210871,-2.3389988283723593,-1.4799332907103002
1783696790564360700,7.471360595703125,5.913757011041045,-1.4823942739963532,-1.1461086017265916
1783696790574323700,7.48132373046875,5.700083865222335,-0.7854606416165828,-0.6535753329727798
1783696790584286700,7.49128662109375,4.937797762966156,0.2096907981842756,-0.6777287273027003
1783696790594249700,7.501249755859375,3.8780736054897305,1.3029594978660344,-1.0428909499667585
1783696790604212500,7.51121240234375,2.6792683095812797,1.9083435583174229,-1.179689457354322
1783696790614175500,7.521175537109375,1.7063865692555904,2.36803495324254,-1.3317987849898636
1783696790624138500,7.531138427734375,1.0988871240854263,2.987650368142128,-1.7535555860571561
1783696790634101500,7.5411015625,0.7282166593939066,3.3126953922122717,-2.137394013749063
1783696790644064800,7.551064697265625,0.5290583611398935,3.291412073425948,-2.38334226635918
1783696790654027800,7.56102783203125,0.646830754083395,3.213912069638073,-2.383941547426581
1783696790663990800,7.57099072265625,1.1654133139163254,3.20590791914165,-2.108941533985734
1783696790673953500,7.58095361328125,2.055288269731402,3.129462977364659,-1.7135874405451117
1783696790683916500,7.59091650390625,3.0479467236727475,3.0162787889942524,-1.4386591771662234
1783696790693879600,7.600879638671875,3.9568987204015253,2.899776269856095,-1.1913783607780932
1783696790703842600,7.610842529296875,4.725993918150663,2.9047458749622104,-0.9553338086754083
1783696790713804800,7.6208046875,5.2389375953137876,3.0443802633628247,-0.7289605365637689
1783696790723768800,7.630768798828125,5.431692456266283,3.255573282803595,-0.48175870369598267
1783696790733731600,7.640731689453125,5.497374596488475,3.4821082482829686,-0.36509602556005116
1783696790743693600,7.650693603515625,5.488402185481786,3.7691649024814367,-0.3216298818644136
1783696790753656600,7.660656494140625,5.567143713763356,4.029479387965798,-0.42268743298090994
1783696790763619600,7.67061962890625,5.796236547031998,4.150127628606557,-0.5740981108278036
1783696790773582600,7.68058251953125,5.888222172290086,4.071108452427387,-0.7175402209483087
1783696790783545900,7.6905458984375,5.744396469679475,4.018559350022674,-0.7108306403070688
1783696790793508600,7.700508544921875,5.458948711982369,4.262174045118689,-0.5708984380036592
1783696790803471600,7.7104716796875,5.235206007570028,4.487011559030413,-0.5494926618814469
1783696790813434600,7.7204345703125,5.112663916006684,4.414570592197776,-0.6505319466888905
1783696790823397600,7.730397705078125,4.707557513228059,3.989701504328847,-0.6613054157681763
1783696790833360600,7.740360595703125,3.6940801431417465,3.1537481083154675,-0.23063845527544616
1783696790843323600,7.75032373046875,2.0792741254746914,2.1138059251517056,0.5174957875095307
1783696790853286700,7.76028662109375,-0.12391513348221778,1.0111369444400071,1.2024921677276492
1783696790863249700,7.770249755859375,-2.402189151778817,0.06451601905226707,1.795448416021466
1783696790873212700,7.780212646484375,-4.509809081771969,-0.8091933993816375,2.24556972630769
1783696790883175700,7.79017578125,-5.989492343243956,-1.9005565577030181,2.527804659438133
1783696790893138700,7.800138671875,-6.6687038564503185,-3.0746587895095345,2.2489080769501624
1783696790903101700,7.810101806640625,-7.8601979525625705,-4.687862048155069,1.8299620955199003
1783696790913064700,7.820064697265625,-10.137608632028103,-6.488067303314804,1.4286482168920338
1783696790923027500,7.83002734375,-11.660360635375977,-7.057640630194545,0.5966190085850656
1783696790932990500,7.839990478515625,-11.592314104110002,-6.889917919167876,0.4637639050610363
1783696790942953500,7.849953369140625,-10.423465555047988,-7.464475464200973,1.3641568938896058
1783696790952916700,7.859916748046875,-8.662121653202176,-7.727536618044972,1.5466300148025154
1783696790962879700,7.869879638671875,-7.258337390062213,-7.565623470079898,1.2530566721864045
1783696790972842800,7.8798427734375,-6.7033192427575585,-7.256608958834409,1.625393754915893
1783696790982805500,7.889805419921875,-7.0866966288089746,-6.846685511162876,2.364346620118618
1783696790992768500,7.8997685546875,-7.257696754071116,-6.412551166820526,2.6133690194770693
1783696791002731500,7.9097314453125,-6.116852648743987,-5.799881625536083,1.9777333208858965
1783696791012694500,7.919694580078125,-4.091498329505324,-5.124757673904299,0.8779456677641719
1783696791022657500,7.929657470703125,-1.9932798495858906,-4.29193848426342,-0.020464476684108376
1783696791032620500,7.93962060546875,-0.04066284977793693,-3.2731554089844224,-0.5425622050311416
1783696791042583600,7.94958349609375,1.4699872123658657,-2.1986019311666487,-0.7042279541064054
1783696791052546600,7.959546630859375,2.535555419695377,-1.0985808346152306,-0.6301715879663825
1783696791062509600,7.969509521484375,3.296853095436096,0.004143091154098511,-0.5576147396691143
1783696791072472600,7.97947265625,3.848758663678169,1.0193418782055377,-0.5258451712470501
1783696791082435600,7.989435546875,4.2183524390488865,1.864606707921624,-0.4308263888381421
1783696791092398600,7.999398681640625,4.393031545084715,2.409833529052138,-0.48149720321558415
1783696791102361600,8.009361572265625,4.45145275439322,2.780483535477519,-0.6747893128499388
1783696791112324400,8.019324462890625,4.466892315587401,2.9693834745675325,-0.8999868191804736
1783696791122287600,8.02928759765625,4.51294095005691,2.9236624646171925,-1.0324342186864466
1783696791132250600,8.039250732421875,4.590336324426532,2.8376056448861955,-1.2329942734971642
1783696791142213600,8.049213623046874,4.763672199159861,2.7410081419184804,-1.5006629211366176
1783696791152176600,8.0591767578125,5.070692321717739,2.690437061588466,-1.7844257944867015
1783696791162139600,8.0691396484375,5.428486938223243,2.643658943800628,-1.992813839509338
1783696791172102700,8.0791025390625,5.799506362482905,2.6365599254503844,-2.0048906462721527
1783696791182065400,8.0890654296875,5.9737435699701305,2.6361025370717046,-1.724382829195261
1783696791192028400,8.0990283203125,5.988264262753725,2.4865634252503512,-1.2878712343275547
1783696791201991700,8.10899169921875,5.982768587946891,2.3136717871531842,-0.8865363129116595
1783696791211954700,8.11895458984375,6.043780398270488,2.2336706141993403,-0.6266825768068433
1783696791221917700,8.128917724609375,6.149508717676997,2.161138461951911,-0.5187641269449145
1783696791231880700,8.138880615234376,6.227521347162127,2.044948954285681,-0.5087419876895845
1783696791241843700,8.14884375,6.352468746301532,2.0421654610469937,-0.5276772089798003
1783696791251806500,8.158806396484374,6.355676017910242,2.1100538791418075,-0.5231701068188995
1783696791261769500,8.16876953125,6.248463597425818,2.2259543407335878,-0.6000650573857128
1783696791271732500,8.178732421875,5.978492225801944,2.401196925871074,-0.5143737099662423
1783696791281695500,8.188695556640624,5.696398454707861,2.6037054113358256,-0.42237076824717223
1783696791291658800,8.19865869140625,5.171826299071312,2.8362387404471634,-0.33559827452749014
1783696791301621800,8.208621826171875,3.816820387625694,2.9733892030775544,-0.12056180446632206
1783696791311584500,8.21858447265625,1.8336615345597267,2.9707261213481426,0.2335584343753755
1783696791321547500,8.228547607421875,-0.5910732110261917,2.3803280331045387,0.8578044316850603
1783696791331510500,8.238510498046875,-2.67363468760848,1.348337685728073,1.465664234600216
1783696791341473500,8.2484736328125,-4.059983831822872,0.14620178409218787,1.9118360766083
1783696791351436500,8.2584365234375,-4.901631055563688,-1.1525386347740887,1.9215077219255268
1783696791361399600,8.268399658203125,-5.610501209452748,-2.092479644006491,1.4224595913849771
1783696791371362600,8.278362548828126,-6.475158137381077,-2.541794021824002,0.37995902897529304
1783696791381325600,8.28832568359375,-8.56478063839078,-3.0654233436524865,-0.41494964180309324
1783696791391288600,8.29828857421875,-11.499914052832127,-3.854670518070459,0.032037169849686326
1783696791401251600,8.30825146484375,-13.601290119999646,-4.42784040813744,1.1809354388274251
1783696791411214600,8.318214599609375,-13.683058887147903,-4.3163960491716855,1.1671993205502629
1783696791421177600,8.328177490234374,-13.7784388310194,-4.190371960711479,1.1527438019573688
1783696791431140600,8.338140625,-13.873662123024463,-4.068329635363817,1.1428102908335624
1783696791441103600,8.348103515625,-8.408536768233775,-4.898612000003457,2.0520713535115123
1783696791451066400,8.35806640625,-5.8827522164463995,-5.236044211959839,1.2700946084879339
1783696791461029600,8.368029541015625,-4.694525597697496,-5.954399402552843,1.5035039897814393
1783696791470992600,8.37799267578125,-4.2498774581253524,-6.111526485285163,2.189291812638193
1783696791480955600,8.38795556640625,-3.917922216275334,-5.619518628644943,2.363827564680576
1783696791490918700,8.397918701171875,-3.12679463493824,-4.954782215514779,1.8328072558179496
1783696791500881700,8.407881591796874,-2.154922948437929,-4.311787094071507,0.9955820132378488
1783696791510844400,8.417844482421875,-1.3494593832343815,-3.712687812978029,0.2590871356464922
1783696791520807400,8.427807373046875,-0.43924014304876324,-2.9674808558166026,-0.23946022403137757
1783696791530770400,8.4377705078125,0.6517910068392753,-2.0623130538016556,-0.56300797701478
1783696791540733700,8.447733642578125,1.645334426921606,-1.0175701923578977,-0.8017796159937978
1783696791550696700,8.45769677734375,2.410928923073411,0.14583587338924406,-0.9202543119877576
1783696791560659700,8.46765966796875,2.681568987739086,1.1146537252768873,-0.8566764505684376
1783696791570622700,8.477622802734375,2.759094125968218,1.5858470496863126,-0.8389947364706546
1783696791580585500,8.48758544921875,2.8362480927973985,2.002434339161217,-0.9017401656538248
1783696791590548500,8.497548583984376,3.01748670347929,2.404270634227991,-1.0824393356967716
1783696791600511500,8.507511474609375,3.438185227665305,2.6010309314295648,-1.4027069892972708
1783696791610474500,8.517474609375,3.912188056537509,2.6101214158579706,-1.7750597079873085
1783696791620437500,8.5274375,4.333572809422016,2.616437759397924,-2.061974323366582
1783696791630400800,8.53740087890625,4.672095154702663,2.6680697469577193,-2.105074629424512
1783696791640363800,8.54736376953125,4.9577819818526505,2.6822888264462352,-1.9863493196703492
1783696791650326500,8.557326416015625,5.289908488616347,2.5125159048914907,-1.7484703917473554
1783696791660289500,8.56728955078125,5.566823395767807,2.211503790576756,-1.4801317358918487
1783696791670252500,8.57725244140625,5.523417969283461,2.2462480639606714,-1.0048309761635958
1783696791680215600,8.587215576171875,5.289579402792453,2.4616098935186863,-0.4665433431791141
1783696791690178600,8.597178466796874,5.132755686920881,2.734486631195247,0.11598079681899398
1783696791700141600,8.6071416015625,5.317767970922589,2.986314151102304,0.5474710563933477
1783696791710104600,8.6171044921875,5.654508693483471,3.148805391216278,0.7999899560980498
1783696791720067600,8.627067626953124,5.983087152376771,3.1919957136452197,0.9704768711410462
1783696791730030600,8.637030517578125,6.466030243551731,3.0433903755426406,0.8783823056157678
1783696791739993600,8.64699365234375,6.933338543221354,2.707022577947378,0.5029573764061555
1783696791749956600,8.65695654296875,7.199740824186802,2.4463275687128303,-0.006506934208609164
1783696791759919600,8.666919677734375,7.195104396557808,2.44815595318377,-0.48043348297420885
1783696791769882600,8.676882568359375,6.957873849540949,2.4354431866049766,-0.7583034623607993
1783696791779845400,8.686845458984376,6.587716010546684,2.44996563295424,-0.8879193647678941
1783696791789808400,8.696808349609375,6.155101423117518,2.690978036597371,-0.8996537878338247
1783696791799771600,8.706771728515625,5.116540465179085,2.8354963976472614,-0.7911047849833965
1783696791809734700,8.716734619140626,3.623708383798599,2.717622882416844,-0.7292892570614814
1783696791819697700,8.72669775390625,2.0675836876809597,2.295218138834834,-0.5212776806684211
1783696791829660700,8.73666064453125,0.8655413095474243,1.31121119338274,0.03952361661493778
1783696791839623700,8.746623779296876,-0.033875966116786,-0.28025311166346073,0.7662045178089291
1783696791849586400,8.75658642578125,-0.8143395300984382,-2.022341693419218,0.8786446828790009
1783696791859549400,8.766549560546874,-1.9529998616456985,-3.9668087045192717,0.4369433008158579
1783696791869512400,8.776512451171875,-3.5211674622565505,-5.293788544920087,0.03249214707557112
1783696791879475700,8.786475830078125,-5.971959024640918,-5.416359278056025,0.06687394382264465
1783696791889438700,8.796438720703126,-9.974281525611877,-5.399336831584573,1.4891004936367271
1783696791899401700,8.806401611328125,-13.626757738733291,-5.516186848986148,3.376319430860877
1783696791909364700,8.81636474609375,-14.552474407780169,-5.161066420125961,3.58320832336694
1783696791919327500,8.826327392578126,-14.585843593418597,-5.120358562162518,3.5276311053127047
1783696791929290500,8.83629052734375,-10.542426280993222,-5.985498889693617,3.0844422246381638
1783696791939253500,8.84625341796875,-8.11823981693983,-6.128685709878802,2.202405707363784
1783696791949216500,8.856216552734375,-7.464985751810669,-6.338529652798176,2.11747146192193
1783696791959179500,8.866179443359375,-7.9139809806764125,-5.985276771375537,2.660596926859021
1783696791969142800,8.876142822265624,-8.090349939495324,-4.876532270142436,2.6160806165233255
1783696791979105500,8.88610546875,-7.525801162779331,-3.8712557421684264,1.844464960385859
1783696791989068300,8.896068359375,-6.0341942392796275,-3.3904239440590143,0.9273417860306798
1783696791999031300,8.90603125,-4.0411388460993765,-2.9784412257701156,0.20010094939898698
1783696792008994300,8.915994384765625,-2.0181331358134744,-2.3109651585429907,-0.3224273158524185
1783696792018957000,8.92595703125,-0.4509545462399721,-1.5256845496684313,-0.5472581077624112
1783696792028920000,8.935920166015626,0.5876151795268059,-0.6362684435367584,-0.4198890344340354
1783696792038883300,8.94588330078125,1.6029127507776022,0.19898586429655551,-0.3813448573105037
1783696792048846300,8.955846435546874,2.856062800335884,0.8775082261949777,-0.5846857750114053
1783696792058809300,8.965809326171875,4.028570456427335,1.4167694169193505,-0.7905567957118154
1783696792068772400,8.9757724609375,4.80613888348937,1.8788865776866672,-0.9416133263587951
1783696792078735400,8.9857353515625,5.074032279795408,2.2660262388810515,-1.0212867286629974
1783696792088698000,8.995697998046875,5.026631061673164,2.563651925627887,-1.0917378368526696
1783696792098661000,9.0056611328125,4.832736383035779,2.747514162811637,-1.1673465470012276
1783696792108624100,9.0156240234375,4.591389048349857,2.8773040335461495,-1.2033581369072197
1783696792118587100,9.025587158203125,4.390404703712463,3.111648795993626,-1.2974572471879422
1783696792128550400,9.03555029296875,4.377496706822514,3.3470205634012817,-1.5861752587273716
1783696792138513400,9.045513427734376,4.444617939937115,3.452325396698713,-1.9150987316660582
1783696792148476400,9.055476318359375,4.706368595704436,3.391537458258867,-2.002753195852041
1783696792158439200,9.065439208984374,5.117862069171667,3.2797929473027585,-1.6887001059174536
1783696792168402200,9.075402099609375,5.550084442412853,3.057427376462519,-1.1806750343255699
1783696792178365200,9.085365234375,5.873609125047921,2.9227640544727445,-0.7197135463993996
1783696792188328200,9.095328125,6.056362231945991,2.8681542201459407,-0.5099526786535978
1783696792198291200,9.105291259765625,5.999142215120792,2.7703198688596484,-0.46177306003738194
1783696792208254500,9.11525439453125,5.728931189522147,2.710871654590964,-0.4116105605082586
1783696792218217200,9.12521728515625,5.297962615734338,2.785141590416431,-0.4342042312407866
1783696792228180200,9.13518017578125,4.95450106048584,2.7955136390879747,-0.6129599025331437
1783696792238143200,9.145143310546874,4.7791292960107326,2.6506013102844355,-0.7367370888493955
1783696792248106200,9.155106201171876,4.605230526697635,2.3856927750080823,-0.8215230849269777
1783696792258069200,9.1650693359375,4.283582159328461,2.1182541367322205,-0.7257428166262805
1783696792268032300,9.1750322265625,3.658444181615114,2.0081945101231335,-0.5464600892525165
1783696792277995300,9.184995361328125,2.8031179766118526,1.9566268199712036,-0.47547407046854495
1783696792287958300,9.194958251953125,1.7307973724126815,1.9612316834181547,-0.3210409760605544
1783696792297921300,9.20492138671875,0.5014022924512624,1.607376159927249,0.162137531305477
1783696792307884300,9.21488427734375,-0.5669634366422891,0.4600251569241285,0.6145039171047508
1783696792317847300,9.224847412109375,-1.6482523601949215,-1.0643547398865223,0.8011506704404949
1783696792327810300,9.234810302734376,-3.105404640907049,-2.6133161202460524,0.562185920042172
1783696792337773300,9.244773193359375,-5.306266918221116,-4.055432744389772,0.40531420031040905
1783696792347736300,9.254736328125,-7.63162417473197,-4.725373155903816,-0.03229330003522336
1783696792357699000,9.264698974609376,-9.560409048053621,-4.943202252358198,-0.6024411388672888
1783696792367662000,9.274662109375,-10.995526607090234,-5.804898576915264,-0.3019879736095667
1783696792377625300,9.284625244140624,-11.345004061627387,-6.440699402940273,0.3274512084290385
1783696792387588400,9.29458837890625,-9.861450096201896,-6.343812561637163,1.0548607161585242
1783696792397551400,9.30455126953125,-7.353847097793221,-6.729563691082596,2.437673137614131
1783696792407514400,9.314514404296874,-4.927586165553331,-6.801019154009222,3.1204081487715243
1783696792419345200,9.32634521484375,-2.987381488072872,-6.685529319044948,3.405018578861654
1783696792429308200,9.33630810546875,-1.8268594533294438,-7.0676283557236195,4.222305560588836
1783696792439271200,9.346271240234374,-1.685109387949109,-6.97941231213212,4.474034296296536
1783696792449234200,9.356234130859375,-2.3586107068151234,-6.128882109233737,3.804629599094391
1783696792459197200,9.366197265625,-3.1790345252633094,-4.394189482948184,2.0524489546522497
1783696792469160200,9.37616015625,-3.6429017445683476,-3.0456460455149412,0.5857568383090198
1783696792479123500,9.38612353515625,-3.4431320364177225,-1.8930577263802288,-0.49505365407690405
1783696792489086200,9.396086181640625,-2.2850901280522344,-0.7707768672257661,-1.1727513286542146
1783696792499049200,9.40604931640625,-0.6820920370787382,0.3243944512069225,-1.3402289058133958
1783696792509011200,9.41601123046875,0.7648322796076535,1.3028461006194352,-0.9501566982984543
1783696792518974200,9.42597412109375,1.9811071812331675,2.051187264153361,-0.20967574674561618
1783696792528937200,9.435937255859375,3.0241198578834534,2.525965753573179,0.39167197086177763
1783696792538900200,9.445900146484375,3.747839790380001,2.87244461081624,0.8098016674730927
1783696792548863200,9.45586328125,3.975553151988983,3.0560581339359283,0.9825604729708284
1783696792558826200,9.465826171875,3.7769513185739516,2.93326294439435,0.7642416202381253
1783696792568789200,9.475789306640625,3.554972116702795,2.5630112896367905,0.21776509130746124
1783696792578752300,9.485752197265626,3.4278105486452577,1.9844500619202852,-0.4673694187397137
1783696792588715300,9.49571533203125,3.597264028987288,1.4012196733489632,-1.0931693309605122
1783696792598678300,9.50567822265625,4.05722664206922,0.8735270476043224,-1.6034997568853198
1783696792608641000,9.51564111328125,4.704751808157563,0.35699557508230206,-1.8345120139092206
1783696792618604300,9.525604248046875,5.33117631855011,-0.10390519563257694,-1.6400770909152924
1783696792628567300,9.5355673828125,5.858323293110728,-0.19619681809991596,-1.2483096237897873
1783696792638530300,9.5455302734375,6.3444795011132955,0.0971533832848072,-0.8586203511778264
1783696792648493300,9.555493408203125,6.678185970544814,0.5310416439116001,-0.4560817530605942
1783696792658456300,9.565456298828124,6.815713449794053,0.9630968438923359,-0.0745682611849159
1783696792668419300,9.57541943359375,6.738439655977487,1.4528522454306483,0.2948039803896099
1783696792678382000,9.585382080078125,6.369799820330739,1.8529200695201753,0.4703865380711853
1783696792688345000,9.595344970703126,5.788469420161843,2.3116829514235255,0.3088553751610219
1783696792698308400,9.605308349609375,5.046719909977913,2.733891587911546,-0.019533771705254912
1783696792708271400,9.615271240234375,4.300848351427913,2.9589243321344254,-0.31912630154564975
1783696792718234400,9.625234375,3.7145699734628197,3.0723356072589754,-0.4976478352885693
1783696792728197400,9.635197265625,3.409029860329628,3.1280075178593396,-0.7270373864814639
1783696792738783200,9.645783203125,3.210149209973216,2.948809473094344,-0.98099315058887
1783696792748746200,9.655746337890625,2.8856559745669363,2.5496947119459508,-1.0911501000925898
1783696792758709200,9.665709228515626,2.260441424486041,2.18060216409564,-1.1118760772570968
1783696792768671200,9.675671142578125,1.5362082817703484,2.1118384244710207,-0.9083923900846391
1783696792778634200,9.68563427734375,0.8652338510334491,1.874120386198163,-0.7177556172646582
1783696792788597200,9.69559716796875,-0.5012620071977376,1.1103495983421803,-0.24513204085640608
1783696792798560300,9.705560302734375,-2.415933599492907,-0.09715981302559375,0.6279631912019104
1783696792808523300,9.715523193359376,-3.664447805944085,-1.2760697373747825,1.045973937608674
1783696792818486300,9.725486328125,-4.219042174878716,-2.0930080517947673,0.7423311825294047
1783696792828449300,9.73544921875,-5.286324784910678,-2.8169062634676694,0.43491212378181515
1783696792838412300,9.745412353515626,-7.5726342256248,-3.748424896791577,1.1931257159020752
1783696792848375300,9.755375244140625,-10.111730678927898,-4.517878406459093,2.568019473187625
1783696792858338300,9.76533837890625,-11.222149250853061,-4.3405210211247205,2.899776269856095
1783696792868301000,9.775301025390625,-10.33383263039589,-4.441278566381335,2.9105779421165585
1783696792878264000,9.78526416015625,-8.024577198380232,-5.300169770389795,3.1306279294908044
1783696792888227300,9.795227294921874,-5.208477575120329,-6.056565061041712,2.457935588920116
1783696792898190300,9.8051904296875,-2.801535091334581,-6.389288364654779,1.798471124843508
1783696792908153300,9.8151533203125,-3.741842011269927,-5.702127938270569,1.821226269748062
1783696792918116400,9.825116455078126,-5.927013382977247,-4.6233869456350805,2.0464456225842236
1783696792928079400,9.835079345703125,-6.545412992346287,-3.614395196530223,2.125882293523103
1783696792938042000,9.8450419921875,-5.924151563805341,-2.7153262959122655,1.525729850114882
1783696792948005000,9.855005126953126,-4.807037293633818,-2.0103449661552903,0.7338732969161122
1783696792957968100,9.864968017578125,-3.4213878221213814,-1.249781449908018,0.15882972193174064
1783696792967931400,9.874931396484374,-1.9119348608076572,-0.5442629445344209,-0.02462313073351979
