time,seconds_elapsed,z,y,x
1783696667351995400,0.054995361328125,-0.029575679451227188,0.01151241734623909,-0.023431042209267616
1783696667361958400,0.06495849609375,-0.05654125288128853,-0.009576356038451195,0.11194382607936859
1783696667371921700,0.074921630859375,-0.06061840057373047,-0.05953800678253174,0.22480368614196777
1783696667381884700,0.084884765625,-0.033091168850660324,-0.12433803826570511,0.299430787563324
1783696667391847700,0.09484765625,0.0013070479035377502,-0.2001001387834549,0.3313285708427429
1783696667401810700,0.104810791015625,0.031786657869815826,-0.27245795726776123,0.3258773684501648
1783696667411773700,0.114773681640625,0.04924581199884415,-0.34000033140182495,0.2898741066455841
1783696667421736400,0.124736328125,0.061152536422014236,-0.38673004508018494,0.2355927675962448
1783696667431699500,0.134699462890625,0.06844291090965271,-0.38916677236557007,0.18276488780975342
1783696667441662500,0.144662353515625,0.06959392875432968,-0.34568721055984497,0.1467570811510086
1783696667451625500,0.15462548828125,0.07584312558174133,-0.2512429356575012,0.14233624935150146
1783696667461588700,0.164588623046875,0.08564488589763641,-0.1574048399925232,0.15530744194984436
1783696667471551700,0.1745517578125,0.09837879240512848,-0.09491510689258575,0.1740398406982422
1783696667481514500,0.184514404296875,0.0920196920633316,-0.07310488820075989,0.19433845579624176
1783696667491477500,0.1944775390625,0.06783156841993332,-0.07453355938196182,0.23137561976909637
1783696667501440500,0.2044404296875,0.03776181861758232,-0.10937755554914474,0.2649543583393097
1783696667511403500,0.214403564453125,0.06621846556663513,-0.1803939789533615,0.277759313583374
1783696667521366500,0.224366455078125,0.12069209665060043,-0.17811031639575958,0.2693610191345215
1783696667531329500,0.23432958984375,0.22875836491584778,-0.14853039383888245,0.2728599011898041
1783696667541292500,0.24429248046875,0.3487047553062439,-0.03201576694846153,0.22663114964962006
1783696667551255600,0.254255615234375,0.4585980474948883,0.1753566563129425,0.20900876820087433
1783696667561218600,0.264218505859375,0.54346764087677,0.362817645072937,0.22286120057106018
1783696667571181600,0.274181640625,0.5781898498535156,0.43490907549858093,0.21780064702033997
1783696667581144600,0.28414453125,0.5957565903663635,0.4375093877315521,0.21824458241462708
1783696667591107600,0.294107666015625,0.6051729917526245,0.4544212818145752,0.24005579948425293
1783696667601070600,0.304070556640625,0.5888816118240356,0.43797439336776733,0.2418593019247055
1783696667611033600,0.31403369140625,0.5193144083023071,0.28908616304397583,0.16136454045772552
1783696667620996400,0.323996337890625,0.4440467953681946,0.07197514176368713,0.04379716515541077
1783696667630959600,0.333959716796875,0.3929781913757324,-0.13607455790042877,-0.04855387657880783
1783696667640922600,0.343922607421875,0.3791467845439911,-0.3394761383533478,-0.0760430246591568
1783696667650885600,0.3538857421875,0.4024656116962433,-0.5505706667900085,-0.016856921836733818
1783696667660848600,0.3638486328125,0.4395522475242615,-0.6275197863578796,0.0720396637916565
1783696667670811600,0.373811767578125,0.42375531792640686,-0.5268592238426208,0.2931746244430542
1783696667680774700,0.383774658203125,0.5205641388893127,-0.2630070149898529,0.5630079507827759
1783696667690737400,0.3937373046875,0.6022816300392151,0.1931334137916565,0.7991093993186951
1783696667700700400,0.403700439453125,0.7075154185295105,0.5050129890441895,1.06694757938385
1783696667710663700,0.41366357421875,0.7006992697715759,0.7939338088035583,1.1508580446243286
1783696667720626700,0.423626708984375,0.6270327568054199,0.6006125807762146,0.9906888604164124
1783696667730589700,0.433589599609375,0.5854402780532837,0.17461015284061432,0.6926818490028381
1783696667740552700,0.443552734375,0.6037111878395081,-0.23275601863861084,0.3753853738307953
1783696667750515500,0.453515380859375,0.6189418435096741,-0.4369327127933502,0.14542792737483978
1783696667760478500,0.463478515625,0.6044377088546753,-0.3929876387119293,0.06966739147901535
1783696667770441500,0.47344140625,0.5678120851516724,-0.18389302492141724,0.1508890986442566
1783696667780404500,0.483404541015625,0.4858248233795166,0.11107069998979568,0.30940496921539307
1783696667790367500,0.493367431640625,0.37913963198661804,0.3602990210056305,0.42547181248664856
1783696667800330800,0.503330810546875,0.2700517475605011,0.4810669720172882,0.41249796748161316
1783696667810293800,0.513293701171875,0.15490257740020752,0.5410012006759644,0.2644333243370056
1783696667820256500,0.523256591796875,0.05814354866743088,0.6042554974555969,0.009603708982467651
1783696667830219500,0.533219482421875,-0.034373365342617035,0.6856021285057068,-0.3284684419631958
1783696667840182500,0.5431826171875,-0.13939031958580017,0.8795212507247925,-0.6871283054351807
1783696667850145500,0.5531455078125,-0.2531057894229889,1.2198529243469238,-1.0356783866882324
1783696667860108800,0.56310888671875,-0.3731113076210022,1.6106287240982056,-1.3344287872314453
1783696667870072800,0.57307275390625,-0.4735625684261322,1.915183186531067,-1.5369279384613037
1783696667880035800,0.583035888671875,-0.5285959839820862,2.011910915374756,-1.6096303462982178
1783696667889998800,0.592998779296875,-0.5677725672721863,1.9243757724761963,-1.5749729871749878
1783696667899961600,0.602961669921875,-0.6396824717521667,1.6733033657073975,-1.4709625244140625
1783696667909924900,0.6129248046875,-0.7449228763580322,1.273792028427124,-1.3156119585037231
1783696667919888000,0.622887939453125,-0.8533098101615906,0.850645899772644,-1.1118665933609009
1783696667929851000,0.632850830078125,-0.9320659637451172,0.4927171766757965,-0.8528928756713867
1783696667939814000,0.64281396484375,-0.9702234864234924,0.24611245095729828,-0.5545123219490051
1783696667949777000,0.65277685546875,-0.9737486839294434,0.12122458964586258,-0.23927024006843567
1783696667959740000,0.662739990234375,-0.9396807551383972,0.07704487442970276,0.0636235848069191
1783696667969702700,0.67270263671875,-0.8383750915527344,0.08761423826217651,0.35542094707489014
1783696667979665700,0.682665771484375,-0.658918559551239,0.12036579102277756,0.6302823424339294
1783696667989628700,0.692628662109375,-0.42845675349235535,0.14632950723171234,0.8907948136329651
1783696667999592000,0.702592041015625,-0.20569957792758942,0.16030071675777435,1.1441643238067627
1783696668009555000,0.712554931640625,-0.04865909367799759,0.14452658593654633,1.3800798654556274
1783696668019518000,0.72251806640625,0.002986256266012788,0.0427890419960022,1.5725958347320557
1783696668029481000,0.73248095703125,-0.04600619897246361,-0.16130061447620392,1.7092751264572144
1783696668039443700,0.742443603515625,-0.14253592491149902,-0.389543354511261,1.794694423675537
1783696668049406700,0.75240673828125,-0.22754989564418793,-0.5659205317497253,1.8579213619232178
1783696668059369700,0.76236962890625,-0.27067339420318604,-0.6484593152999878,1.8861548900604248
1783696668069332700,0.772332763671875,-0.31571829319000244,-0.6511381268501282,1.8480300903320312
1783696668079296000,0.7822958984375,-0.37091657519340515,-0.6253339052200317,1.7225857973098755
1783696668089259000,0.792259033203125,-0.4127402901649475,-0.6117302775382996,1.5077039003372192
1783696668099221800,0.8022216796875,-0.41994598507881165,-0.6527901291847229,1.2304701805114746
1783696668109184800,0.812184814453125,-0.4013224244117737,-0.7699791193008423,0.921161413192749
1783696668119147800,0.822147705078125,-0.36657455563545227,-0.9579748511314392,0.6144241094589233
1783696668129110800,0.83211083984375,-0.32292667031288147,-1.1979373693466187,0.30734431743621826
1783696668139073800,0.84207373046875,-0.2917303144931793,-1.3960133790969849,0.010249174199998379
1783696668149036800,0.852036865234375,-0.3023431897163391,-1.384690523147583,-0.23027344048023224
1783696668158999800,0.861999755859375,-0.36622631549835205,-1.148152232170105,-0.4071595072746277
1783696668168962800,0.871962890625,-0.46192872524261475,-0.7169095277786255,-0.5078017711639404
1783696668178925800,0.88192578125,-0.5378019213676453,-0.1163935735821724,-0.5187082290649414
1783696668188888800,0.891888916015625,-0.5654752254486084,0.5892578959465027,-0.4205712080001831
1783696668198851800,0.901851806640625,-0.5558122396469116,1.265075445175171,-0.19914108514785767
1783696668208814800,0.91181494140625,-0.5561031103134155,1.7167108058929443,0.10570383816957474
1783696668218777900,0.92177783203125,-0.5362359285354614,1.8640429973602295,0.3868284523487091
1783696668228740900,0.931740966796875,-0.4351205825805664,1.9526699781417847,0.633569061756134
1783696668238703600,0.94170361328125,-0.3542928397655487,1.8745613098144531,0.7171441316604614
1783696668248667000,0.9516669921875,-0.298458993434906,1.4677810668945312,0.4834124743938446
1783696668258630000,0.9616298828125,-0.23549041152000427,0.8051639795303345,-0.058633215725421906
1783696668268593000,0.971593017578125,-0.18103165924549103,0.19970330595970154,-0.7553312182426453
1783696668278556000,0.981555908203125,-0.07389482855796814,-0.14303593337535858,-1.4156886339187622
1783696668288519000,0.991518798828125,0.14494502544403076,-0.23600807785987854,-1.9218207597732544
1783696668298483000,1.00148291015625,0.40774786472320557,-0.11209066212177277,-2.2693607807159424
1783696668308446000,1.011446044921875,0.6420549750328064,0.10395497828722,-2.501694440841675
1783696668318408700,1.02140869140625,0.8458677530288696,0.30381348729133606,-2.6358509063720703
1783696668328371700,1.031371826171875,1.0005369186401367,0.47223329544067383,-2.6438701152801514
1783696668338334700,1.041334716796875,1.0928679704666138,0.6001862287521362,-2.5079281330108643
1783696668348297700,1.051297607421875,1.115971326828003,0.702974259853363,-2.249985456466675
1783696668358261000,1.061260986328125,1.0660150051116943,0.7848427295684814,-1.9104042053222656
1783696668368224000,1.07122412109375,0.9078608751296997,0.8622428774833679,-1.5344079732894897
1783696668378187000,1.08118701171875,0.6618170142173767,0.9162887930870056,-1.1541106700897217
1783696668388149800,1.091149658203125,0.40219056606292725,0.9128405451774597,-0.7836968898773193
1783696668398112800,1.10111279296875,0.18955901265144348,0.8945955038070679,-0.4205128252506256
1783696668408075800,1.11107568359375,0.0518561489880085,0.8866841197013855,-0.07674750685691833
1783696668418038800,1.121038818359375,0.0038247075863182545,0.9056612849235535,0.2425636351108551
1783696668428001800,1.131001708984375,0.04946963116526604,0.9589808583259583,0.5300961136817932
1783696668437964800,1.14096484375,0.19432029128074646,1.0470550060272217,0.7788583040237427
1783696668447927800,1.150927734375,0.4300194978713989,1.1817607879638672,0.9749757051467896
1783696668457890800,1.160890869140625,0.71916663646698,1.3736932277679443,1.0835970640182495
1783696668467853800,1.170853759765625,0.9964084029197693,1.6116565465927124,1.0851082801818848
1783696668477816800,1.18081689453125,1.2046486139297485,1.821122169494629,0.9684887528419495
1783696668487779800,1.19077978515625,1.3183914422988892,1.949124813079834,0.7495091557502747
1783696668497742800,1.200742919921875,1.3460928201675415,2.0301146507263184,0.4451066255569458
1783696668507705900,1.210705810546875,1.317010521888733,2.0614893436431885,0.09291195869445801
1783696668517668600,1.220668701171875,1.2509596347808838,1.9170392751693726,-0.2554928958415985
1783696668527632000,1.2306318359375,1.1905708312988281,1.5410492420196533,-0.5247282385826111
1783696668537595000,1.240594970703125,1.142499327659607,1.0135561227798462,-0.6508939266204834
1783696668547558000,1.250557861328125,1.0899912118911743,0.4430483281612396,-0.6026661992073059
1783696668557521000,1.26052099609375,1.017822027206421,-0.03680484741926193,-0.3793039619922638
1783696668567484000,1.27048388671875,0.9088088274002075,-0.38274627923965454,-0.040110137313604355
1783696668577447000,1.280447021484375,0.7444904446601868,-0.6489515900611877,0.33772343397140503
1783696668587409700,1.29040966796875,0.5421638488769531,-0.9537554383277893,0.724062442779541
1783696668597372700,1.30037255859375,0.3239034116268158,-1.3790733814239502,1.0917991399765015
1783696668607335700,1.310335693359375,0.034006018191576004,-1.966418981552124,1.425045132637024
1783696668617299000,1.320298828125,-0.33724847435951233,-2.555387258529663,1.709793210029602
1783696668627262000,1.330261962890625,-0.7427968978881836,-2.884127378463745,1.9717572927474976
1783696668637225000,1.340224853515625,-1.115661382675171,-2.8237593173980713,2.1932735443115234
1783696668647187700,1.350187744140625,-1.3987094163894653,-2.421614408493042,2.3198111057281494
1783696668657150700,1.360150634765625,-1.5155502557754517,-1.9029014110565186,2.307389736175537
1783696668667113700,1.37011376953125,-1.4239743947982788,-1.5325417518615723,2.1831905841827393
1783696668677076700,1.38007666015625,-1.1109977960586548,-1.1752309799194336,2.0277724266052246
1783696668687039700,1.390039794921875,-0.658595860004425,-0.7439374327659607,1.8709495067596436
1783696668697003000,1.4000029296875,-0.3155365288257599,-0.3310542404651642,1.6297454833984375
1783696668706966000,1.409966064453125,-0.1846953183412552,-0.04396109655499458,1.2442570924758911
1783696668716929800,1.4199296875,-0.24934275448322296,-0.13429178297519684,0.7163165807723999
1783696668726892800,1.429892822265625,-0.4516264498233795,-0.6100081205368042,0.11306983232498169
1783696668736855800,1.439855712890625,-0.6535406112670898,-1.1487916707992554,-0.4083118736743927
1783696668746818800,1.44981884765625,-0.7536213994026184,-1.4250503778457642,-0.6586448550224304
1783696668756781800,1.45978173828125,-0.7380107045173645,-1.402768850326538,-0.5792853236198425
1783696668766744800,1.469744873046875,-0.6257942914962769,-1.2617274522781372,-0.23630166053771973
1783696668776707800,1.479707763671875,-0.4602082669734955,-1.078096866607666,0.25180304050445557
1783696668786670800,1.4896708984375,-0.3188416659832001,-0.9001954793930054,0.7371907830238342
1783696668796633600,1.499633544921875,-0.19433486461639404,-0.8112770318984985,1.1214874982833862
1783696668806596900,1.509596923828125,-0.10563965141773224,-0.8254615068435669,1.3503979444503784
1783696668816559900,1.519559814453125,-0.06393720954656601,-0.8640507459640503,1.4292656183242798
1783696668826523000,1.52952294921875,-0.05776616185903549,-0.8674712181091309,1.3732389211654663
1783696668836486000,1.53948583984375,-0.09164875745773315,-0.8719064593315125,1.1904786825180054
1783696668846449000,1.549448974609375,-0.15463387966156006,-0.9033806920051575,0.9045278429985046
1783696668856412000,1.559411865234375,-0.2180464118719101,-0.9419605731964111,0.5637779831886292
1783696668866375200,1.569375244140625,-0.2707739770412445,-0.9462073445320129,0.21573157608509064
1783696668876338200,1.579338134765625,-0.31557658314704895,-0.8621537089347839,-0.08592122048139572
1783696668886301200,1.58930126953125,-0.3360261917114258,-0.6858230233192444,-0.3136906325817108
1783696668896264200,1.59926416015625,-0.3289400339126587,-0.44770899415016174,-0.4503169357776642
1783696668906227200,1.609227294921875,-0.27519723773002625,-0.21930761635303497,-0.4834974408149719
1783696668916190200,1.619190185546875,-0.25091853737831116,-0.05624626204371452,-0.417256623506546
1783696668926153200,1.6291533203125,-0.22768956422805786,-0.08188703656196594,-0.2819291651248932
1783696668936116200,1.6391162109375,-0.2189844846725464,-0.22200419008731842,-0.10250082612037659
1783696668946079200,1.649079345703125,-0.23801878094673157,-0.4325045347213745,0.07150617241859436
1783696668956042200,1.659042236328125,-0.2745019793510437,-0.6808898448944092,0.2060927450656891
1783696668966005000,1.6690048828125,-0.2605634927749634,-0.9015804529190063,0.29975625872612
1783696668975968000,1.678968017578125,-0.1732727736234665,-1.039390206336975,0.35980284214019775
1783696668985931300,1.68893115234375,0.12663774192333221,-1.115206003189087,0.33320334553718567
1783696668995894300,1.698894287109375,0.4811822474002838,-0.9832881689071655,0.1620054841041565
1783696669005857300,1.708857177734375,0.6942536234855652,-0.6366111040115356,-0.15938206017017365
1783696669015820300,1.7188203125,0.8635411858558655,-0.3494696319103241,-0.469375342130661
1783696669025783300,1.728783203125,0.9955632090568542,-0.06609613448381424,-0.732633650302887
1783696669035746000,1.73874609375,1.1311519145965576,0.14643849432468414,-0.9507564306259155
1783696669045709000,1.748708984375,1.2606532573699951,0.34629642963409424,-1.148078203201294
1783696669055672000,1.758672119140625,1.4341816902160645,0.44122400879859924,-1.2921981811523438
1783696669065635300,1.76863525390625,1.6681185960769653,0.44098910689353943,-1.3574274778366089
1783696669075598300,1.778598388671875,1.9435912370681763,0.4543485939502716,-1.330464243888855
1783696669085561300,1.788561279296875,2.1969285011291504,0.5308862328529358,-1.221869945526123
1783696669095524400,1.7985244140625,2.343878984451294,0.6588441729545593,-1.0892438888549805
1783696669105487000,1.808487060546875,2.2761034965515137,0.8690980076789856,-1.00092351436615
1783696669115450000,1.8184501953125,2.0321311950683594,1.15315842628479,-0.9580492377281189
1783696669125413000,1.8284130859375,1.7642885446548462,1.4312589168548584,-0.874141275882721
1783696669135376100,1.838376220703125,1.5958303213119507,1.6659963130950928,-0.6976386904716492
1783696669145339100,1.848339111328125,1.5124274492263794,1.7407019138336182,-0.4232289791107178
1783696669155302400,1.858302490234375,1.456122875213623,1.6517677307128906,-0.10562624782323837
1783696669165265200,1.86826513671875,1.337804913520813,1.5753782987594604,0.12484026700258255
1783696669175228200,1.878228271484375,1.1160069704055786,1.466477632522583,0.19773897528648376
1783696669185191200,1.888191162109375,0.8808707594871521,1.1606531143188477,0.13777674734592438
1783696669195154200,1.898154296875,0.7488962411880493,0.6690089106559753,-0.0070067900232970715
1783696669205117200,1.9081171875,0.7258492708206177,0.3015027642250061,-0.19236372411251068
1783696669215081200,1.918081298828125,0.7358880639076233,0.27172595262527466,-0.36224889755249023
1783696669225044200,1.928044189453125,0.7192763686180115,0.49977198243141174,-0.4770171046257019
1783696669235007200,1.93800732421875,0.6803244352340698,0.8390257358551025,-0.5211057662963867
1783696669244970000,1.947969970703125,0.6634945869445801,1.1760278940200806,-0.5059494972229004
1783696669254933000,1.95793310546875,0.6724015474319458,1.4520816802978516,-0.44150763750076294
1783696669264896300,1.967896240234375,0.6746304035186768,1.6979740858078003,-0.35753870010375977
1783696669274859300,1.977859375,0.6750655770301819,1.9034940004348755,-0.2774460017681122
1783696669284822300,1.987822265625,0.6921035051345825,1.9996254444122314,-0.1904345005750656
1783696669294785300,1.997785400390625,0.7068192958831787,1.9642192125320435,-0.11513389647006989
1783696669304748300,2.007748291015625,0.7339698076248169,1.8259713649749756,-0.0714837908744812
1783696669314711000,2.0177109375,0.8093612194061279,1.6246840953826904,-0.07227448374032974
1783696669324674000,2.027674072265625,0.9024645686149597,1.4692862033843994,-0.11269734054803848
1783696669334637000,2.037636962890625,0.9865953922271729,1.4164544343948364,-0.20268182456493378
1783696669344600300,2.047600341796875,1.060882568359375,1.4437897205352783,-0.3334255516529083
1783696669354563300,2.057563232421875,1.1177855730056763,1.5031728744506836,-0.4722241759300232
1783696669364526300,2.0675263671875,1.1322466135025024,1.5106176137924194,-0.5734784603118896
1783696669374489300,2.0774892578125,1.091134786605835,1.502584457397461,-0.6166490912437439
1783696669384452000,2.0874521484375,0.9949725270271301,1.5153179168701172,-0.6175971031188965
1783696669394415000,2.0974150390625,0.8728513717651367,1.5527068376541138,-0.6029824614524841
1783696669404378000,2.107378173828125,0.7445114850997925,1.6354598999023438,-0.6055325865745544
1783696669414341000,2.117341064453125,0.619101345539093,1.7431389093399048,-0.6271249651908875
1783696669424304000,2.12730419921875,0.5247905254364014,1.8622386455535889,-0.6553322076797485
1783696669434267400,2.137267333984375,0.49523693323135376,1.9985610246658325,-0.6739804744720459
1783696669444230100,2.147230224609375,0.548385739326477,2.1622684001922607,-0.6576001048088074
1783696669454193200,2.157193115234375,0.7232589721679688,2.3558719158172607,-0.5791566967964172
1783696669464156200,2.16715625,1.011827826499939,2.5987203121185303,-0.45367729663848877
1783696669474119200,2.177119140625,1.368071436882019,2.792552947998047,-0.33181771636009216
1783696669484082200,2.187082275390625,1.7784955501556396,2.7855618000030518,-0.2677918076515198
1783696669494045200,2.197045166015625,2.1987411975860596,2.4641571044921875,-0.29582104086875916
1783696669504008200,2.20700830078125,2.548393487930298,1.8083206415176392,-0.4234868288040161
1783696669513971200,2.21697119140625,2.7396891117095947,1.0454131364822388,-0.6117323637008667
1783696669523934200,2.226934326171875,2.3899004459381104,0.3711012601852417,-0.607239305973053
1783696669533897200,2.236897216796875,1.5862659215927124,-0.31211888790130615,-0.24008549749851227
1783696669543860200,2.246860107421875,0.8391594886779785,-1.2346898317337036,0.17133571207523346
1783696669553823200,2.2568232421875,0.29518306255340576,-1.9758769273757935,0.4436015784740448
1783696669563786200,2.2667861328125,-0.0038567327428609133,-2.100327491760254,0.6170940399169922
1783696669573749200,2.276749267578125,-0.09612540900707245,-1.7750632762908936,0.6379862427711487
1783696669583712000,2.2867119140625,-0.1220225840806961,-1.2868809700012207,0.4514998495578766
1783696669593675300,2.29667529296875,-0.19866062700748444,-0.9026477932929993,0.006527446210384369
1783696669603638300,2.30663818359375,-0.3369279205799103,-0.7141382098197937,-0.6741561889648438
1783696669613601300,2.316601318359375,-0.4722157120704651,-0.5629311203956604,-1.418212890625
1783696669623564300,2.326564208984375,-0.5112876296043396,-0.43213942646980286,-1.9519093036651611
1783696669633527300,2.33652734375,-0.49597495794296265,-0.4127252399921417,-2.058192253112793
1783696669643490300,2.346490234375,-0.4866940379142761,-0.5648524761199951,-1.7912626266479492
1783696669653453000,2.356453125,-0.4809943437576294,-0.8321056962013245,-1.3546220064163208
1783696669663416000,2.366416015625,-0.48669055104255676,-1.1224679946899414,-0.9114854335784912
1783696669673379000,2.376379150390625,-0.5348783135414124,-1.3594528436660767,-0.5777252912521362
1783696669683342300,2.38634228515625,-0.631945788860321,-1.5284490585327148,-0.39573025703430176
1783696669693305300,2.396305419921875,-0.7662854790687561,-1.6282368898391724,-0.33700886368751526
1783696669703268400,2.406268310546875,-0.9145122170448303,-1.6732177734375,-0.3636452853679657
1783696669713231000,2.416231201171875,-1.0593417882919312,-1.6920102834701538,-0.4183444678783417
1783696669723194000,2.426194091796875,-1.173760175704956,-1.650362491607666,-0.46683505177497864
1783696669733157000,2.4361572265625,-1.2389501333236694,-1.5033445358276367,-0.48846977949142456
1783696669743120100,2.4461201171875,-1.250808596611023,-1.249242901802063,-0.48339343070983887
1783696669753083100,2.456083251953125,-1.2210328578948975,-0.9270725250244141,-0.4392549991607666
1783696669763046100,2.466046142578125,-1.1647132635116577,-0.5882070064544678,-0.368767112493515
1783696669773009400,2.476009521484375,-1.081291913986206,-0.3400542140007019,-0.30665820837020874
1783696669782972200,2.48597216796875,-0.9059389233589172,-0.06077844277024269,-0.20967373251914978
1783696669792935200,2.49593505859375,-0.6675229072570801,0.209838405251503,-0.05392780154943466
1783696669802898200,2.505898193359375,-0.4015093445777893,0.4187321364879608,0.16865907609462738
1783696669812861200,2.515861083984375,-0.1590021699666977,0.5186946988105774,0.44211697578430176
1783696669822824200,2.52582421875,0.03481529280543327,0.5264029502868652,0.7460669279098511
1783696669832787200,2.535787109375,0.17135769128799438,0.47531023621559143,1.051113247871399
1783696669842750200,2.545750244140625,0.24329911172389984,0.34770044684410095,1.3304907083511353
1783696669852713200,2.555713134765625,0.2655586004257202,0.1563083827495575,1.558752179145813
1783696669862675500,2.565675537109375,0.26486068964004517,-0.04213201254606247,1.717361330986023
1783696669872638200,2.57563818359375,0.2603713870048523,-0.2302374690771103,1.792968511581421
1783696669882601200,2.585601318359375,0.2648698091506958,-0.46350812911987305,1.7780275344848633
1783696669892564200,2.595564208984375,0.2901168465614319,-0.7143944501876831,1.6655281782150269
1783696669902527200,2.60552734375,0.2928886115550995,-0.9237490892410278,1.442915678024292
1783696669912490200,2.615490234375,0.29232722520828247,-1.050684928894043,1.0894029140472412
1783696669922454300,2.625454345703125,0.412396639585495,-1.2039873600006104,0.6431614756584167
1783696669932417300,2.635417236328125,0.6168528199195862,-1.1639329195022583,0.18205326795578003
1783696669942380500,2.645380615234375,0.7777714133262634,-0.9509692788124084,-0.24361392855644226
1783696669952343300,2.65534326171875,0.879197359085083,-0.6571528315544128,-0.5650439262390137
1783696669962306300,2.665306396484375,0.8935948014259338,-0.2691940665245056,-0.7257876992225647
1783696669972269300,2.675269287109375,0.7877902984619141,0.338102251291275,-0.7526022791862488
1783696669982232300,2.685232421875,0.5842571258544922,1.0149174928665161,-0.719538152217865
1783696669992195300,2.6951953125,0.4117732644081116,1.4726626873016357,-0.5977928042411804
1783696670002158300,2.705158447265625,0.34414148330688477,1.721951961517334,-0.22832635045051575
1783696670012121300,2.715121337890625,0.3336752653121948,1.8344779014587402,0.3583166003227234
1783696670022084400,2.72508447265625,0.3978320360183716,1.8439580202102661,0.9242576956748962
1783696670032047400,2.73504736328125,0.5356687307357788,1.8125334978103638,1.213735818862915
1783696670042010400,2.74501025390625,0.649161696434021,1.6324734687805176,1.1816388368606567
1783696670051973400,2.754973388671875,0.6799377202987671,1.381771206855774,0.923847496509552
1783696670061936400,2.764936279296875,0.6084180474281311,1.0046205520629883,0.5373473763465881
1783696670071899400,2.7748994140625,0.4893196225166321,0.632168710231781,0.15130780637264252
1783696670081862100,2.784862060546875,0.37174177169799805,0.3323342800140381,-0.17872151732444763
1783696670091825200,2.7948251953125,0.28172796964645386,0.07549343258142471,-0.45437997579574585
1783696670101788200,2.8047880859375,0.22555485367774963,-0.1595510095357895,-0.6692895889282227
1783696670111751400,2.81475146484375,0.17860998213291168,-0.3376312851905823,-0.7788621187210083
1783696670121714400,2.82471435546875,0.1385597437620163,-0.45543909072875977,-0.7939301133155823
1783696670131677400,2.834677490234375,0.10191464424133301,-0.5374295711517334,-0.7644755244255066
1783696670141640400,2.844640380859375,0.080062635242939,-0.6132762432098389,-0.7182788848876953
1783696670151603200,2.854603271484375,0.08445551991462708,-0.7335003614425659,-0.6585455536842346
1783696670161566200,2.864566162109375,0.12154871225357056,-0.910205602645874,-0.5958413481712341
1783696670171529200,2.874529296875,0.18269382417201996,-1.048047661781311,-0.5382906794548035
1783696670181492200,2.8844921875,0.269756942987442,-1.0452910661697388,-0.4802521765232086
1783696670191455500,2.89445556640625,0.3785143196582794,-0.8711470365524292,-0.4223574697971344
1783696670201418500,2.90441845703125,0.4952266216278076,-0.5535967946052551,-0.36686548590660095
1783696670211381500,2.914381591796875,0.616690456867218,-0.1769840121269226,-0.30859339237213135
1783696670221344300,2.92434423828125,0.73460453748703,0.16824576258659363,-0.22537000477313995
1783696670231307300,2.934307373046875,0.8236417174339294,0.42108866572380066,-0.10212796181440353
1783696670241270300,2.944270263671875,0.871986985206604,0.5652175545692444,0.05788996070623398
1783696670251233300,2.9542333984375,0.8925610184669495,0.6056065559387207,0.2165919840335846
1783696670261196300,2.9641962890625,0.8668136596679688,0.5867224931716919,0.30066192150115967
1783696670271159300,2.9741591796875,0.8183257579803467,0.5736045241355896,0.2818986177444458
1783696670281122300,2.984122314453125,0.7697175741195679,0.626901388168335,0.20154333114624023
1783696670291085300,2.994085205078125,0.7187294960021973,0.7686681151390076,0.08064832538366318
1783696670301048300,3.00404833984375,0.6619275808334351,0.9542151689529419,-0.04308304935693741
1783696670311011300,3.01401123046875,0.5995550155639648,1.1186379194259644,-0.13270613551139832
1783696670320974300,3.023974365234375,0.5324060320854187,1.258651852607727,-0.1690944880247116
1783696670330937300,3.033937255859375,0.4470844268798828,1.3938349485397339,-0.18252107501029968
1783696670340900400,3.043900390625,0.3585406541824341,1.3898217678070068,-0.19213783740997314
1783696670350863000,3.053863037109375,0.28438758850097656,1.1163641214370728,-0.17305974662303925
1783696670360826400,3.063826416015625,0.22255876660346985,0.6848312020301819,-0.10978054255247116
1783696670370789400,3.073789306640625,0.15389448404312134,0.2239629328250885,-0.008904262445867062
1783696670380752400,3.08375244140625,0.0836881771683693,-0.08584345132112503,0.10708239674568176
1783696670390715400,3.09371533203125,0.0427364818751812,-0.18662945926189423,0.1777946501970291
1783696670400678400,3.103678466796875,0.03070680797100067,-0.22942394018173218,0.1505480408668518
1783696670410641400,3.113641357421875,0.031507886946201324,-0.3083243668079376,0.001319140545092523
1783696670420604200,3.123604248046875,0.05797139182686806,-0.47154346108436584,-0.2484479397535324
1783696670430567200,3.133567138671875,0.1593819111585617,-0.6849212646484375,-0.5141510367393494
1783696670440530200,3.1435302734375,0.33742815256118774,-0.7832231521606445,-0.6798568964004517
1783696670450493400,3.153493408203125,0.5130527019500732,-0.5797808170318604,-0.5575786828994751
1783696670460456400,3.16345654296875,0.5392962098121643,0.03982905298471451,-0.0669206976890564
1783696670470419500,3.17341943359375,0.41837915778160095,0.7463768720626831,0.5685151219367981
1783696670480382200,3.18338232421875,0.29391035437583923,1.221035122871399,0.9706447720527649
1783696670490345200,3.19334521484375,0.224850594997406,1.4312936067581177,0.9787492752075195
1783696670500308200,3.20330810546875,0.23496471345424652,1.3843631744384766,0.6741083264350891
1783696670510271200,3.213271240234375,0.3391755521297455,1.1279749870300293,0.2186289280653
1783696670520234200,3.223234130859375,0.4863956570625305,0.728829562664032,-0.22434736788272858
1783696670530197500,3.233197509765625,0.6243071556091309,0.18459904193878174,-0.5744057893753052
1783696670540160500,3.243160400390625,0.7218596935272217,-0.4256157875061035,-0.8226109147071838
1783696670550123300,3.253123291015625,0.7323871850967407,-1.0548970699310303,-0.9860549569129944
1783696670560086300,3.263086181640625,0.654581606388092,-1.6117169857025146,-1.0758781433105469
1783696670570049300,3.27304931640625,0.5037497878074646,-2.038306713104248,-1.0872136354446411
1783696670580012300,3.28301220703125,0.2944142520427704,-2.3240573406219482,-1.0259071588516235
1783696670589975300,3.292975341796875,0.041738033294677734,-2.4588282108306885,-0.9116135835647583
1783696670599938300,3.302938232421875,-0.20966947078704834,-2.447375535964966,-0.7811890840530396
1783696670609901300,3.3129013671875,-0.4036727547645569,-2.2527854442596436,-0.6959711313247681
1783696670619864300,3.3228642578125,-0.5190790295600891,-1.8690624237060547,-0.6820898056030273
1783696670629827300,3.332827392578125,-0.5957543849945068,-1.3472354412078857,-0.7228641510009766
1783696670639790300,3.342790283203125,-0.6369298696517944,-0.8232847452163696,-0.8321627378463745
1783696670649753300,3.35275341796875,-0.6092715859413147,-0.29026129841804504,-0.9959806799888611
1783696670659716400,3.36271630859375,-0.4587615132331848,0.3807579576969147,-1.1271295547485352
1783696670669679400,3.372679443359375,-0.23993143439292908,1.0284509658813477,-1.2291789054870605
1783696670679642400,3.382642333984375,0.00031200225930660963,1.6102555990219116,-1.2966176271438599
1783696670689605000,3.392605224609375,0.24527062475681305,2.1604971885681152,-1.3255482912063599
1783696670699568400,3.402568359375,0.471060186624527,2.7116427421569824,-1.2979657649993896
1783696670709531400,3.412531494140625,0.6373458504676819,3.2235195636749268,-1.2371889352798462
1783696670719494400,3.422494384765625,0.72861647605896,3.5989956855773926,-1.2055981159210205
1783696670729457400,3.43245751953125,0.7537945508956909,3.926248073577881,-1.2465131282806396
1783696670739420400,3.44242041015625,0.7336656451225281,4.301145076751709,-1.35048246383667
1783696670749383200,3.452383056640625,0.6868893504142761,4.642395973205566,-1.5138884782791138
1783696670759346200,3.46234619140625,0.634162425994873,4.872203826904297,-1.7231286764144897
1783696670769309200,3.47230908203125,0.5737318396568298,4.925318717956543,-1.9404631853103638
1783696670779272200,3.482272216796875,0.5215415954589844,4.724886894226074,-2.0839054584503174
1783696670789235500,3.4922353515625,0.46968257427215576,4.279587268829346,-2.025482654571533
1783696670799198500,3.502198486328125,0.3907516300678253,3.590930938720703,-1.727866768836975
1783696670809161500,3.512161376953125,0.30448251962661743,2.691751718521118,-1.2234970331192017
1783696670819124200,3.522124267578125,0.23464694619178772,1.6898688077926636,-0.5820202231407166
1783696670829087200,3.532087158203125,0.18792657554149628,0.6620978713035583,0.08153245598077774
1783696670839050200,3.54205029296875,0.18560799956321716,-0.3609986901283264,0.6576430201530457
1783696670849013200,3.55201318359375,0.26132485270500183,-1.3091235160827637,1.1163742542266846
1783696670858977300,3.561977294921875,0.43526503443717957,-2.0294189453125,1.4789053201675415
1783696670868940300,3.571940185546875,0.6400743722915649,-2.516160011291504,1.6880085468292236
1783696670878903300,3.5819033203125,0.7930985689163208,-2.762997627258301,1.6716334819793701
1783696670888866300,3.5918662109375,0.8857917785644531,-2.755699872970581,1.4257310628890991
1783696670898829300,3.601829345703125,0.9459058046340942,-2.375319719314575,1.0395660400390625
1783696670908792300,3.611792236328125,0.9675682187080383,-1.5736663341522217,0.6298044323921204
1783696670918755300,3.62175537109375,0.8827890157699585,-0.4297412037849426,0.3022860586643219
1783696670928718300,3.63171826171875,0.6641743779182434,0.607279360294342,0.1222105473279953
1783696670938681300,3.641681396484375,0.3920758068561554,1.1558425426483154,0.14361391961574554
1783696670948644400,3.651644287109375,0.11175680160522461,1.189507007598877,0.31943848729133606
1783696670958607400,3.661607421875,-0.16520120203495026,0.7863641381263733,0.49944448471069336
1783696670968570000,3.671570068359375,-0.41651174426078796,0.17480383813381195,0.548345685005188
1783696670978533400,3.681533447265625,-0.596100926399231,-0.4619618356227875,0.43872177600860596
1783696670988496400,3.691496337890625,-0.7012686133384705,-1.0480847358703613,0.2684110403060913
1783696670998459400,3.70145947265625,-0.7497843503952026,-1.5634092092514038,0.15479987859725952
1783696671008422400,3.71142236328125,-0.7448785901069641,-2.043879270553589,0.14900991320610046
1783696671018385400,3.721385498046875,-0.6705164313316345,-2.4819114208221436,0.24413935840129852
1783696671028348200,3.73134814453125,-0.5283126831054688,-2.816020965576172,0.4057687222957611
1783696671038311200,3.741311279296875,-0.3485449254512787,-3.019305467605591,0.5973172783851624
1783696671048274200,3.751274169921875,-0.16623874008655548,-3.0819180011749268,0.7595866322517395
1783696671058237400,3.761237548828125,0.004658814053982496,-2.995523452758789,0.8457891941070557
1783696671068200400,3.771200439453125,0.15790589153766632,-2.778608560562134,0.8367019891738892
1783696671078163500,3.78116357421875,0.2823522984981537,-2.447305917739868,0.7333689332008362
1783696671088126500,3.79112646484375,0.3799331784248352,-2.049837350845337,0.57102370262146
1783696671098089200,3.801089111328125,0.4354599714279175,-1.6376484632492065,0.3833865821361542
1783696671108053200,3.81105322265625,0.4497177302837372,-1.2532422542572021,0.19907720386981964
1783696671118015200,3.82101513671875,0.44065093994140625,-0.9460859298706055,0.04836609214544296
1783696671127978200,3.830978271484375,0.4362082779407501,-0.7131283283233643,-0.0342281199991703
1783696671137942300,3.8409423828125,0.4431232511997223,-0.5240724086761475,-0.029763564467430115
1783696671147905300,3.8509052734375,0.4513084888458252,-0.36491310596466064,0.0407409630715847
1783696671157868300,3.860868408203125,0.45847445726394653,-0.22112445533275604,0.14026232063770294
1783696671167831300,3.870831298828125,0.4556605815887451,-0.0740700215101242,0.23042631149291992
1783696671177794300,3.880794189453125,0.4591696858406067,0.07113462686538696,0.28863731026649475
1783696671187757300,3.89075732421875,0.48304545879364014,0.2086770385503769,0.3223809003829956
1783696671197720300,3.90072021484375,0.5588992238044739,0.40824922919273376,0.35970279574394226
1783696671207683300,3.910683349609375,0.6401394605636597,0.6533588767051697,0.4009591341018677
1783696671217646300,3.920646240234375,0.673399806022644,0.8028856515884399,0.41167813539505005
1783696671227609300,3.930609375,0.6718897819519043,0.8585323691368103,0.40283989906311035
1783696671237572400,3.940572265625,0.6568360924720764,0.8858230710029602,0.39185893535614014
1783696671247535000,3.95053515625,0.6460404396057129,0.8812229633331299,0.35001295804977417
1783696671257498400,3.960498291015625,0.638918399810791,0.890808641910553,0.2540813386440277
1783696671267461400,3.97046142578125,0.6431320309638977,0.9058805704116821,0.10325905680656433
1783696671277424400,3.98042431640625,0.6451379656791687,0.8456435203552246,-0.07055910676717758
1783696671287387400,3.990387451171875,0.6129816174507141,0.7738649249076843,-0.25678491592407227
1783696671297350400,4.000350341796875,0.5892066359519958,0.7240210175514221,-0.43600907921791077
1783696671307313200,4.010313232421875,0.6477027535438538,0.5867031216621399,-0.5571275353431702
1783696671317276200,4.020276123046875,0.8240690231323242,0.3434230387210846,-0.5526869297027588
1783696671327239200,4.0302392578125,1.066964030265808,0.10299152135848999,-0.4270413815975189
1783696671337202400,4.040202392578125,1.3003078699111938,-0.013578430749475956,-0.2187894582748413
1783696671347165400,4.05016552734375,1.4621814489364624,0.21176068484783173,0.07094141840934753
1783696671357128400,4.06012841796875,1.4739384651184082,0.7758184671401978,0.299620658159256
1783696671367091500,4.070091552734375,1.2791540622711182,1.3908847570419312,0.35332995653152466
1783696671377054200,4.08005419921875,0.9433244466781616,1.9398205280303955,0.26582014560699463
1783696671387017200,4.090017333984375,0.5854315757751465,2.3297290802001953,0.12499911338090897
1783696671396980200,4.099980224609375,0.28988438844680786,2.4787511825561523,-0.030397819355130196
1783696671406943200,4.109943115234375,0.08897686004638672,2.5185017585754395,-0.19444666802883148
1783696671416906200,4.11990625,-0.08517143875360489,2.5197958946228027,-0.40697231888771057
1783696671426869500,4.129869384765625,-0.3795072138309479,2.387442111968994,-0.7129911184310913
1783696671436832500,4.13983251953125,-0.8090953230857849,2.05523419380188,-1.0670907497406006
1783696671446795300,4.149795166015625,-1.2312723398208618,1.571052074432373,-1.356680989265442
1783696671456758300,4.15975830078125,-1.4969449043273926,0.9524928331375122,-1.442057728767395
1783696671466721300,4.16972119140625,-1.5233256816864014,0.31210005283355713,-1.2734730243682861
1783696671476684300,4.179684326171875,-1.3395006656646729,-0.22640132904052734,-0.9736467599868774
1783696671486647300,4.189647216796875,-1.0472873449325562,-0.5590935349464417,-0.6732712388038635
1783696671496610300,4.1996103515625,-0.766495406627655,-0.6778391003608704,-0.44319334626197815
1783696671506573300,4.2095732421875,-0.5649537444114685,-0.6647518277168274,-0.32201820611953735
1783696671516536300,4.219536376953125,-0.4536707103252411,-0.5821377635002136,-0.2954489588737488
1783696671526499300,4.229499267578125,-0.41526126861572266,-0.4806055426597595,-0.34977343678474426
1783696671536462300,4.23946240234375,-0.45298340916633606,-0.39431440830230713,-0.4488711357116699
1783696671546425300,4.24942529296875,-0.5292822122573853,-0.31906360387802124,-0.5562241673469543
1783696671556388400,4.259388427734375,-0.6051300764083862,-0.21873150765895844,-0.6332704424858093
1783696671566351400,4.269351318359375,-0.6513257622718811,-0.09501250833272934,-0.6602184176445007
1783696671576314000,4.279314208984375,-0.6484465599060059,0.03397943824529648,-0.6170363426208496
1783696671586277000,4.289277099609375,-0.583575427532196,0.14940935373306274,-0.4953131079673767
1783696671596240400,4.299240478515625,-0.45782536268234253,0.22072279453277588,-0.3249123990535736
1783696671606203400,4.309203369140625,-0.30923643708229065,0.23115278780460358,-0.1586374044418335
1783696671616166400,4.31916650390625,-0.17042650282382965,0.19751736521720886,-0.040164727717638016
1783696671626129400,4.32912939453125,-0.041990507394075394,0.160221129655838,0.03366315737366676
1783696671636092400,4.339092529296875,0.06676068156957626,0.16362491250038147,0.08000440895557404
1783696671646055200,4.34905517578125,0.14144237339496613,0.19170928001403809,0.11820000410079956
1783696671656018200,4.35901806640625,0.1811007410287857,0.18326467275619507,0.14254125952720642
1783696671665981200,4.368981201171875,0.21279342472553253,0.11912057548761368,0.16695472598075867
1783696671675944400,4.3789443359375,0.24379658699035645,0.029062526300549507,0.19399979710578918
1783696671685907500,4.388907470703125,0.25276556611061096,-0.1109161451458931,0.20038765668869019
1783696671695870500,4.398870361328125,0.23641455173492432,-0.31074273586273193,0.19716063141822815
1783696671705833500,4.40883349609375,0.16853377223014832,-0.5492969751358032,0.19821977615356445
1783696671715796200,4.418796142578125,0.04014730080962181,-0.8186784982681274,0.21533167362213135
1783696671725759200,4.42875927734375,-0.1292894035577774,-1.0685334205627441,0.2516571879386902
1783696671735722200,4.43872216796875,-0.29930931329727173,-1.2416200637817383,0.30459949374198914
1783696671745685200,4.448685302734375,-0.4415311813354492,-1.2944321632385254,0.37845295667648315
1783696671755648300,4.458648193359375,-0.5526441335678101,-1.2416428327560425,0.4540015161037445
1783696671765611500,4.468611572265625,-0.5950691103935242,-1.1260746717453003,0.46799322962760925
1783696671775574300,4.47857421875,-0.5577337741851807,-0.9333935379981995,0.39428162574768066
1783696671785537300,4.488537353515625,-0.4234462082386017,-0.6738905906677246,0.28088900446891785
1783696671795500300,4.498500244140625,-0.22260695695877075,-0.3764970898628235,0.16816779971122742
1783696671805463300,4.50846337890625,-0.017100397497415543,-0.06586812436580658,0.0716220885515213
1783696671815426300,4.51842626953125,0.13439233601093292,0.2597384452819824,0.07318280637264252
1783696671825389300,4.528389404296875,0.2557957172393799,0.6496747732162476,0.25633344054222107
1783696671835352300,4.538352294921875,0.3512772023677826,0.9990562200546265,0.6205062866210938
1783696671845315300,4.5483154296875,0.3997232913970947,1.1920390129089355,0.990337073802948
1783696671855278300,4.5582783203125,0.4715672433376312,1.1626883745193481,1.1936523914337158
1783696671865240600,4.568240478515625,0.5409596562385559,0.943936288356781,1.1517300605773926
1783696671875203600,4.57820361328125,0.5445985794067383,0.5279489159584045,0.9151785969734192
1783696671885166600,4.58816650390625,0.5109306573867798,0.010545504279434681,0.6028351187705994
1783696671895129600,4.598129638671875,0.5219467282295227,-0.4989420473575592,0.3116666078567505
1783696671905092400,4.60809228515625,0.5877803564071655,-0.9270161986351013,0.10074105858802795
1783696671915055600,4.6180556640625,0.6567304134368896,-1.2447210550308228,0.004728136584162712
1783696671925018600,4.6280185546875,0.703262209892273,-1.4362233877182007,-0.00390663044527173
1783696671934981600,4.637981689453125,0.719342827796936,-1.5110313892364502,0.02228858880698681
1783696671944944600,4.647944580078125,0.7012815475463867,-1.4966418743133545,0.046884745359420776
1783696671954907600,4.65790771484375,0.6280864477157593,-1.4322782754898071,0.036615338176488876
1783696671964870700,4.66787060546875,0.49200910329818726,-1.3342465162277222,-0.030732009559869766
1783696671974833400,4.67783349609375,0.3257823586463928,-1.1622079610824585,-0.14625631272792816
1783696671984796400,4.68779638671875,0.17555850744247437,-0.9083107113838196,-0.2819560766220093
1783696671994759700,4.697759765625,0.06737081706523895,-0.5678603649139404,-0.3804721534252167
1783696672004722700,4.70772265625,0.014210122637450695,-0.1738712042570114,-0.408615380525589
1783696672014685700,4.717685791015625,0.016102652996778488,0.22176513075828552,-0.3420613706111908
1783696672024648700,4.727648681640625,0.06209917366504669,0.5375291705131531,-0.19704772531986237
1783696672034611500,4.737611572265625,0.10430071502923965,0.6996812224388123,-0.040833067148923874
1783696672044574500,4.747574462890625,0.0908765196800232,0.7337015271186829,0.031134868040680885
1783696672054537500,4.757537353515625,0.0034300016704946756,0.7249560952186584,0.0007409764220938087
1783696672064500500,4.76750048828125,-0.12909288704395294,0.7294725179672241,-0.09741967916488647
1783696672074463500,4.77746337890625,-0.27935951948165894,0.7739307880401611,-0.21736761927604675
1783696672084426800,4.7874267578125,-0.41341930627822876,0.8293061256408691,-0.30288249254226685
1783696672094389800,4.7973896484375,-0.529227077960968,0.8372121453285217,-0.32052356004714966
1783696672104352500,4.8073525390625,-0.6159561276435852,0.7444265484809875,-0.2546539902687073
1783696672114315500,4.8173154296875,-0.6547170877456665,0.5671982765197754,-0.10729727149009705
1783696672124278500,4.827278564453125,-0.6363058686256409,0.3592895269393921,0.08638537675142288
1783696672134241500,4.837241455078125,-0.5968599915504456,0.12391262501478195,0.28098976612091064
1783696672144204500,4.84720458984375,-0.5605254173278809,-0.11615750193595886,0.43280354142189026
1783696672154167600,4.85716748046875,-0.5242372751235962,-0.3908469080924988,0.5220292806625366
1783696672164130600,4.867130615234375,-0.4895474314689636,-0.7243825197219849,0.5838702321052551
1783696672174093600,4.877093505859375,-0.45382481813430786,-1.1249233484268188,0.6413779258728027
1783696672184056600,4.887056640625,-0.4281404912471771,-1.5601654052734375,0.6939540505409241
1783696672194019600,4.89701953125,-0.3604426383972168,-1.9117408990859985,0.7411074638366699
1783696672203982600,4.906982666015625,-0.23555663228034973,-2.107511043548584,0.7945041060447693
1783696672213945600,4.916945556640625,-0.07983523607254028,-2.1655454635620117,0.8019009828567505
1783696672223908600,4.92690869140625,0.09242308139801025,-2.079667329788208,0.6653149127960205
1783696672233871400,4.936871337890625,0.29362908005714417,-1.8582711219787598,0.3401762843132019
1783696672243834400,4.94683447265625,0.481635719537735,-1.3971482515335083,-0.11067638546228409
1783696672253797600,4.956797607421875,0.5994504690170288,-0.6860750913619995,-0.527298092842102
1783696672263760600,4.9667607421875,0.565218448638916,-0.0017558411927893758,-0.8579111695289612
1783696672273723600,4.9767236328125,0.4509706497192383,0.8545926809310913,-0.8795807957649231
1783696672283686700,4.986686767578125,0.28354597091674805,1.5171359777450562,-0.5657653212547302
1783696672293649700,4.996649658203125,0.10688738524913788,1.8179353475570679,-0.005458463449031115
1783696672303612400,5.0066123046875,-0.04483423009514809,1.62583327293396,0.5488287210464478
1783696672313575400,5.016575439453125,-0.11981315910816193,1.0671148300170898,0.983999490737915
1783696672323537700,5.02653759765625,-0.18425899744033813,0.3059908449649811,1.1996670961380005
1783696672333500700,5.036500732421875,-0.3021277189254761,-0.5288612246513367,1.1563525199890137
1783696672343464700,5.046464599609375,-0.3898780941963196,-1.1679162979125977,0.9058118462562561
1783696672353426400,5.056426513671875,-0.4041263461112976,-1.5084974765777588,0.5586915016174316
1783696672363389400,5.066389404296875,-0.41697824001312256,-1.5643985271453857,0.21845535933971405
1783696672373352400,5.0763525390625,-0.4689314663410187,-1.3937796354293823,-0.024489203467965126
1783696672383315500,5.0863154296875,-0.5767881870269775,-1.136621356010437,-0.14689287543296814
1783696672393278700,5.09627880859375,-0.7035828828811646,-0.931341290473938,-0.16724219918251038
1783696672403241700,5.10624169921875,-0.7724146842956543,-0.8650650382041931,-0.11161994934082031
1783696672413204700,5.116204833984375,-0.745538055896759,-0.929266631603241,0.022094056010246277
1783696672423167500,5.12616748046875,-0.6607294082641602,-1.047656774520874,0.22623813152313232
1783696672433130500,5.136130615234375,-0.5586990118026733,-1.1455787420272827,0.44996753334999084
1783696672443093500,5.146093505859375,-0.4554820656776428,-1.1288421154022217,0.616174042224884
1783696672453056500,5.156056396484375,-0.3729657232761383,-0.9532020092010498,0.704477071762085
1783696672463019500,5.16601953125,-0.3021128475666046,-0.6419802308082581,0.7195247411727905
1783696672472982500,5.175982421875,-0.25065532326698303,-0.25405311584472656,0.6983721256256104
1783696672482945800,5.18594580078125,-0.2861808240413666,0.02399313822388649,0.6290580630302429
1783696672492908500,5.195908447265625,-0.274458110332489,0.354174941778183,0.5812824964523315
1783696672502871600,5.20587158203125,-0.20901627838611603,0.6836958527565002,0.5812579989433289
1783696672512834600,5.21583447265625,-0.12635673582553864,0.8114134073257446,0.6428928375244141
1783696672522797600,5.225797607421875,-0.04992267116904259,0.7429379224777222,0.7705512046813965
1783696672532760600,5.235760498046875,0.027026230469346046,0.5783737897872925,0.9465274214744568
1783696672542723600,5.2457236328125,0.07861485332250595,0.3568781912326813,1.1405514478683472
1783696672552686600,5.2556865234375,0.10448483377695084,0.04487789422273636,1.3300232887268066
1783696672562649600,5.265649658203125,0.13191325962543488,-0.40233954787254333,1.5141931772232056
1783696672572612600,5.275612548828125,0.18032076954841614,-0.8553755879402161,1.6593940258026123
1783696672582575600,5.28557568359375,0.24458950757980347,-1.1431242227554321,1.7415916919708252
1783696672592538600,5.29553857421875,0.33938825130462646,-1.235250473022461,1.7582545280456543
1783696672602501600,5.305501708984375,0.46381673216819763,-1.1664751768112183,1.7372567653656006
1783696672621805600,5.3248056640625,0.6760783195495605,-0.7624447345733643,1.6454733610153198
1783696672631768600,5.3347685546875,0.7270306944847107,-0.2887783944606781,1.5548033714294434
1783696672641731600,5.344731689453125,0.7349738478660583,0.3998735547065735,1.4309457540512085
1783696672651694600,5.354694580078125,0.7069517970085144,1.2096571922302246,1.28999662399292
1783696672661657600,5.36465771484375,0.6272307634353638,1.8492019176483154,1.1161315441131592
1783696672671620600,5.37462060546875,0.5477633476257324,2.017622470855713,0.9119033217430115
1783696672681583600,5.38458349609375,0.5607779026031494,1.8210031986236572,0.6873629689216614
1783696672691546600,5.394546630859375,0.6990672945976257,1.6319315433502197,0.4667128920555115
1783696672701509400,5.40450927734375,0.8629624843597412,1.7351385354995728,0.2388625591993332
1783696672711472400,5.414472412109375,0.9139431118965149,2.159348249435425,-0.0830283910036087
1783696672721435600,5.424435546875,0.8130298256874084,2.6224801540374756,-0.45243561267852783
1783696672731398700,5.434398681640625,0.6484723091125488,2.772812604904175,-0.7231443524360657
1783696672741361700,5.444361572265625,0.44917380809783936,2.5591633319854736,-0.6341791749000549
1783696672751324700,5.45432470703125,0.1768869012594223,1.9516284465789795,-0.16760742664337158
1783696672761287700,5.46428759765625,-0.1270965039730072,0.9164896011352539,0.41353893280029297
1783696672771250400,5.47425048828125,-0.35556426644325256,-0.30625787377357483,0.7611799836158752
1783696672781213400,5.48421337890625,-0.46912264823913574,-1.4676042795181274,0.6360771059989929
1783696672791176400,5.494176513671875,-0.44416964054107666,-2.3459982872009277,0.06508497148752213
1783696672801139700,5.5041396484375,-0.31508520245552063,-2.7559046745300293,-0.7516747117042542
1783696672811102700,5.514102783203125,-0.06320340931415558,-2.633857011795044,-1.5130975246429443
1783696672821065700,5.524065673828125,0.22906602919101715,-2.2352285385131836,-2.0493857860565186
1783696672831028500,5.534028564453125,0.4583583176136017,-1.7885349988937378,-2.356085777282715
1783696672840991500,5.543991455078125,0.5655367970466614,-1.4338710308074951,-2.4472475051879883
1783696672850954500,5.55395458984375,0.5373435020446777,-1.1380058526992798,-2.36735200881958
1783696672860917500,5.56391748046875,0.4239293038845062,-0.8734455704689026,-2.2088706493377686
1783696672870880300,5.57388037109375,0.27487990260124207,-0.7021809220314026,-2.052989959716797
1783696672880843500,5.583843505859375,0.10262017697095871,-0.6007735729217529,-1.9374455213546753
1783696672890806500,5.593806640625,-0.09448543190956116,-0.5336728096008301,-1.8865032196044922
1783696672900769300,5.603769287109375,-0.2792825698852539,-0.44494882225990295,-1.882513165473938
1783696672910732300,5.613732177734375,-0.39185571670532227,-0.31882232427597046,-1.876550316810608
1783696672921318400,5.624318359375,-0.41112691164016724,-0.16808059811592102,-1.8447540998458862
1783696672931281400,5.634281494140625,-0.3956643044948578,0.04026489332318306,-1.7957367897033691
1783696672941243400,5.644243408203125,-0.3843436539173126,0.3337090015411377,-1.7445348501205444
1783696672951206100,5.6542060546875,-0.3734787702560425,0.6784831285476685,-1.6792596578598022
1783696672961169200,5.664169189453125,-0.3820561468601227,1.021155834197998,-1.587328553199768
1783696672971132200,5.674132080078125,-0.4103918969631195,1.3245925903320312,-1.4827576875686646
1783696672981095400,5.684095458984375,-0.4361245632171631,1.5150803327560425,-1.3722044229507446
1783696672991058400,5.694058349609375,-0.4341982901096344,1.5412960052490234,-1.264886498451233
1783696673001021400,5.704021484375,-0.4087638556957245,1.4110599756240845,-1.1593708992004395
1783696673010984400,5.713984375,-0.39285174012184143,1.194046974182129,-1.045455813407898
1783696673020947200,5.723947265625,-0.38509148359298706,0.918585479259491,-0.9094593524932861
1783696673030910200,5.73391015625,-0.3827761113643646,0.6505902409553528,-0.7438908815383911
1783696673040873200,5.743873291015625,-0.3808872103691101,0.43919825553894043,-0.5757737755775452
1783696673050836200,5.753836181640625,-0.37168920040130615,0.2521341145038605,-0.4160722494125366
1783696673060799500,5.763799560546875,-0.3504582941532135,0.03317274898290634,-0.27861323952674866
1783696673070762500,5.773762451171875,-0.32412683963775635,-0.2303672879934311,-0.13456682860851288
1783696673080725500,5.7837255859375,-0.2887049913406372,-0.5366365313529968,0.045863762497901917
1783696673090688300,5.793688232421875,-0.27203866839408875,-0.7468593120574951,0.24868692457675934
1783696673100651300,5.8036513671875,-0.29885900020599365,-0.9037520885467529,0.43873298168182373
1783696673110614300,5.8136142578125,-0.3102394938468933,-1.0771478414535522,0.5984246730804443
1783696673120577300,5.823577392578125,-0.3166722059249878,-1.1254771947860718,0.6960555911064148
1783696673130540300,5.833540283203125,-0.27780628204345703,-1.039981484413147,0.6722559928894043
1783696673140503300,5.84350341796875,-0.1932756006717682,-0.878963828086853,0.5051260590553284
1783696673150466300,5.85346630859375,0.005263587925583124,-0.9061267375946045,0.3367248475551605
1783696673160429300,5.86342919921875,0.25161460041999817,-0.9989562630653381,0.08329759538173676
1783696673170392300,5.873392333984375,0.4889821410179138,-1.0891700983047485,-0.11206204444169998
1783696673180355300,5.883355224609375,0.6050801873207092,-1.0493813753128052,-0.1509658247232437
1783696673190318300,5.893318359375,0.5671898126602173,-0.9075260162353516,0.007300242781639099
1783696673200281300,5.90328125,0.4038480222225189,-0.8019432425498962,0.3003333806991577
1783696673210244400,5.913244384765625,0.14805781841278076,-0.655280590057373,0.5850343704223633
1783696673220207000,5.92320703125,-0.11824458837509155,-0.37927940487861633,0.7218775749206543
1783696673230170400,5.93317041015625,-0.29631924629211426,0.041782867163419724,0.5921863913536072
1783696673240133400,5.94313330078125,-0.3705621063709259,0.4374304711818695,0.18699033558368683
1783696673250096400,5.953096435546875,-0.4077211916446686,0.6672236919403076,-0.38500872254371643
1783696673260059400,5.963059326171875,-0.42974942922592163,0.717930793762207,-0.9234404563903809
1783696673270022400,5.9730224609375,-0.38408738374710083,0.737578809261322,-1.1982451677322388
1783696673279985400,5.9829853515625,-0.26405972242355347,0.739649772644043,-1.156890630722046
1783696673289948200,5.9929482421875,-0.10775960236787796,0.6728425621986389,-0.8859198093414307
1783696673299911200,6.0029111328125,0.032436057925224304,0.5863597989082336,-0.49848225712776184
1783696673309874200,6.012874267578125,0.13681866228580475,0.46648135781288147,-0.11256148666143417
1783696673319837400,6.02283740234375,0.174578458070755,0.2967028021812439,0.18494345247745514
1783696673329800400,6.032800537109375,0.14147962629795074,0.09114060550928116,0.3723301291465759
1783696673339763500,6.042763427734375,0.050481341779232025,-0.15049384534358978,0.43922388553619385
1783696673349726500,6.0527265625,-0.07613625377416611,-0.4260263442993164,0.4011569321155548
1783696673359689200,6.062689208984375,-0.22974395751953125,-0.7078787088394165,0.28737515211105347
1783696673369652200,6.07265234375,-0.3742595911026001,-0.8916147351264954,0.1385374516248703
1783696673379615200,6.082615234375,-0.4278552532196045,-0.970753014087677,-0.0009853006340563297
1783696673389578200,6.092578125,-0.37574732303619385,-0.9255918860435486,-0.09575095772743225
1783696673399541500,6.10254150390625,-0.27071523666381836,-0.7174680829048157,-0.13701389729976654
1783696673409504500,6.11250439453125,-0.13594837486743927,-0.39615878462791443,-0.15054994821548462
1783696673419467300,6.12246728515625,0.04206054285168648,-0.030262049287557602,-0.15914654731750488
1783696673429430300,6.13243017578125,0.23501268029212952,0.362083375453949,-0.13775603473186493
1783696673439393300,6.142393310546875,0.4199541509151459,0.762277364730835,-0.08387007564306259
1783696673449356300,6.152356201171875,0.5716209411621094,1.1533184051513672,0.005256067030131817
1783696673459319300,6.1623193359375,0.6602939367294312,1.5328346490859985,0.11347368359565735
1783696673469282300,6.1722822265625,0.7004402875900269,1.842272162437439,0.23796714842319489
1783696673479245300,6.182245361328125,0.7086228132247925,2.0484750270843506,0.3672996759414673
1783696673489208300,6.192208251953125,0.6881462931632996,2.1423778533935547,0.4777827858924866
1783696673499171300,6.20217138671875,0.6324413418769836,2.1296699047088623,0.5394078493118286
1783696673509134300,6.21213427734375,0.5589132905006409,1.9799630641937256,0.5650985836982727
1783696673519097300,6.222097412109375,0.5004714727401733,1.7013661861419678,0.5891658663749695
1783696673529060400,6.232060302734375,0.4762527048587799,1.3167450428009033,0.6542330384254456
1783696673539023400,6.2420234375,0.45819759368896484,0.8526415824890137,0.7644588351249695
1783696673548986400,6.251986328125,0.4064369201660156,0.3580544888973236,0.8847141265869141
1783696673558949000,6.26194921875,0.31126150488853455,-0.11197446286678314,0.9859153032302856
1783696673568912400,6.271912353515625,0.19923323392868042,-0.4652390480041504,1.0560739040374756
1783696673578875400,6.28187548828125,0.08281312137842178,-0.7192273736000061,1.1169382333755493
1783696673588838400,6.29183837890625,-0.02520602196455002,-0.9748660326004028,1.1245253086090088
1783696673598801400,6.301801513671875,-0.0974503606557846,-1.330463171005249,1.0250043869018555
1783696673608764400,6.311764404296875,-0.10617034882307053,-1.7488136291503906,0.7978002429008484
1783696673618727200,6.32172705078125,-0.044602569192647934,-2.0231988430023193,0.5145659446716309
1783696673628690200,6.331690185546875,0.044512927532196045,-2.0074028968811035,0.251617431640625
1783696673638653200,6.341653076171875,0.07758492231369019,-1.7558331489562988,0.06508848816156387
1783696673648616200,6.3516162109375,-0.004770404659211636,-1.294427752494812,-0.028541862964630127
1783696673658579500,6.361579345703125,-0.17708157002925873,-0.7426137328147888,-0.050132494419813156
1783696673668542500,6.37154248046875,-0.3416247069835663,-0.20077283680438995,-0.05269472301006317
1783696673678505500,6.38150537109375,-0.40682464838027954,0.3335476219654083,-0.03684350103139877
1783696673688468200,6.39146826171875,-0.3776225745677948,0.742458164691925,-0.05054253339767456
1783696673698431200,6.40143115234375,-0.3722657263278961,0.8069174289703369,-0.20278458297252655
1783696673708394200,6.411394287109375,-0.37843865156173706,0.5702716112136841,-0.5197556614875793
1783696673718357200,6.421357177734375,-0.3513650596141815,0.2137560248374939,-0.9192031621932983
1783696673728320300,6.4313203125,-0.2745014429092407,-0.0756763145327568,-1.2425308227539062
1783696673738283500,6.441283447265625,-0.21716628968715668,-0.23108811676502228,-1.35627281665802
1783696673748246500,6.45124658203125,-0.20789769291877747,-0.2543944716453552,-1.2745113372802734
1783696673758209300,6.461209228515625,-0.2247469276189804,-0.1466594934463501,-1.0846309661865234
1783696673768172300,6.47117236328125,-0.2614908218383789,0.047763511538505554,-0.8898364901542664
1783696673778135300,6.48113525390625,-0.32589271664619446,0.28526607155799866,-0.754711925983429
1783696673788098300,6.491098388671875,-0.40363064408302307,0.5215369462966919,-0.6936211585998535
1783696673798061300,6.501061279296875,-0.46618005633354187,0.7632616758346558,-0.6973104476928711
1783696673808024300,6.5110244140625,-0.49106091260910034,0.9956179261207581,-0.7474662661552429
1783696673817987300,6.5209873046875,-0.47249722480773926,1.1680445671081543,-0.813142716884613
1783696673827950300,6.530950439453125,-0.3974861204624176,1.2900748252868652,-0.8559021353721619
1783696673837913300,6.540913330078125,-0.2879404127597809,1.3456238508224487,-0.8721063733100891
1783696673847876400,6.55087646484375,-0.16883985698223114,1.3430019617080688,-0.8636487126350403
1783696673857839400,6.56083935546875,-0.05830976739525795,1.309872031211853,-0.8402378559112549
1783696673867802400,6.57080224609375,0.043483175337314606,1.2792352437973022,-0.8023317456245422
1783696673877765400,6.580765380859375,0.14514830708503723,1.2894256114959717,-0.7446569204330444
1783696673887728400,6.590728271484375,0.2505314350128174,1.348739504814148,-0.670723021030426
1783696673897691400,6.60069140625,0.3510952889919281,1.44485342502594,-0.5894194841384888
1783696673907654400,6.610654296875,0.4511435925960541,1.550516128540039,-0.5058258175849915
1783696673917617700,6.62061767578125,0.5618718862533569,1.628566861152649,-0.4239019453525543
1783696673927580400,6.630580322265625,0.7113010883331299,1.6088142395019531,-0.33939504623413086
1783696673937543400,6.64054345703125,0.9014201164245605,1.477267861366272,-0.24835248291492462
1783696673947506400,6.65050634765625,1.0953190326690674,1.285602331161499,-0.12757758796215057
1783696673957469400,6.660469482421875,1.2666866779327393,1.0801728963851929,0.036367665976285934
1783696673967432400,6.670432373046875,1.3901623487472534,0.8842816948890686,0.24758537113666534
1783696673977395500,6.6803955078125,1.4386250972747803,0.6872654557228088,0.4953526258468628
1783696673987358200,6.690358154296875,1.3900835514068604,0.5054607391357422,0.7264407277107239
1783696673997321500,6.700321533203125,1.2414307594299316,0.2720600366592407,0.875468909740448
1783696674007284500,6.710284423828125,1.0470837354660034,-0.13813893496990204,0.9365024566650391
1783696674017247500,6.72024755859375,0.8527059555053711,-0.6291192173957825,0.9655815362930298
1783696674027210500,6.73021044921875,0.6465898156166077,-1.0569610595703125,0.9961588978767395
1783696674037173500,6.740173583984375,0.4166819453239441,-1.3862038850784302,1.030294418334961
1783696674047136500,6.750136474609375,0.2031337022781372,-1.6142714023590088,1.055459976196289
1783696674057099300,6.760099365234375,0.051900122314691544,-1.7100212574005127,1.0600305795669556
1783696674067062300,6.770062255859375,-0.017284272238612175,-1.660031795501709,1.0702142715454102
1783696674077025500,6.780025634765625,0.0183164793998003,-1.525748610496521,1.1000984907150269
1783696674086988500,6.789988525390625,0.14482222497463226,-1.4095351696014404,1.0713965892791748
1783696674096951600,6.79995166015625,0.2740745544433594,-1.1947951316833496,0.9398366212844849
1783696674106914600,6.80991455078125,0.3254373371601105,-0.6525723338127136,0.8198611736297607
1783696674116877600,6.819877685546875,0.31164559721946716,0.1293381154537201,0.7814047336578369
1783696674126840300,6.82984033203125,0.30366250872612,0.8770242929458618,0.7347123622894287
1783696674136803300,6.83980322265625,0.3233453333377838,1.3309240341186523,0.5794793963432312
1783696674146766300,6.849766357421875,0.30577537417411804,1.4455459117889404,0.27431178092956543
1783696674156729300,6.859729248046875,0.1614297479391098,1.26777184009552,-0.1983117014169693
1783696674166692600,6.869692626953125,-0.13579073548316956,0.8703221678733826,-0.8086386919021606
1783696674176655600,6.879655517578125,-0.47257405519485474,0.3789503276348114,-1.4145143032073975
1783696674186618600,6.88961865234375,-0.7281842231750488,-0.07662227004766464,-1.8154675960540771
1783696674196581400,6.899581298828125,-0.8718765377998352,-0.44398534297943115,-1.9362242221832275
1783696674206544400,6.90954443359375,-0.8767197728157043,-0.7064476013183594,-1.8005000352859497
1783696674216507400,6.91950732421875,-0.7529082298278809,-0.8134380578994751,-1.4642665386199951
1783696674226470400,6.929470458984375,-0.5554004311561584,-0.7453223466873169,-1.0381683111190796
1783696674236433400,6.939433349609375,-0.375184565782547,-0.5984266400337219,-0.624388575553894
1783696674246396400,6.949396484375,-0.2858184576034546,-0.47276434302330017,-0.31053319573402405
1783696674256359400,6.959359375,-0.30521199107170105,-0.4570138156414032,-0.14393821358680725
1783696674266322400,6.969322509765625,-0.3994210362434387,-0.5246887803077698,-0.14054320752620697
1783696674276285400,6.979285400390625,-0.5349040031433105,-0.6060778498649597,-0.27459821105003357
1783696674286248400,6.98924853515625,-0.6791229248046875,-0.6191350221633911,-0.4914809763431549
1783696674296211500,6.99921142578125,-0.7990384697914124,-0.48785001039505005,-0.7454560399055481
1783696674306174500,7.009174560546875,-0.8762778639793396,-0.20642472803592682,-1.0095592737197876
1783696674316137500,7.019137451171875,-0.8793759346008301,0.15583427250385284,-1.2551714181900024
1783696674326100200,7.029100341796875,-0.7873328328132629,0.5909247398376465,-1.4351807832717896
1783696674336063500,7.0390634765625,-0.5913720726966858,1.0668996572494507,-1.4990663528442383
1783696674346026500,7.049026611328125,-0.32765012979507446,1.4664993286132812,-1.4524765014648438
1783696674355989500,7.058989501953125,-0.05172915384173393,1.6862441301345825,-1.3216592073440552
1783696674365952500,7.068952392578125,0.16956861317157745,1.7135308980941772,-1.1310416460037231
1783696674375915500,7.07891552734375,0.30671316385269165,1.6077687740325928,-0.8969566226005554
1783696674385878500,7.08887841796875,0.3676212430000305,1.409658432006836,-0.6376579403877258
1783696674395841300,7.09884130859375,0.360757052898407,1.1607929468154907,-0.35367679595947266
1783696674405804300,7.10880419921875,0.28813639283180237,0.928182065486908,-0.06671984493732452
1783696674415767600,7.118767578125,0.15386104583740234,0.733177900314331,0.19234925508499146
1783696674425730600,7.12873046875,-0.024767547845840454,0.6104122996330261,0.40670016407966614
1783696674435693600,7.138693603515625,-0.18756155669689178,0.48274263739585876,0.5573461055755615
1783696674445656600,7.148656494140625,-0.27650418877601624,0.27631649374961853,0.6728695034980774
1783696674455619300,7.158619384765625,-0.29149478673934937,0.013182013295590878,0.7936257123947144
1783696674465582300,7.168582275390625,-0.26800116896629333,-0.3123771846294403,0.9955769181251526
1783696674475545300,7.17854541015625,-0.23266173899173737,-0.7014431953430176,1.2813432216644287
1783696674485508400,7.18850830078125,-0.20338614284992218,-1.0996369123458862,1.6123046875
1783696674495471400,7.198471435546875,-0.178231343626976,-1.3589918613433838,1.9145795106887817
1783696674505434600,7.2084345703125,-0.153367280960083,-1.5272663831710815,2.09812331199646
1783696674515397600,7.218397705078125,-0.08511164039373398,-1.7144322395324707,2.142181158065796
1783696674525360400,7.2283603515625,0.029959553852677345,-1.8999205827713013,2.068315267562866
1783696674535323400,7.238323486328125,0.1251615285873413,-2.0641252994537354,1.8824349641799927
1783696674545286400,7.248286376953125,0.13073311746120453,-2.1037344932556152,1.5938327312469482
1783696674555249400,7.25824951171875,0.014288153499364853,-1.8889610767364502,1.229238748550415
1783696674565212400,7.26821240234375,-0.18707425892353058,-1.4542365074157715,0.8560377955436707
1783696674575175400,7.278175537109375,-0.36061111092567444,-0.9120740294456482,0.5637962222099304
1783696674585138400,7.288138427734375,-0.408269464969635,-0.24030815064907074,0.4100409746170044
1783696674595101400,7.298101318359375,-0.3205154836177826,0.3902679979801178,0.3787006735801697
1783696674605064400,7.308064453125,-0.19581639766693115,0.7031702399253845,0.37000730633735657
1783696674615027500,7.31802734375,-0.1253017634153366,0.6767516732215881,0.3134169280529022
1783696674624990500,7.327990478515625,-0.07109551131725311,0.43717634677886963,0.1920452117919922
1783696674634953500,7.337953369140625,0.04429754242300987,0.18112750351428986,0.07988450676202774
1783696674644916500,7.34791650390625,0.2090979367494583,0.06558972597122192,0.05923062562942505
1783696674654879200,7.357879150390625,0.369186669588089,0.11546612530946732,0.1338188797235489
1783696674664842200,7.36784228515625,0.49140259623527527,0.2608233094215393,0.23735325038433075
1783696674674805500,7.377805419921875,0.5633570551872253,0.41078394651412964,0.2781541347503662
1783696674684768500,7.3877685546875,0.6055775284767151,0.494108647108078,0.19943909347057343
1783696674694731500,7.3977314453125,0.6403060555458069,0.4710279703140259,-0.004457513801753521
1783696674704694500,7.407694580078125,0.645909309387207,0.34650519490242004,-0.29611626267433167
1783696674714657500,7.417657470703125,0.6043504476547241,0.24005945026874542,-0.6409639716148376
1783696674724620300,7.427620361328125,0.5391250848770142,0.20326867699623108,-1.023206114768982
1783696674734583300,7.437583251953125,0.48065268993377686,0.22564570605754852,-1.4216793775558472
1783696674744546300,7.44754638671875,0.4613666236400604,0.342556357383728,-1.7906379699707031
1783696674754509600,7.457509521484375,0.48973146080970764,0.5581052899360657,-2.076122522354126
1783696674764472600,7.46747265625,0.5587446093559265,0.7939140796661377,-2.243603229522705
1783696674774435600,7.477435546875,0.6430568695068359,0.9294113516807556,-2.252876043319702
1783696674784398600,7.487398681640625,0.6726347208023071,0.8766157627105713,-2.096334457397461
1783696674794361300,7.497361328125,0.6679083108901978,0.6452823877334595,-1.8404555320739746
1783696674804324400,7.507324462890625,0.6699680089950562,0.33233487606048584,-1.5319544076919556
1783696674814287400,7.517287353515625,0.6636192798614502,0.0723070576786995,-1.173673391342163
1783696674824250400,7.52725048828125,0.6063844561576843,-0.12643107771873474,-0.786659836769104
1783696674834213400,7.53721337890625,0.45770493149757385,-0.24899615347385406,-0.37943533062934875
1783696674844176600,7.5471767578125,0.2086607664823532,-0.2783298194408417,0.017475547268986702
1783696674854139600,7.5571396484375,-0.06256833672523499,-0.23195600509643555,0.38101890683174133
1783696674864102400,7.567102294921875,-0.3143813908100128,-0.1608693152666092,0.7153640985488892
1783696674874065200,7.577065185546875,-0.518286406993866,-0.1373612880706787,1.0347214937210083
1783696674884028000,7.58702783203125,-0.6561270952224731,-0.13425897061824799,1.3436673879623413
1783696674893991000,7.596990966796875,-0.7446504235267639,-0.07525826245546341,1.6624369621276855
1783696674903954000,7.606953857421875,-0.8151525259017944,0.058814048767089844,1.9975308179855347
1783696674913917200,7.616917236328125,-0.8778711557388306,0.23740050196647644,2.3609707355499268
1783696674923880200,7.626880126953125,-0.8641462922096252,0.6276161670684814,2.668597936630249
1783696674933843200,7.63684326171875,-0.6177557706832886,0.5623891949653625,2.5997180938720703
1783696674943806200,7.64680615234375,-0.34517109394073486,-0.8785892128944397,1.9627349376678467
1783696674953769000,7.65676904296875,-0.19179999828338623,-1.2721407413482666,1.7787913084030151
1783696674963732000,7.66673193359375,-0.14231526851654053,-0.8469789624214172,1.8313716650009155
1783696674973695000,7.676695068359375,-0.07027892768383026,-0.38062989711761475,1.8618524074554443
1783696674983658000,7.686657958984375,0.011578653007745743,-0.3289397954940796,1.7789242267608643
1783696674993621000,7.69662109375,0.042843688279390335,-0.7283084988594055,1.5201022624969482
1783696675003584300,7.706584228515625,0.010267372243106365,-1.1442584991455078,1.1761006116867065
1783696675013547300,7.71654736328125,-0.0689210444688797,-1.3152188062667847,0.8651155233383179
1783696675023510000,7.726510009765625,-0.16757677495479584,-1.3497411012649536,0.6160417795181274
1783696675033473000,7.73647314453125,-0.3275260925292969,-1.4703971147537231,0.4642162024974823
1783696675043436000,7.74643603515625,-0.5243392586708069,-1.7057944536209106,0.5471166968345642
1783696675053399000,7.75639892578125,-0.690864086151123,-1.934611439704895,0.9270170331001282
1783696675063362000,7.766362060546875,-0.8373635411262512,-2.0992355346679688,1.4714115858078003
1783696675073325000,7.776324951171875,-0.8790587186813354,-2.3006553649902344,1.980525255203247
1783696675083288000,7.7862880859375,-0.7436164617538452,-2.6195731163024902,2.235645055770874
1783696675093251000,7.7962509765625,-0.5147256255149841,-3.0123255252838135,2.1458497047424316
1783696675103214000,7.806214111328125,-0.29297056794166565,-3.331840991973877,1.8286267518997192
1783696675113177000,7.816177001953125,-0.09144999086856842,-3.4320664405822754,1.4302144050598145
1783696675123140000,7.82614013671875,0.11540305614471436,-3.2287259101867676,1.0392416715621948
1783696675133103000,7.83610302734375,0.32789215445518494,-2.754706621170044,0.7107242345809937
1783696675143066000,7.846066162109375,0.4955700933933258,-2.09765362739563,0.4232458472251892
1783696675153028900,7.85602880859375,0.6502496004104614,-1.3905980587005615,0.10354281216859818
1783696675162992000,7.8659921875,0.7956669926643372,-0.716988205909729,-0.3564109206199646
1783696675172955100,7.875955078125,0.8761542439460754,-0.04969572648406029,-0.9551385045051575
1783696675182918100,7.885918212890625,0.8592075109481812,0.6424310803413391,-1.634488821029663
1783696675192881200,7.895881103515625,0.7708033919334412,1.3111672401428223,-2.314589500427246
1783696675202844200,7.90584423828125,0.644763171672821,1.9152805805206299,-2.8993444442749023
1783696675212807200,7.91580712890625,0.5063155889511108,2.3406014442443848,-3.3254544734954834
1783696675222770000,7.92577001953125,0.33834362030029297,2.4398860931396484,-3.5640759468078613
1783696675232733000,7.93573291015625,0.15852472186088562,2.1194937229156494,-3.5912246704101562
1783696675242696000,7.945696044921875,0.013630914501845837,1.5792276859283447,-3.3940818309783936
1783696675252659200,7.9556591796875,-0.11503995209932327,1.0360560417175293,-3.0418825149536133
1783696675262622200,7.965622314453125,-0.16792181134223938,0.5722593665122986,-2.578230619430542
1783696675272585200,7.975585205078125,-0.19532839953899384,0.22100332379341125,-2.115506410598755
1783696675282548200,7.98554833984375,-0.23963594436645508,0.05279194563627243,-1.6896018981933594
1783696675292511000,7.995510986328125,-0.28366202116012573,0.03111625276505947,-1.3011071681976318
1783696675302474000,8.005473876953126,-0.3148929178714752,0.09813390672206879,-0.9320372343063354
1783696675312437000,8.01543701171875,-0.3155049979686737,0.2054184526205063,-0.5703907012939453
1783696675322400000,8.02539990234375,-0.28652822971343994,0.3211013674736023,-0.21063651144504547
1783696675332363000,8.035363037109375,-0.22658653557300568,0.43557947874069214,0.14031819999217987
1783696675342326300,8.045326171875,-0.13732777535915375,0.5660637021064758,0.4856601357460022
1783696675352289000,8.0552890625,-0.04094518721103668,0.7467731237411499,0.8094862103462219
1783696675362252000,8.065251953125,0.02730230987071991,0.9516128301620483,1.1187140941619873
1783696675372215000,8.075215087890625,0.023691684007644653,1.0991898775100708,1.4069706201553345
1783696675382178000,8.085177978515626,-0.06031559780240059,1.1380059719085693,1.6689093112945557
1783696675392141000,8.09514111328125,-0.22184951603412628,1.0709221363067627,1.8952840566635132
1783696675402104000,8.10510400390625,-0.43114572763442993,0.90398108959198,2.0593552589416504
1783696675412067000,8.115067138671876,-0.6228129863739014,0.7366207838058472,2.145120620727539
1783696675422030000,8.125030029296875,-0.7047885656356812,0.5209545493125916,2.1356348991394043
1783696675431993000,8.1349931640625,-0.6859270334243774,0.300702303647995,2.035309314727783
1783696675441956000,8.1449560546875,-0.6220681667327881,0.09245534986257553,1.8976229429244995
1783696675451919000,8.154919189453125,-0.5406169891357422,-0.13127431273460388,1.7079174518585205
1783696675461882000,8.164882080078126,-0.4760901927947998,-0.38972559571266174,1.4085397720336914
1783696675471845000,8.17484521484375,-0.4518413841724396,-0.6003329157829285,1.0729889869689941
1783696675481808100,8.18480810546875,-0.4466090798377991,-0.7117114067077637,0.7114188075065613
1783696675491771000,8.19477099609375,-0.3829493820667267,-0.6216379404067993,0.3004220128059387
1783696675501734100,8.204734130859375,-0.28084829449653625,-0.3281190097332001,-0.07240214943885803
1783696675511697200,8.214697265625,-0.19417358934879303,0.06220179423689842,-0.26714444160461426
1783696675521660200,8.22466015625,-0.12850350141525269,0.3883674144744873,-0.25229278206825256
1783696675531623200,8.234623046875,-0.07667232304811478,0.5100996494293213,-0.09829964488744736
1783696675541586200,8.244586181640624,-0.07249754667282104,0.4561709463596344,0.07622422277927399
1783696675551549000,8.254548828125,-0.06085950508713722,0.23673787713050842,0.17961248755455017
1783696675561512000,8.264511962890625,-0.02931116707623005,-0.06091724708676338,0.17870035767555237
1783696675571475000,8.274474853515626,0.0055491384118795395,-0.3316444456577301,0.12311261892318726
1783696675581438000,8.28443798828125,0.033318981528282166,-0.5221648812294006,0.0529300719499588
1783696675591401200,8.294401123046875,0.06846477836370468,-0.637183666229248,-0.027398159727454185
1783696675601364200,8.3043642578125,0.13615009188652039,-0.7206915616989136,-0.11453785747289658
1783696675611327200,8.3143271484375,0.2125266194343567,-0.8046039938926697,-0.21967408061027527
1783696675621290000,8.3242900390625,0.2636217474937439,-0.8944052457809448,-0.3324621617794037
1783696675631253000,8.3342529296875,0.2705991864204407,-0.9543821811676025,-0.4192339777946472
1783696675641216000,8.344216064453125,0.23751342296600342,-0.9599287509918213,-0.45179057121276855
1783696675651179000,8.354178955078124,0.18496762216091156,-0.9180914163589478,-0.41719695925712585
1783696675661142000,8.36414208984375,0.13028573989868164,-0.8230234980583191,-0.33143943548202515
1783696675671105000,8.37410498046875,0.08199571073055267,-0.6838525533676147,-0.26360446214675903
1783696675681068300,8.384068359375,0.06152132526040077,-0.5443577766418457,-0.30038192868232727
1783696675691031000,8.394031005859375,0.08688562363386154,-0.4106902480125427,-0.44222745299339294
1783696675700994000,8.403994140625,0.1643439382314682,-0.24121946096420288,-0.6244921088218689
1783696675710957000,8.41395703125,0.2723101079463959,-0.06414208561182022,-0.7989591956138611
1783696675720920000,8.423920166015625,0.3797886073589325,0.0568583719432354,-0.9331441521644592
1783696675730883000,8.433883056640624,0.434524804353714,0.09038129448890686,-1.0155564546585083
1783696675740846000,8.44384619140625,0.44095686078071594,0.10243768990039825,-1.0233688354492188
1783696675750808800,8.453808837890625,0.43197572231292725,0.14419612288475037,-0.943002462387085
1783696675760772000,8.463772216796874,0.3993314802646637,0.19471468031406403,-0.7802862524986267
1783696675770735000,8.473735107421875,0.34536686539649963,0.24562302231788635,-0.5417424440383911
1783696675780698000,8.483697998046875,0.29237714409828186,0.2887001633644104,-0.26033979654312134
1783696675790661000,8.4936611328125,0.22664643824100494,0.34471559524536133,0.0423220694065094
1783696675800624000,8.5036240234375,0.17203059792518616,0.4318440854549408,0.3534197509288788
1783696675810587100,8.513587158203125,0.14564833045005798,0.5676804780960083,0.6539503335952759
1783696675820550000,8.5235498046875,0.13919790089130402,0.7699840068817139,0.908876359462738
1783696675830513000,8.533512939453125,0.1470216065645218,0.9913175106048584,1.0948500633239746
1783696675840476200,8.54347607421875,0.17027392983436584,1.1262497901916504,1.1640219688415527
1783696675850439200,8.553439208984376,0.17262177169322968,1.1310300827026367,1.0662174224853516
1783696675860402200,8.563402099609375,0.17578934133052826,1.0960813760757446,0.8941207528114319
1783696675870366000,8.573365966796874,0.19992472231388092,1.0861185789108276,0.7059953808784485
1783696675880329000,8.583328857421876,0.2477542906999588,1.0861984491348267,0.5352494716644287
1783696675890292000,8.5932919921875,0.31110531091690063,1.0968769788742065,0.41167575120925903
1783696675900255000,8.6032548828125,0.3734794855117798,1.0565636157989502,0.35324785113334656
1783696675910218000,8.613218017578125,0.40241801738739014,0.9312377572059631,0.336222767829895
1783696675920181000,8.623180908203125,0.3909222185611725,0.6608092188835144,0.34980887174606323
1783696675930143700,8.633143798828126,0.3828306496143341,0.26774629950523376,0.3819417655467987
1783696675940106800,8.643106689453125,0.38489460945129395,-0.19213420152664185,0.41066157817840576
1783696675950070000,8.653070068359375,0.3914952576160431,-0.6873663067817688,0.4367789328098297
1783696675960033000,8.663032958984376,0.3336963951587677,-1.1151010990142822,0.4651951193809509
1783696675969996000,8.67299609375,0.20329420268535614,-1.5693296194076538,0.5135025382041931
1783696675979959000,8.682958984375,0.02739800699055195,-2.033078908920288,0.6251473426818848
1783696675989922000,8.692922119140626,-0.18361793458461761,-2.187263011932373,0.8656713962554932
1783696675999884800,8.702884765625,-0.34800955653190613,-1.8680928945541382,1.1848360300064087
1783696676009847800,8.712847900390624,-0.3641527593135834,-1.3523845672607422,1.3972090482711792
1783696676019810800,8.722810791015625,-0.21846851706504822,-0.9212327003479004,1.2868785858154297
1783696676029773800,8.73277392578125,0.03915254771709442,-0.35193678736686707,0.9177242517471313
1783696676039737000,8.742737060546874,0.24217064678668976,0.2460898756980896,0.38469815254211426
1783696676049700000,8.7527001953125,0.3454287648200989,0.5354171395301819,-0.30799487233161926
1783696676059663000,8.7626630859375,0.36999377608299255,0.42652180790901184,-1.0518956184387207
1783696676069625900,8.7726259765625,0.3364853262901306,0.15766838192939758,-1.607573390007019
1783696676079588900,8.7825888671875,0.2604968249797821,0.012861127033829689,-1.8195918798446655
1783696676089552000,8.7925517578125,0.20654162764549255,-0.08568712323904037,-1.7500230073928833
1783696676099515000,8.802514892578126,0.17979124188423157,-0.2543770968914032,-1.5410540103912354
1783696676109478000,8.812477783203125,0.14848631620407104,-0.4421273171901703,-1.2998559474945068
1783696676119441200,8.822441162109374,0.13454094529151917,-0.5537449717521667,-1.071219801902771
1783696676129404000,8.83240380859375,0.13399064540863037,-0.5528828501701355,-0.9081462025642395
1783696676139367000,8.842366943359375,0.1270965337753296,-0.4503125548362732,-0.8519593477249146
1783696676149330000,8.852329833984374,0.09855764359235764,-0.26823723316192627,-0.9149566888809204
1783696676159293000,8.86229296875,0.0470542348921299,-0.03355920687317848,-1.0751808881759644
1783696676169256000,8.872255859375,-0.004463755991309881,0.21980445086956024,-1.2641443014144897
1783696676179219000,8.882218994140626,-0.04510945454239845,0.4456964433193207,-1.4235668182373047
1783696676189182000,8.892181884765625,-0.08180615305900574,0.6220769882202148,-1.4980533123016357
1783696676199145000,8.90214501953125,-0.11595027148723602,0.7572830319404602,-1.4727245569229126
1783696676209108000,8.91210791015625,-0.14498701691627502,0.8925578594207764,-1.3542536497116089
1783696676219071000,8.922071044921875,-0.15774355828762054,1.039085030555725,-1.1666454076766968
1783696676229034000,8.932033935546874,-0.16173326969146729,1.1625003814697266,-0.9442952275276184
1783696676238997000,8.9419970703125,-0.16590510308742523,1.2329449653625488,-0.7066807746887207
1783696676248960000,8.9519599609375,-0.1582854837179184,1.225461483001709,-0.4608021378517151
1783696676258923000,8.961923095703124,-0.1467989981174469,1.1333081722259521,-0.2178206741809845
1783696676268885800,8.9718857421875,-0.1422465592622757,0.9726830124855042,0.008474338799715042
1783696676278848800,8.981848876953125,-0.13689440488815308,0.7857445478439331,0.21076059341430664
1783696676288812000,8.99181201171875,-0.17630437016487122,0.6871185898780823,0.384208083152771
1783696676298775800,9.00177587890625,-0.28324201703071594,0.7319827079772949,0.512334406375885
1783696676308738000,9.011738037109374,-0.3834664225578308,0.8444231748580933,0.6143409013748169
1783696676318701000,9.021701171875,-0.45490387082099915,0.9713566303253174,0.6825377941131592
1783696676328665000,9.0316650390625,-0.5073387622833252,1.0680100917816162,0.7121487855911255
1783696676338628000,9.041628173828125,-0.5573912858963013,1.09784996509552,0.7110893726348877
1783696676348589800,9.05158984375,-0.6057261228561401,1.0226187705993652,0.6978616118431091
1783696676358552800,9.061552734375,-0.6495785117149353,0.8468745946884155,0.6659899950027466
1783696676368516900,9.071516845703124,-0.6727946400642395,0.5863540768623352,0.64549320936203
1783696676378479900,9.08147998046875,-0.6564339995384216,0.2989009916782379,0.6776024103164673
1783696676388443000,9.09144287109375,-0.5705845952033997,0.1206907331943512,0.7908406257629395
1783696676398406100,9.10140625,-0.4164169132709503,0.00933677889406681,0.9465934634208679
1783696676408369200,9.111369140625,-0.20861265063285828,-0.0835496336221695,1.0758875608444214
1783696676418332000,9.121331787109375,-0.02314665913581848,-0.2471177875995636,1.1503151655197144
1783696676428295000,9.131294921875,0.06984240561723709,-0.57921302318573,1.1397433280944824
1783696676438258000,9.1412578125,0.04162780940532684,-1.0435619354248047,1.0238659381866455
1783696676448221000,9.151220947265625,-0.09229856729507446,-1.5463818311691284,0.8205007314682007
1783696676458184000,9.161183837890626,-0.30548036098480225,-1.796953797340393,0.6215780377388
1783696676468147000,9.17114697265625,-0.4877070188522339,-1.622757911682129,0.4918898046016693
1783696676478110000,9.18110986328125,-0.5586591958999634,-1.0791337490081787,0.3941888213157654
1783696676488073000,9.191072998046875,-0.4530019462108612,-0.217075377702713,0.35359713435173035
1783696676498036000,9.201035888671875,-0.18956898152828217,0.5372679233551025,0.32855090498924255
1783696676507999000,9.2109990234375,0.09337107092142105,0.8873911499977112,0.29016822576522827
1783696676517962000,9.2209619140625,0.30149710178375244,0.7985648512840271,0.20758973062038422
1783696676527925000,9.230925048828125,0.36780932545661926,0.27935469150543213,-0.023127013817429543
1783696676537888000,9.240887939453126,0.2629156708717346,-0.4553256928920746,-0.41732358932495117
1783696676547850800,9.250850830078125,0.12011377513408661,-1.040969967842102,-0.7723788619041443
1783696676557813800,9.260813720703124,0.06876882910728455,-1.2435723543167114,-0.9056623578071594
1783696676567777000,9.270777099609376,0.08075947314500809,-1.242920994758606,-0.8369618058204651
1783696676577740000,9.280739990234375,0.15903376042842865,-1.190395712852478,-0.6470959782600403
1783696676587703000,9.290703125,0.3050747513771057,-1.0869933366775513,-0.4121045768260956
1783696676597666000,9.300666015625,0.497974157333374,-0.9415833353996277,-0.17084428668022156
1783696676607629000,9.310629150390625,0.6791484355926514,-0.7606883645057678,0.030441157519817352
1783696676619459800,9.3224599609375,0.8129951357841492,-0.6466183662414551,0.11890725046396255
1783696676629422800,9.3324228515625,0.800085723400116,-0.7207599878311157,-0.014578105881810188
1783696676639385900,9.3423857421875,0.6911395788192749,-0.8674410581588745,-0.27380460500717163
1783696676649348900,9.352348876953124,0.5708776712417603,-1.0235862731933594,-0.5375001430511475
1783696676659312000,9.36231201171875,0.4656868577003479,-1.1342967748641968,-0.7295124530792236
1783696676669275100,9.372275146484375,0.3652201294898987,-1.1230906248092651,-0.8292697668075562
1783696676679238000,9.38223779296875,0.2970072329044342,-0.9439328908920288,-0.8436343669891357
1783696676689201000,9.392200927734375,0.2866222560405731,-0.5517906546592712,-0.7882121205329895
1783696676699164000,9.402163818359375,0.27118363976478577,-0.007687416858971119,-0.6662294864654541
1783696676709127000,9.412126953125,0.20503170788288116,0.6138346791267395,-0.4711667597293854
1783696676719090000,9.42208984375,0.10001207888126373,1.2077082395553589,-0.25757431983947754
1783696676729053000,9.432052978515625,-0.018157700076699257,1.7338579893112183,-0.07446308434009552
1783696676739016000,9.442015869140626,-0.13757704198360443,2.131516933441162,0.06811830401420593
1783696676748979000,9.45197900390625,-0.22743359208106995,2.336452007293701,0.19126877188682556
1783696676758942000,9.46194189453125,-0.2326885163784027,2.2777554988861084,0.28879514336586
1783696676768905000,9.471905029296876,-0.16810472309589386,1.9664043188095093,0.36457937955856323
1783696676778868000,9.481867919921875,-0.08850716799497604,1.5393356084823608,0.4533301293849945
1783696676788831000,9.4918310546875,-0.022768639028072357,1.109379768371582,0.5811094045639038
1783696676798794000,9.5017939453125,-0.011388950981199741,0.7141589522361755,0.725077748298645
1783696676808757000,9.511757080078125,-0.06348064541816711,0.372069776058197,0.7979743480682373
1783696676818719700,9.5217197265625,-0.12358935177326202,0.24290913343429565,0.9017438292503357
1783696676828683000,9.53168310546875,-0.19482144713401794,0.24199886620044708,1.0346145629882812
1783696676838646000,9.54164599609375,-0.26732832193374634,0.2596479058265686,1.1707767248153687
