time,seconds_elapsed,z,y,x
1783696667351995400,0.054995361328125,-1.3483271643340586,-0.9300538214683532,-0.9090881903290748
1783696667361958400,0.06495849609375,-1.1539952633231878,-0.9043111851856112,-0.9377705333255231
1783696667371921700,0.074921630859375,-0.7725520602047443,-0.8829869498670101,-0.6544535771120339
1783696667381884700,0.084884765625,-0.290523161265254,-0.8595286251291632,-0.258385928574577
1783696667391847700,0.09484765625,0.18682605542540548,-0.8205600120484828,0.008562003574892878
1783696667401810700,0.104810791015625,0.5554027627080679,-0.9032704439610242,0.11156031349562108
1783696667411773700,0.114773681640625,0.8131663946658373,-0.9911197000667452,0.08894085073471068
1783696667421736400,0.124736328125,0.9736591544389724,-1.0781968027561903,0.04668587292712181
1783696667431699500,0.134699462890625,0.9436883790671825,-1.2264973126932979,0.013242051149904727
1783696667441662500,0.144662353515625,0.8377046235948801,-1.2524959695637226,-0.05594692814946174
1783696667451625500,0.15462548828125,0.683082801681757,-1.2260869783267379,-0.0882632072014734
1783696667461588700,0.164588623046875,0.6116466279774904,-1.2009037294924259,-0.04394256556835025
1783696667471551700,0.1745517578125,0.6387421401739121,-1.1969316109910606,0.009247282425314187
1783696667481514500,0.184514404296875,0.6564543224751949,-1.2712410020440816,0.017214534977450967
1783696667491477500,0.1944775390625,0.6785673700839281,-1.3750024052917957,-0.021005159432068467
1783696667501440500,0.2044404296875,0.895292304688692,-1.3733002775490284,0.015189678086340426
1783696667511403500,0.214403564453125,1.19489075281322,-1.35958008749336,0.15659133188780397
1783696667521366500,0.224366455078125,1.3581453785151243,-1.1740133844792842,0.4222955841191113
1783696667531329500,0.23432958984375,1.3738655102163553,-0.9206336666941642,0.48695722218714654
1783696667541292500,0.24429248046875,1.3412158710241318,-0.48080666366815566,0.8518535604566335
1783696667551255600,0.254255615234375,1.0651695634007454,-0.9464730413496494,0.9114289082363247
1783696667561218600,0.264218505859375,0.9864859027862548,-0.9218956494539976,0.5934954697370529
1783696667571181600,0.274181640625,1.1818389635384081,-0.8557260179758072,0.4089613246411085
1783696667581144600,0.28414453125,1.379033852764964,-0.9859136558562517,0.3796593519089743
1783696667591107600,0.294107666015625,1.4370827216297388,-0.9748130006492137,0.20560005827192215
1783696667601070600,0.304070556640625,1.5986784742087126,-0.8512713766545057,-0.045710525088943535
1783696667611033600,0.31403369140625,2.0546891347944736,-0.9093550245717167,-0.2012940316410735
1783696667620996400,0.323996337890625,2.4000170684367417,-1.0370733497291802,-0.25073855562657116
1783696667630959600,0.333959716796875,2.2538380806982516,-0.9570873743444681,-0.20946173866875467
1783696667640922600,0.343922607421875,1.7641724032700061,-0.5904711534798145,-0.1907430096734315
1783696667650885600,0.3538857421875,1.045826565027237,-0.07250263389199972,-0.14744232220519332
1783696667660848600,0.3638486328125,0.16862404378056525,0.37580519723147154,-0.23315454801591112
1783696667670811600,0.373811767578125,-0.919787278997898,0.608059124879539,-0.5819123647753149
1783696667680774700,0.383774658203125,-2.0891618977606297,1.0443366187304257,-0.8914382596090435
1783696667690737400,0.3937373046875,-3.124345488220453,1.6022969569668173,-1.033868123947084
1783696667700700400,0.403700439453125,-3.0929671841382977,1.2951023546248674,-0.6980449546225369
1783696667710663700,0.41366357421875,-2.884467057043314,0.7487564663365482,-0.1081172055707313
1783696667720626700,0.423626708984375,-2.3743565574795005,0.10034224245399236,0.38802802486885335
1783696667730589700,0.433589599609375,-2.353081129738688,-0.4585889866411686,1.5604703241065143
1783696667740552700,0.443552734375,-3.5188124235630034,-1.209448854997754,2.8017405507788062
1783696667750515500,0.453515380859375,-5.427994770792126,-1.7554270790174602,3.134497172139585
1783696667760478500,0.463478515625,-7.609943088799715,-2.0181781439989805,2.9130168597012758
1783696667770441500,0.47344140625,-9.58644832919538,-1.9915663236662744,2.440072599971294
1783696667780404500,0.483404541015625,-10.570397991502285,-1.7562652834072707,1.7632472512491046
1783696667790367500,0.493367431640625,-10.586012909263372,-1.7233388731002806,1.7598109931901096
1783696667800330800,0.503330810546875,-9.639739189878105,-1.5990575366541742,1.158102552511543
1783696667810293800,0.513293701171875,-7.956447080484033,-1.6616086853742598,1.1096007527362555
1783696667820256500,0.523256591796875,-6.132728847789764,-1.6287912883996962,0.9485618303224443
1783696667830219500,0.533219482421875,-4.372259975212812,-1.5827870775938033,0.8182128644004464
1783696667840182500,0.5431826171875,-2.8992250657141208,-1.5073346539855002,0.46052163520418105
1783696667850145500,0.5531455078125,-1.9538398196011781,-1.4797589570567011,-0.039241803998872636
1783696667860108800,0.56310888671875,-1.2318874812990426,-1.625055901263654,-0.36167861833199855
1783696667870072800,0.57307275390625,-0.6874807443797588,-1.8185738555431366,-0.6052405603274703
1783696667880035800,0.583035888671875,-0.23799802425801753,-1.8412337233796714,-0.5667589270461351
1783696667889998800,0.592998779296875,0.30672669256925583,-1.7797630633726715,-0.4530898047029972
1783696667899961600,0.602961669921875,1.0942892749011517,-1.4677400179609656,-0.8110213454611599
1783696667909924900,0.6129248046875,2.057441063851118,-0.8505050684571266,-1.4032676919199525
1783696667919888000,0.622887939453125,2.954492194905877,-0.1919163643017411,-1.993328511033207
1783696667929851000,0.632850830078125,3.494519693827629,0.3413999465435743,-2.3658912192121146
1783696667939814000,0.64281396484375,3.7345085996419187,0.6807169493332504,-2.3779954985037444
1783696667949777000,0.65277685546875,3.8536499428510664,0.9279133023083209,-2.2266918612279
1783696667959740000,0.662739990234375,3.9860201854676007,1.3039704284742475,-1.9390126912169157
1783696667969702700,0.67270263671875,4.112187481790781,1.7489567139595745,-1.4853686136320232
1783696667979665700,0.682665771484375,4.235691111862659,2.206626539929211,-0.9328218248769641
1783696667989628700,0.692628662109375,4.295398269328475,2.764891998592019,-0.3725768828347325
1783696667999592000,0.702592041015625,4.4389352181255815,3.284366831089556,-0.18807459418177602
1783696668009555000,0.712554931640625,4.863571666282415,3.711853992502391,-0.5709998525515199
1783696668019518000,0.72251806640625,5.367818826770782,3.963684142757952,-1.1290670121632516
1783696668029481000,0.73248095703125,5.805511155855656,3.9820550812289115,-1.5775801566004752
1783696668039443700,0.742443603515625,6.0706409326672555,3.812252641318738,-1.79660664614588
1783696668049406700,0.75240673828125,5.945531036442518,3.656485448762774,-1.6310001966208219
1783696668059369700,0.76236962890625,5.60542522136271,3.7662294335514304,-1.1766811423838137
1783696668069332700,0.772332763671875,5.311044800147414,3.9864346114873883,-0.8765595471680164
1783696668079296000,0.7822958984375,5.196660880598426,3.983410002969205,-0.8346751927711069
1783696668089259000,0.792259033203125,4.928607909816503,3.7557811047732828,-0.704020229639858
1783696668099221800,0.8022216796875,4.5668595872491595,3.5015029768437147,-0.47643078667148947
1783696668109184800,0.812184814453125,4.034296432858706,3.2382132749408483,-0.26858590861484405
1783696668119147800,0.822147705078125,3.2728082029819485,3.0095962424904106,-0.22978695301264523
1783696668129110800,0.83211083984375,2.192260453185439,2.6474256028577683,-0.15506109011322258
1783696668139073800,0.84207373046875,0.725765174588561,2.3873633385688064,-0.3460186923854053
1783696668149036800,0.852036865234375,-1.0750970831751823,2.490941201943159,-1.009687184023112
1783696668158999800,0.861999755859375,-3.1820816378742456,2.3787451478272676,-1.780428249283135
1783696668168962800,0.871962890625,-5.341777207541465,2.048636118365824,-2.5019366432100534
1783696668178925800,0.88192578125,-7.03439244107604,1.8259113588243723,-2.8425089067578315
1783696668188888800,0.891888916015625,-8.229061660093068,1.4873507273599504,-2.5096727904200553
1783696668198851800,0.901851806640625,-8.964313624951243,0.6973337376132607,-1.5991197882354258
1783696668208814800,0.91181494140625,-9.151926446840166,-0.40256519386321304,-0.20775193907618522
1783696668218777900,0.92177783203125,-8.649093244802952,-1.252149932605028,0.8742156143903732
1783696668228740900,0.931740966796875,-7.5613073604464525,-1.468979204367101,1.85201157637313
1783696668238703600,0.94170361328125,-6.153468853479623,-2.7041975836545227,3.52212023293674
1783696668248667000,0.9516669921875,-3.8001778803825377,-4.184274812880158,4.374433227598667
1783696668258630000,0.9616298828125,-1.0881716688036918,-5.492614834740758,5.054244460263848
1783696668268593000,0.971593017578125,0.864848066586256,-6.522901885330676,5.513362439215183
1783696668278556000,0.981555908203125,1.4509060797989368,-6.881691942614316,5.352245994585752
1783696668288519000,0.991518798828125,0.8912772238284349,-6.13090864662528,4.877178166830539
1783696668298483000,1.00148291015625,-0.17509587014317513,-4.673833230541646,4.151974717777967
1783696668308446000,1.011446044921875,-1.0319102678775787,-3.027749446557462,2.9634388869494197
1783696668318408700,1.02140869140625,-1.3867004418700932,-1.677552396698296,1.6024826887972652
1783696668328371700,1.031371826171875,-1.7603280028015373,-0.8587924198091029,0.415002942892909
1783696668338334700,1.041334716796875,-2.2019161702811716,-0.4092018553987145,-0.7444860955409706
1783696668348297700,1.051297607421875,-2.488577395421266,-0.16035422808527947,-1.9663148319013415
1783696668358261000,1.061260986328125,-2.259821831282973,-0.017799276062846182,-3.193007521036267
1783696668368224000,1.07122412109375,-1.614522524550557,-0.06980974154621362,-4.388834093394875
1783696668378187000,1.08118701171875,-0.6672095252454281,-0.052097559244930744,-5.463998396587371
1783696668388149800,1.091149658203125,0.4266945497304201,0.17329495820105076,-6.138897891813516
1783696668398112800,1.10111279296875,1.3858195673823355,0.5083733005076646,-6.170664318430424
1783696668408075800,1.11107568359375,2.174925287503004,1.0227163230746983,-5.727661023455858
1783696668418038800,1.121038818359375,2.82520413621366,1.5754162565648555,-5.001753810048103
1783696668428001800,1.131001708984375,3.277182764804363,1.9460840909078716,-4.172883650293946
1783696668437964800,1.14096484375,3.4899008018553257,2.2395655174568296,-3.2636230260074135
1783696668447927800,1.150927734375,3.6308448115497827,2.5716598755165934,-2.3999328972846268
1783696668457890800,1.160890869140625,3.8472634566843507,2.8314813167870043,-1.8219155671864746
1783696668467853800,1.170853759765625,4.347984781134128,3.013398849643767,-1.7726181600540876
1783696668477816800,1.18081689453125,5.10927661165595,3.029942572687566,-2.2007889198169113
1783696668487779800,1.19077978515625,6.014017128169536,2.831092025208473,-2.951444790033996
1783696668497742800,1.200742919921875,6.858534354388714,2.530680214874446,-3.7808001029565927
1783696668507705900,1.210705810546875,7.398770527625084,2.1013141078472137,-4.3184155723005535
1783696668517668600,1.220668701171875,7.53040953335762,1.6126213671043514,-4.394156165200472
1783696668527632000,1.2306318359375,7.302988432693481,1.146657760041952,-3.9845059815123673
1783696668537595000,1.240594970703125,6.702587421351671,0.8868816192179918,-3.300077902701497
1783696668547558000,1.250557861328125,5.862241927859187,1.1038286721408366,-2.9445953625306487
1783696668557521000,1.26052099609375,4.72456417760849,1.478108559501171,-2.8378780320867896
1783696668567484000,1.27048388671875,3.375097195589542,1.3477043562605977,-2.6505098326086998
1783696668577447000,1.280447021484375,2.3229437656283376,0.8874056430920958,-2.5627111376464367
1783696668587409700,1.29040966796875,1.591653690138459,0.2328314352750778,-2.3968954292848705
1783696668597372700,1.30037255859375,0.6490840859681367,-1.0087900890529156,-1.4709253699988125
1783696668607335700,1.310335693359375,-0.25728958470523355,-2.4190479321211575,-0.40815088504105806
1783696668617299000,1.320298828125,-1.044153078857064,-3.236098474743962,-0.09321224444359541
1783696668627262000,1.330261962890625,-2.149007586914301,-3.4764375091701742,-0.18537410305142402
1783696668637225000,1.340224853515625,-3.72887380862534,-3.827074070614576,0.08200023781657219
1783696668647187700,1.350187744140625,-5.452765639433264,-4.208763065187632,0.687405633316934
1783696668657150700,1.360150634765625,-6.572089986869693,-4.21043801266253,1.6698416761904953
1783696668667113700,1.37011376953125,-6.918064401721954,-3.91733301821053,3.201323806221783
1783696668677076700,1.38007666015625,-6.905676044791936,-3.3573739073723554,4.6539925117790695
1783696668687039700,1.390039794921875,-7.021988302055001,-3.3283015421450135,6.282361190852522
1783696668697003000,1.4000029296875,-6.884807444286346,-4.016969450482726,7.08812227769792
1783696668706966000,1.409966064453125,-6.285782397472858,-4.877898882320523,6.4780070970714085
1783696668716929800,1.4199296875,-5.444001902741194,-5.916760869032144,5.698206965434551
1783696668726892800,1.429892822265625,-4.848753451856971,-6.658308134642243,4.894974520283937
1783696668736855800,1.439855712890625,-5.143945773977041,-6.610622254359722,4.362016813617944
1783696668746818800,1.44981884765625,-6.4220426332652565,-5.819484736150502,4.2424589985623955
1783696668756781800,1.45978173828125,-8.107723099100589,-4.4259857201814645,4.2395740907758475
1783696668766744800,1.469744873046875,-9.15898805578947,-2.579413266122341,4.040581212216615
1783696668776707800,1.479707763671875,-8.999327070665359,-0.8208943585693835,3.7322862474173304
1783696668786670800,1.4896708984375,-7.746511952149867,0.29075989263057705,3.2676629490479825
1783696668796633600,1.499633544921875,-5.674502264720201,0.7666787842571735,2.704235869838297
1783696668806596900,1.509596923828125,-3.306899857676029,0.8770400241613387,2.4112664844647047
1783696668816559900,1.519559814453125,-0.8395815233826637,1.0699684881150722,2.0688542921386657
1783696668826523000,1.52952294921875,1.3707768965512512,1.4284206917464732,1.6025642296008764
1783696668836486000,1.53948583984375,3.2597090674340725,1.8591922816574573,1.1009807353638112
1783696668846449000,1.549448974609375,4.708154310077428,2.4718144766688344,0.6093367435999214
1783696668856412000,1.559411865234375,5.605774180930853,3.231343973693251,0.18512056668177246
1783696668866375200,1.569375244140625,5.902367602020502,3.942068231016397,-0.038122079253941774
1783696668876338200,1.579338134765625,5.872264724701643,4.640376658880711,-0.28816417704895136
1783696668886301200,1.58930126953125,5.571270438304543,5.30461739744842,-0.5160534797467291
1783696668896264200,1.59926416015625,5.165069226026534,5.920348079869151,-0.6361639602489769
1783696668906227200,1.609227294921875,4.867231942355632,6.55982321049273,-0.6279822612285614
1783696668916190200,1.619190185546875,4.843901920172572,7.228669397029281,-0.328826588435471
1783696668926153200,1.6291533203125,5.116876565265655,7.416887783595919,-0.053629152726382016
1783696668936116200,1.6391162109375,5.711256416621804,7.285676647886634,0.2295255255974829
1783696668946079200,1.649079345703125,6.070188512724638,6.828159089869261,0.6250926772668958
1783696668956042200,1.659042236328125,6.270384921854734,6.268688054808974,0.6882213336139917
1783696668966005000,1.6690048828125,6.537881427797675,5.976842705029249,0.2996361497864127
1783696668975968000,1.678968017578125,6.874203632685542,5.967822363227605,0.25514395097866654
1783696668985931300,1.68893115234375,7.04123602336049,5.869683476036787,0.7085511510677636
1783696668995894300,1.698894287109375,7.035040675851702,5.879031150096655,1.5262719941675662
1783696669005857300,1.708857177734375,6.661510730075836,5.593887928304076,1.9380248492233454
1783696669015820300,1.7188203125,6.120698802778125,4.829777533230185,1.9064561371356248
1783696669025783300,1.728783203125,5.453163114318251,4.279712624418735,1.6574059729874133
1783696669035746000,1.73874609375,4.52139021397233,3.7044162437170742,1.1080269275482744
1783696669045709000,1.748708984375,4.178181172180175,3.5851334462106226,0.5591516669128089
1783696669055672000,1.758672119140625,3.9231080944806336,3.7116836043715473,0.5439735331337898
1783696669065635300,1.76863525390625,2.845183678925037,3.3436943415880203,0.8915088406272232
1783696669075598300,1.778598388671875,1.126525072595477,2.306411733022332,1.1279195956937969
1783696669085561300,1.788561279296875,-1.2609440644353627,0.5413876813590526,1.4720881301678717
1783696669095524400,1.7985244140625,-3.759629596894979,-1.4945733720898626,1.429627437187731
1783696669105487000,1.808487060546875,-5.637732915249466,-2.9758307510107755,0.5415733035916462
1783696669115450000,1.8184501953125,-7.039008410438895,-3.8074347196429965,-1.0838592124320565
1783696669125413000,1.8284130859375,-8.396747546240688,-4.515558146817982,-2.213354386879504
1783696669135376100,1.838376220703125,-10.115914686614275,-5.4778819605112075,-1.8977321479320526
1783696669145339100,1.848339111328125,-11.568437553960084,-6.332323783895373,-0.8506762603055685
1783696669155302400,1.858302490234375,-11.564704797172546,-6.347225584951043,-0.9255838364474475
1783696669165265200,1.86826513671875,-11.575071877408027,-6.337357101887465,-0.9964628146603703
1783696669175228200,1.878228271484375,-9.926614934551715,-5.91201338224411,-0.8505795219328254
1783696669185191200,1.888191162109375,-8.799000897675752,-5.6956847534805535,-1.071017851037532
1783696669195154200,1.898154296875,-8.132739466935396,-5.762877298265695,-0.33607312549762425
1783696669205117200,1.9081171875,-7.409611070591211,-5.888363626587391,0.4713499762758612
1783696669215081200,1.918081298828125,-6.417207468193769,-5.44083847027421,0.5414095278646797
1783696669225044200,1.928044189453125,-5.149911988905072,-4.230193975751102,-0.0763229228325188
1783696669235007200,1.93800732421875,-3.621933190819621,-2.5838848585784433,-0.9727337101571262
1783696669244970000,1.947969970703125,-1.9400000948190688,-1.0134735706940292,-1.6876318921640514
1783696669254933000,1.95793310546875,-0.3561363279044628,0.24704379276186225,-2.090384717553854
1783696669264896300,1.967896240234375,1.2472276737719774,1.4529068982273339,-2.594752874073386
1783696669274859300,1.977859375,2.7764760534018276,2.563393274691701,-2.9962007543444633
1783696669284822300,1.987822265625,3.8032536345660684,3.4047947069779037,-2.97230637627691
1783696669294785300,1.997785400390625,4.435403536868095,4.029516797366738,-2.7671359781265257
1783696669304748300,2.007748291015625,5.0073921081960195,4.438047621636092,-2.78279415050745
1783696669314711000,2.0177109375,5.302632945632935,4.586791491426527,-2.505751233062148
1783696669324674000,2.027674072265625,5.324750084894895,4.453454157343507,-2.2561584864698347
1783696669334637000,2.037636962890625,5.428907793983817,4.218009032438695,-2.500578798860311
1783696669344600300,2.047600341796875,5.543444858267903,3.822322199912369,-2.670358442416787
1783696669354563300,2.057563232421875,5.487751612618565,3.2620605989962814,-2.6211118886888025
1783696669364526300,2.0675263671875,5.282672107622027,2.8059564149081706,-2.6803707178652285
1783696669374489300,2.0774892578125,5.082295665749907,2.6011212400615213,-2.829449518698454
1783696669384452000,2.0874521484375,4.97001660952568,2.6401687635973095,-3.093845720538497
1783696669394415000,2.0974150390625,4.945612820631266,2.6842522354736924,-3.2341526013731956
1783696669404378000,2.107378173828125,4.907730541482567,2.6126509343355893,-3.174096776600182
1783696669414341000,2.117341064453125,4.89853133598268,2.5712413578435775,-3.041861558540165
1783696669424304000,2.12730419921875,4.9034220306336875,2.6455156775832176,-2.8731428222134707
1783696669434267400,2.137267333984375,4.761875378870964,2.7607468616113064,-2.599887022091448
1783696669444230100,2.147230224609375,4.47411174544692,2.9939596974194047,-2.3075877910643814
1783696669454193200,2.157193115234375,4.141559122225642,3.3357603337183592,-1.8426205015629529
1783696669464156200,2.16715625,4.000701037248969,3.657720835776627,-1.3531769424527882
1783696669474119200,2.177119140625,4.090267910927534,3.8241006077617405,-1.1024942086666822
1783696669484082200,2.187082275390625,4.1920676587134595,3.6862934347882863,-0.9179510034814476
1783696669494045200,2.197045166015625,4.126348109090328,3.048671238555014,-0.47809565114378927
1783696669504008200,2.20700830078125,3.7327228852689265,2.099883198261261,-0.09235182822197675
1783696669513971200,2.21697119140625,2.833417837807536,1.1400789661735296,-0.04589870460480451
1783696669523934200,2.226934326171875,0.9867489376366138,-0.4691933827638626,-0.5194561277970672
1783696669533897200,2.236897216796875,-1.911338063958287,-4.271962156422436,-1.4855597522899509
1783696669543860200,2.246860107421875,-4.694542548832297,-7.823574149042368,-1.2132260354489088
1783696669553823200,2.2568232421875,-6.909470760899782,-8.80569834948778,-0.15633125617951155
1783696669563786200,2.2667861328125,-9.219634539932011,-7.978277804020046,1.0465475727781652
1783696669573749200,2.276749267578125,-11.048354526436329,-7.0284361630201335,2.177083050058782
1783696669583712000,2.2867119140625,-11.49658695423603,-6.928128115096688,3.326111338624358
1783696669593675300,2.29667529296875,-10.48444755475521,-7.638010660898685,4.106328234368562
1783696669603638300,2.30663818359375,-8.830219042760133,-7.800936785298585,4.220219401964545
1783696669613601300,2.316601318359375,-7.841428370162844,-6.921456966769695,3.9217467429995536
1783696669623564300,2.326564208984375,-8.159636241689324,-5.854526823437213,3.801177120552957
1783696669633527300,2.33652734375,-9.507019987693429,-5.0073985379368064,3.7055402793109415
1783696669643490300,2.346490234375,-10.313473732978105,-4.29681427360624,3.1225445762783286
1783696669653453000,2.356453125,-9.591216274249554,-3.639622576767206,2.3755936980590224
1783696669663416000,2.366416015625,-7.682616695344447,-2.920982139492035,1.4896657263040542
1783696669673379000,2.376379150390625,-5.090956526589394,-2.152319487941265,0.34047464839220043
1783696669683342300,2.38634228515625,-2.22002875007689,-1.3489742300659417,-0.8549255152478814
1783696669693305300,2.396305419921875,0.4286725718051195,-0.4676917460292577,-1.83444318645671
1783696669703268400,2.406268310546875,2.4759955617457625,0.3538230825260281,-2.4741946498036382
1783696669713231000,2.416231201171875,3.8905782822757957,1.1147276672959328,-2.7184341987997294
1783696669723194000,2.426194091796875,4.697902965176105,1.7923370060026644,-2.7117946146547793
1783696669733157000,2.4361572265625,5.090135857856273,2.3682246305957437,-2.482428809663653
1783696669743120100,2.4461201171875,5.30275277262032,2.851131189152598,-2.1757759129829704
1783696669753083100,2.456083251953125,5.422819413980841,3.249192934116721,-1.90075339544937
1783696669763046100,2.466046142578125,5.595667797458171,3.537069672526419,-1.7193498034641146
1783696669773009400,2.476009521484375,6.030124797883629,3.6315871543496847,-1.4841035621322691
1783696669782972200,2.48597216796875,6.394648430383205,3.417141855114698,-1.0454733676753938
1783696669792935200,2.49593505859375,6.527983134117722,3.184990511058271,-0.6321154155105352
1783696669802898200,2.505898193359375,6.616958471643924,3.0725086257383225,-0.41965456809103485
1783696669812861200,2.515861083984375,6.668306966087222,2.7978850443944334,-0.30714491798132654
1783696669822824200,2.52582421875,6.786094556599855,2.3727698728099464,-0.2995356120213866
1783696669832787200,2.535787109375,6.997169502618909,2.0260873096883296,-0.4030485934659838
1783696669842750200,2.545750244140625,7.338337393972277,1.7274249733701348,-0.6225760182708502
1783696669852713200,2.555713134765625,7.717569935303926,1.6261448655441402,-0.8453703359171748
1783696669862675500,2.565675537109375,8.010666161927581,1.7207631773933767,-0.9206004950769245
1783696669872638200,2.57563818359375,8.285217262557149,1.9545713487461207,-0.9053846596360207
1783696669882601200,2.585601318359375,8.53978765143156,2.2588734445169565,-0.9892999372936785
1783696669892564200,2.595564208984375,8.707161987411975,2.6562077519893643,-0.8472894674114883
1783696669902527200,2.60552734375,8.655712955203652,2.9215576012924314,-0.47144642238765955
1783696669912490200,2.615490234375,8.446519585147499,3.0384675321877,-0.17819003676623105
1783696669922454300,2.625454345703125,7.740573794272541,2.9765038279667495,0.7109414072051644
1783696669932417300,2.635417236328125,6.191010356366634,2.678672389514744,1.5517176933303474
1783696669942380500,2.645380615234375,3.933485696110129,1.9134031797945499,1.4798942738741636
1783696669952343300,2.65534326171875,0.7742348987251519,0.37374914148449895,1.868525342670083
1783696669962306300,2.665306396484375,-3.090354371291399,-1.7672867358982562,2.2483529272854326
1783696669972269300,2.675269287109375,-7.405989957484603,-3.35604119746387,1.830461423344165
1783696669982232300,2.685232421875,-11.03356144645214,-3.931156668640673,1.0856406890213488
1783696669992195300,2.6951953125,-14.025153830218315,-4.2754719181090595,1.310886491473019
1783696670002158300,2.705158447265625,-14.026874662661552,-4.308056675371527,1.1875368829190731
1783696670012121300,2.715121337890625,-14.054230287098884,-4.298424923673272,1.047207351861149
1783696670022084400,2.72508447265625,-14.110809667932987,-4.23671577873528,0.9039474664397538
1783696670032047400,2.73504736328125,-14.189681544595956,-4.1356753248840565,0.7678963433533906
1783696670042010400,2.74501025390625,-14.275920735156536,-4.021985525079072,0.6482406208813191
1783696670051973400,2.754973388671875,-14.354120411646365,-3.919920112094283,0.5525203391395509
1783696670061936400,2.764936279296875,-10.208331104505062,-6.459139899516106,4.117834547767043
1783696670071899400,2.7748994140625,-7.967407450437546,-6.781912887001037,3.3214234730690717
1783696670081862100,2.784862060546875,-6.493125755748152,-6.803176624304056,2.7631732119753956
1783696670091825200,2.7948251953125,-5.174249726825952,-6.440073379996418,2.380388384989649
1783696670101788200,2.8047880859375,-3.638555824318528,-5.730387233549356,2.134978477039933
1783696670111751400,2.81475146484375,-2.388017418563366,-4.754157351839542,1.7534905579969287
1783696670121714400,2.82471435546875,-1.49823364816308,-3.5326758214816447,1.0740081188946962
1783696670131677400,2.834677490234375,-0.5622878460466861,-2.2662366667613387,0.3528783490218222
1783696670141640400,2.844640380859375,0.6037666883826256,-1.054142265690863,-0.2587964821368456
1783696670151603200,2.854603271484375,1.8090052322089671,-0.016115268498659133,-0.6479851848155259
1783696670161566200,2.864566162109375,2.7829379428923127,0.8671572203114628,-0.6385683910422026
1783696670171529200,2.874529296875,3.472290326362848,1.7268252539113162,-0.6198334415644406
1783696670181492200,2.8844921875,3.784018772742152,2.484592709699273,-0.6484960569471121
1783696670191455500,2.89445556640625,3.8075615608930584,2.9256919246181843,-0.5813907520540058
1783696670201418500,2.90441845703125,3.7531636157512662,3.236367354813218,-0.5693539850406348
1783696670211381500,2.914381591796875,3.775643158584833,3.480623562683165,-0.5642405875496566
1783696670221344300,2.92434423828125,3.914761706417799,3.6348224830090996,-0.5733451005034148
1783696670231307300,2.934307373046875,4.134636044964194,3.710331020718813,-0.7146899460837245
1783696670241270300,2.944270263671875,4.420422240835428,3.6997938446134326,-0.9866387552604079
1783696670251233300,2.9542333984375,4.76988215971589,3.6697751384466883,-1.2453344073712824
1783696670261196300,2.9641962890625,5.260423450934887,3.670788699403405,-1.4557577576138079
1783696670271159300,2.9741591796875,5.900267414870858,3.6021816116452214,-1.6952078803762793
1783696670281122300,2.984122314453125,6.317042043611407,3.4348084447085854,-1.7981721418969332
1783696670291085300,2.994085205078125,6.389989790922403,3.223367880247533,-1.765374326405674
1783696670301048300,3.00404833984375,6.247119781601429,3.0992610235854983,-1.828902211203426
1783696670311011300,3.01401123046875,5.975827975028753,3.0598923052713274,-1.9555187125988303
1783696670320974300,3.023974365234375,5.577087600150704,3.053643474009633,-2.0868942450895904
1783696670330937300,3.033937255859375,5.125430458599329,3.0540134763658044,-2.253201828621328
1783696670340900400,3.043900390625,4.948590959659218,3.0283330916643143,-2.423814562001079
1783696670350863000,3.053863037109375,5.11606583340466,3.0276410177469253,-2.467276540978253
1783696670360826400,3.063826416015625,5.220928475892544,3.0171421278253194,-2.3158001774840056
1783696670370789400,3.073789306640625,5.042234873518347,2.8798195234984156,-2.1183806857213376
1783696670380752400,3.08375244140625,4.48869790468216,2.5080650629624723,-1.7923934123650191
1783696670390715400,3.09371533203125,3.503231408071518,1.871740505324304,-1.3081199493691325
1783696670400678400,3.103678466796875,2.5907611740887164,1.2080635381191969,-0.5707851868875324
1783696670410641400,3.113641357421875,1.9321505503624676,0.8546580964833498,-0.0890294058009982
1783696670420604200,3.123604248046875,1.3272031277626752,0.8121414355322718,0.0717363256946206
1783696670430567200,3.133567138671875,0.2068038445711136,0.6150351013720036,0.42618645407781003
1783696670440530200,3.1435302734375,-2.183487364143133,-0.0022872341543436047,1.022194929549098
1783696670450493400,3.153493408203125,-5.74462794034779,-0.7970525874719023,1.4859214252091943
1783696670460456400,3.16345654296875,-9.731932904928922,-1.4575401109859347,1.4046912949822843
1783696670470419500,3.17341943359375,-13.026717961919307,-1.9358903214126824,0.7067677747823298
1783696670480382200,3.18338232421875,-13.077493040388822,-1.8617358286604284,0.6354749550715089
1783696670490345200,3.19334521484375,-13.144686169695854,-1.7719000749126075,0.5319551054947078
1783696670500308200,3.20330810546875,-9.14893720189631,-3.719927701103687,1.4655156199097632
1783696670510271200,3.213271240234375,-6.516406678092479,-3.8897055910944935,2.156876566723734
1783696670520234200,3.223234130859375,-4.836161096787452,-4.462105081310868,2.920015340286493
1783696670530197500,3.233197509765625,-3.954225117278099,-5.07559646037221,3.2913468992352484
1783696670540160500,3.243160400390625,-3.54888315217793,-5.498810182249546,3.1493413977891205
1783696670550123300,3.253123291015625,-3.409997244057059,-5.614970463821291,2.492765494760871
1783696670560086300,3.263086181640625,-3.4035382771760223,-5.312546436882019,1.3527728916965425
1783696670570049300,3.27304931640625,-3.4043829113066195,-4.574422131457925,0.08584916832968592
1783696670580012300,3.28301220703125,-3.261588305309415,-3.622800036782026,-1.079380605713278
1783696670589975300,3.292975341796875,-2.960926027345657,-2.6862466241613028,-2.1146303932771087
1783696670599938300,3.302938232421875,-2.468118544760346,-1.757863366253674,-2.713198928494751
1783696670609901300,3.3129013671875,-1.7788754668831823,-0.7958926037818193,-2.766918828244507
1783696670619864300,3.3228642578125,-0.8965788373678922,0.17075374928563833,-2.455763213317096
1783696670629827300,3.332827392578125,0.1170826571136713,1.156044304807484,-2.083602656198293
1783696670639790300,3.342790283203125,1.057676577296853,1.9936738173395394,-1.763189821973443
1783696670649753300,3.35275341796875,2.1249673706352707,2.4974752798870203,-1.4603189280495046
1783696670659716400,3.36271630859375,3.061049950873852,2.701640008126199,-1.1339702740348876
1783696670669679400,3.372679443359375,3.51770007840693,2.7965307071760295,-0.8276593226596712
1783696670679642400,3.382642333984375,4.1535517578363415,2.990977758999169,-0.8450197689138352
1783696670689605000,3.392605224609375,4.786121346855163,3.167290895977616,-1.074142558929324
1783696670699568400,3.402568359375,5.279615058138966,3.1353859376728535,-1.2696429191976786
1783696670709531400,3.412531494140625,5.6346495622813695,2.893954139573872,-1.511433467606455
1783696670719494400,3.422494384765625,6.004010697939991,2.545138948337734,-1.8585802872389554
1783696670729457400,3.43245751953125,6.524886337146163,2.030564162841439,-2.260716588165611
1783696670739420400,3.44242041015625,6.979442707270383,1.3764558189705014,-2.6159669270157813
1783696670749383200,3.452383056640625,7.226465749505162,0.9113786393538117,-2.9455238755524156
1783696670759346200,3.46234619140625,7.4010174297690385,0.5911331245198845,-3.2806293981269
1783696670769309200,3.47230908203125,7.465000949379801,0.33421792608499523,-3.486668103544414
1783696670779272200,3.482272216796875,7.465293794846534,0.19808628510832785,-3.6506300007328387
1783696670789235500,3.4922353515625,7.184934300199151,0.13915961049571632,-3.732847096170485
1783696670799198500,3.502198486328125,6.390612891256809,0.310547712162137,-3.9246839654952286
1783696670809161500,3.512161376953125,5.3486394945263855,0.5501905810177325,-4.1453661132931705
1783696670819124200,3.522124267578125,4.338308605772257,0.7543672919556498,-4.141135928377508
1783696670829087200,3.532087158203125,3.4707898586720227,0.9584230068624019,-3.819458919435739
1783696670839050200,3.54205029296875,3.0263445481956004,1.2206776666291057,-3.172320706838369
1783696670849013200,3.55201318359375,2.800267263355851,1.591594068905711,-2.2671815463960168
1783696670858977300,3.561977294921875,2.296595856928825,1.8216871652580797,-1.0588917983055115
1783696670868940300,3.571940185546875,1.5566075111985205,1.723186459017545,0.23918927986919877
1783696670878903300,3.5819033203125,0.7937310418337583,1.331386112535745,1.2799939250811934
1783696670888866300,3.5918662109375,-0.2252688910663128,0.5517400024168193,2.1152494019582866
1783696670898829300,3.601829345703125,-2.0877479393094776,-0.5137868499889969,2.97312646048814
1783696670908792300,3.611792236328125,-4.9517982312679285,-1.5663725338876247,3.342906990602612
1783696670918755300,3.62175537109375,-8.38178320134282,-2.376237256659567,3.2299186170652505
1783696670928718300,3.63171826171875,-11.66661852672696,-2.9199653636649248,2.7749960439771413
1783696670938681300,3.641681396484375,-13.690197068464755,-2.9212103952899575,2.3625480462640525
1783696670948644400,3.651644287109375,-13.741714489734171,-2.8924802676290273,2.2664555702090263
1783696670958607400,3.661607421875,-13.792253421360254,-2.858284275777638,2.1798107214570046
1783696670968570000,3.671570068359375,-13.826701634407042,-2.8245184920370576,2.1301067793503403
1783696670978533400,3.681533447265625,-9.948871190023421,-3.5275422579854725,4.524802945025265
1783696670988496400,3.691496337890625,-8.617637199309467,-3.7887925630152224,4.967533560538292
1783696670998459400,3.70145947265625,-7.809308307802676,-3.7125977966070174,5.003489840060472
1783696671008422400,3.71142236328125,-7.168695697581768,-3.2008632029727098,4.611537810148299
1783696671018385400,3.721385498046875,-6.372693788206577,-2.4382614588961005,4.091662580156326
1783696671028348200,3.73134814453125,-5.3780824466317885,-1.8750918615788221,3.6478146510511635
1783696671038311200,3.741311279296875,-4.1081425903141495,-1.4749594478204846,3.140686966690421
1783696671048274200,3.751274169921875,-2.5128186872303484,-1.146769695983827,2.5874282302737233
1783696671058237400,3.761237548828125,-0.7434452081859111,-0.7436646961554885,2.0092703226611017
1783696671068200400,3.771200439453125,1.133330660957098,-0.21612550740689038,1.386833420599997
1783696671078163500,3.78116357421875,2.8301234724372626,0.3735989193588495,0.7125251692652702
1783696671088126500,3.79112646484375,4.281058193808794,0.8961553512588143,0.06244608091041445
1783696671098089200,3.801089111328125,5.395600567665696,1.332172148346901,-0.5491719054944812
1783696671108053200,3.81105322265625,6.220512345182895,1.6703464108422397,-1.0139245293319226
1783696671118015200,3.82101513671875,6.817291658896208,1.8742390441417693,-1.2258235050849615
1783696671127978200,3.830978271484375,7.117728311410546,1.9425757905259726,-1.170362168495357
1783696671137942300,3.8409423828125,7.169370235842466,1.8549483604773878,-0.9025816579792648
1783696671147905300,3.8509052734375,7.179240472471713,1.582377035488188,-0.593940875416994
1783696671157868300,3.860868408203125,7.2343719925850625,1.1703691827580331,-0.336811230513826
1783696671167831300,3.870831298828125,7.417372936764359,0.826322521097958,-0.17942264730110763
1783696671177794300,3.880794189453125,7.689087352663278,0.6204574186816811,-0.031140622868761417
1783696671187757300,3.89075732421875,7.885756172189116,0.5206394923627377,0.20996099342778324
1783696671197720300,3.90072021484375,7.8490721629142755,0.4957642865642905,0.7718274722572416
1783696671207683300,3.910683349609375,7.816642888474464,0.3551189675554633,0.8494521253380924
1783696671217646300,3.920646240234375,7.997955148914456,0.735422060728073,0.20720621482692658
1783696671227609300,3.930609375,8.100427681395411,1.184332826180756,-0.2688064925629645
1783696671237572400,3.940572265625,8.03489342521131,1.3331664200812579,-0.42490854309648274
1783696671247535000,3.95053515625,8.036903595989942,1.5934803210437296,-0.5946196514613926
1783696671257498400,3.960498291015625,8.00333742647469,2.0601430162861942,-0.7739180878609419
1783696671267461400,3.97046142578125,7.874267978969216,2.443174365378916,-0.8508775550313293
1783696671277424400,3.98042431640625,7.492954539710283,2.7080589352577924,-0.9330046340979635
1783696671287387400,3.990387451171875,6.7502692099809645,2.832929762029648,-1.1525984021373092
1783696671297350400,4.000350341796875,5.568338476505875,2.78711172144562,-1.0774234802961349
1783696671307313200,4.010313232421875,3.9250405238479376,2.4723513600245117,-0.17877119765505195
1783696671317276200,4.020276123046875,1.7717460533946752,2.1699112587332725,1.0959025553166866
1783696671327239200,4.0302392578125,-0.7285556820899247,2.0065905820578336,1.9695242954671381
1783696671337202400,4.040202392578125,-3.4095278729796408,1.5834914264708757,2.2640455864578484
1783696671347165400,4.05016552734375,-6.488992601466179,0.3780120596259832,2.1471933770991862
1783696671357128400,4.06012841796875,-9.14128990201354,-1.3667524633407593,1.5050896515376866
1783696671367091500,4.070091552734375,-10.351015235865116,-2.635569160847366,0.41695071595981714
1783696671377054200,4.08005419921875,-10.725380463421343,-3.3853117156118153,-0.49967751448526976
1783696671387017200,4.090017333984375,-10.769601882463693,-3.3549525254443284,-0.6598501023933291
1783696671396980200,4.099980224609375,-10.817000762498377,-3.3426419099256393,-0.8552949330821633
1783696671406943200,4.109943115234375,-10.864877781438826,-3.3485917582407594,-1.0664550731666385
1783696671416906200,4.11990625,-10.91160796843171,-3.374116660119593,-1.2853322173692285
1783696671426869500,4.129869384765625,-10.018596468156575,-7.285598906475305,2.786702848383784
1783696671436832500,4.13983251953125,-8.560532917818426,-6.43175154185295,1.4664666370242834
1783696671446795300,4.149795166015625,-7.326155373269319,-5.181521179133654,0.39343320838063955
1783696671456758300,4.15975830078125,-6.723590461891889,-4.057173742838204,0.4721183302998542
1783696671466721300,4.16972119140625,-6.6774547336608165,-3.021341333080828,1.4672364523530006
1783696671476684300,4.179684326171875,-6.6437599693298335,-2.083769098806381,2.66504718426615
1783696671486647300,4.189647216796875,-5.886736902168392,-1.1811024659574032,3.2198958202227947
1783696671496610300,4.1996103515625,-4.517161782622337,-0.37886429254114623,2.736120662137866
1783696671506573300,4.2095732421875,-2.7379139752954242,0.11433891136348247,1.6567697209104895
1783696671516536300,4.219536376953125,-0.8181880222201346,0.2989402764767408,0.5817614850625396
1783696671526499300,4.229499267578125,1.0313684160858392,0.42403555965423584,-0.2609440155595541
1783696671536462300,4.23946240234375,2.626701086997986,0.6255944893091917,-0.946333925139904
1783696671546425300,4.24942529296875,3.8294209260016676,0.8560445824056864,-1.4813734065160153
1783696671556388400,4.259388427734375,4.606040089514852,1.235270109474659,-1.8304133464187382
1783696671566351400,4.269351318359375,5.016686006242036,1.6558935225978493,-1.953675861211121
1783696671576314000,4.279314208984375,5.219280708685517,1.9412889655858276,-1.8127154849037528
1783696671586277000,4.289277099609375,5.193747623500228,2.1489682778172194,-1.495866919031739
1783696671596240400,4.299240478515625,5.198926487442851,2.334818766208738,-1.1184157081589101
1783696671606203400,4.309203369140625,5.429952919122576,2.5698110327795147,-0.950254021193087
1783696671616166400,4.31916650390625,5.865601759681105,2.775403455734253,-1.0620210362419484
1783696671626129400,4.32912939453125,6.3181298388481135,2.671703135024011,-1.1714788975656032
1783696671636092400,4.339092529296875,6.64816784889996,2.25530976068601,-1.208464227874577
1783696671646055200,4.34905517578125,6.853814924651384,1.7063770707748829,-1.2658487876117228
1783696671656018200,4.35901806640625,7.027206913486123,1.1975463818885386,-1.3675593958094716
1783696671665981200,4.368981201171875,7.208105332428216,0.8422241468459367,-1.4207535181194544
1783696671675944400,4.3789443359375,7.2671104791045185,0.7482301043748855,-1.4828770890772343
1783696671685907500,4.388907470703125,7.291695469784736,0.8273430963173508,-1.6970073310136795
1783696671695870500,4.398870361328125,7.264282562202215,0.8127636590838432,-1.8455507097959518
1783696671705833500,4.40883349609375,7.03299309567213,0.7087113100655377,-1.9872952222183347
1783696671715796200,4.418796142578125,6.5598997828602785,0.6481468051180244,-2.2322329826116563
1783696671725759200,4.42875927734375,5.778177158728242,0.6765028387695551,-2.4809394478887317
1783696671735722200,4.43872216796875,4.73165092099905,0.8736550578981638,-2.5949644709974526
1783696671745685200,4.448685302734375,3.544268936380744,1.1472177320122718,-2.5248686059862373
1783696671755648300,4.458648193359375,2.202034828224778,1.3374211549162864,-2.3046920696228743
1783696671765611500,4.468611572265625,0.8889566719263792,1.410375331968069,-1.789081803599
1783696671775574300,4.47857421875,-0.3891401873618364,1.2081029933467506,-0.7820330052554607
1783696671785537300,4.488537353515625,-1.998682000890374,0.7844856591045856,0.5211415966659784
1783696671795500300,4.498500244140625,-4.0918133868038655,0.3145581168472767,1.9817747052311896
1783696671805463300,4.50846337890625,-6.485432278636098,-0.14992811113893986,3.0604326957583425
1783696671815426300,4.51842626953125,-9.23950126991868,-0.39787411343753337,3.3547754153117535
1783696671825389300,4.528389404296875,-12.549800706905126,-0.37733430649489164,3.0748627876490353
1783696671835352300,4.538352294921875,-12.582641484755277,-0.33042730163037776,3.008133184200525
1783696671845315300,4.5483154296875,-12.634309712672232,-0.24729426039159297,2.9182129670396444
1783696671855278300,4.5582783203125,-12.698123136413097,-0.13635229799002407,2.824079223836958
1783696671865240600,4.568240478515625,-12.763217832136153,-0.016184826603531835,2.744134457245469
1783696671875203600,4.57820361328125,-12.816482973855733,0.09166121560931205,2.6949089463055134
1783696671885166600,4.58816650390625,-9.3149753208369,-3.352740110091865,4.059144750650227
1783696671895129600,4.598129638671875,-7.831339522346854,-3.323742563666403,3.5880206920847293
1783696671905092400,4.60809228515625,-6.765013190126418,-3.0528920711204406,3.009737696787715
1783696671915055600,4.6180556640625,-5.870076274746656,-2.8943074830561875,2.2105571573764085
1783696671925018600,4.6280185546875,-4.863866265314817,-2.8138699645116922,1.3166972235783934
1783696671934981600,4.637981689453125,-3.5266111146152017,-2.5300346104472875,0.38216274956464763
1783696671944944600,4.647944580078125,-1.9082249003738163,-2.104829130230844,-0.5221218398749828
1783696671954907600,4.65790771484375,-0.15767477974295616,-1.6544482922255992,-1.3370305481635034
1783696671964870700,4.66787060546875,1.5707371588379144,-1.1682324629902838,-2.0613817643009127
1783696671974833400,4.67783349609375,2.999939940872788,-0.6845087428316473,-2.587757900619507
1783696671984796400,4.68779638671875,3.9864585768848655,-0.21076894880980251,-2.771898662483692
1783696671994759700,4.697759765625,4.464427386778593,0.31588264344930644,-2.6899007627546787
1783696672004722700,4.70772265625,4.608706678375602,0.8067462984904646,-2.4785920079797505
1783696672014685700,4.717685791015625,4.682929267928004,1.1792951242744922,-2.2880337802886963
1783696672024648700,4.727648681640625,4.967549927151203,1.564361778587103,-2.2850592945225534
1783696672034611500,4.737611572265625,5.686324804461002,1.8591922816574573,-2.5476398252427574
1783696672044574500,4.747574462890625,6.75917206288278,1.8218419174283742,-2.9482229053780435
1783696672054537500,4.757537353515625,7.740561519312858,1.3729457650229333,-3.191178552043438
1783696672064500500,4.76750048828125,8.407525545364617,0.8518743109837174,-3.342336497238278
1783696672074463500,4.77746337890625,8.697142697700858,0.4846119011700153,-3.4025539423137903
1783696672084426800,4.7874267578125,8.669383168637752,0.27446517591178415,-3.3490275193095207
1783696672094389800,4.7973896484375,8.416582127523421,0.147878192871809,-3.1741923459291455
1783696672104352500,4.8073525390625,8.054017227876185,0.11337328120172023,-2.94105812831521
1783696672114315500,4.8173154296875,7.59131963687241,0.18433190052211285,-2.5448078166872263
1783696672124278500,4.827278564453125,7.104305350735783,0.4840326399773359,-2.135832025129348
1783696672134241500,4.837241455078125,6.876312003141641,0.9078539723590016,-2.057710820703208
1783696672144204500,4.84720458984375,6.90786975544393,1.1471399906009434,-1.8922811890497802
1783696672154167600,4.85716748046875,6.975729824227094,1.2619108636409044,-1.5973431339517234
1783696672164130600,4.867130615234375,6.874147518584132,1.472416485339403,-1.306774087718129
1783696672174093600,4.877093505859375,6.485194962748885,1.9294222944423556,-1.0926152042090893
1783696672184056600,4.887056640625,5.879262620764971,2.5410636617228386,-0.9668376378558575
1783696672194019600,4.89701953125,4.936553315863013,3.0253023456662893,-0.6207528944969177
1783696672203982600,4.906982666015625,3.585160334217548,3.190544053532183,0.0020833821453154085
1783696672213945600,4.916945556640625,2.1493384263038635,3.074118691283464,0.7551281933255494
1783696672223908600,4.92690869140625,0.8877239152610301,2.667930046226084,1.5787319569841027
1783696672233871400,4.936871337890625,-0.2699760477989912,2.1358599360495805,2.366630493272096
1783696672243834400,4.94683447265625,-1.9516069459825753,1.6121724542930722,2.7477719369649884
1783696672253797600,4.956797607421875,-4.781047696852684,1.1651073167070747,2.4436318998880684
1783696672263760600,4.9667607421875,-7.331797178548574,0.8336112168014049,1.3555826884202657
1783696672273723600,4.9767236328125,-10.90508119701147,0.29199849451482296,0.9559626080982386
1783696672283686700,4.986686767578125,-14.059215089774131,-0.7869052874669432,1.1626604350116103
1783696672293649700,4.996649658203125,-14.07036893647313,-0.8112775121793151,1.0149301992431283
1783696672303612400,5.0066123046875,-14.103887759715318,-0.7856149553954601,0.8561389826908707
1783696672313575400,5.016575439453125,-14.150662370371817,-0.716658323547244,0.7301531804144382
1783696672323537700,5.02653759765625,-14.20002407491207,-0.6192746386379003,0.6622919425874948
1783696672333500700,5.036500732421875,-9.259256940746306,-4.238354485853016,4.682580600620806
1783696672343464700,5.046464599609375,-6.879592924508452,-4.351931180672347,4.045214132714271
1783696672353426400,5.056426513671875,-5.4115352189004415,-4.347644297133386,3.55964361564517
1783696672363389400,5.066389404296875,-4.660902729558944,-4.150173513574898,3.0657313866883515
1783696672373352400,5.0763525390625,-4.3823236885875465,-3.753004041275382,2.1552252923853694
1783696672383315500,5.0863154296875,-4.18406613856554,-3.380619466142356,1.1951377133116126
1783696672393278700,5.09627880859375,-3.5624236017525193,-2.986631838749349,0.3959126771714538
1783696672403241700,5.10624169921875,-2.4076994396328923,-2.37778887001574,-0.09968779713325202
1783696672413204700,5.116204833984375,-1.126118829882145,-1.7729428619638083,-0.0820962455369532
1783696672423167500,5.12616748046875,-0.08478548462092876,-1.1660723623469471,0.0963649363208562
1783696672433130500,5.136130615234375,0.7235247021853923,-0.5308312160313129,0.17180018959864973
1783696672443093500,5.146093505859375,1.5115379508942364,0.07276946813464165,0.13159801613502203
1783696672453056500,5.156056396484375,2.294880285182595,0.5784285412475466,-0.006979118297621607
1783696672463019500,5.16601953125,2.9803999586224554,1.0080255344212055,-0.21499745322503147
1783696672472982500,5.175982421875,3.54569341622591,1.4776619847774504,-0.4717412406157702
1783696672482945800,5.18594580078125,4.009766971758007,1.9185107320666313,-0.8971065145038067
1783696672492908500,5.195908447265625,4.724508648028969,2.231270859581232,-1.4922355767920612
1783696672502871600,5.20587158203125,5.060119489777088,2.2655615439787504,-1.6235869977548718
1783696672512834600,5.21583447265625,5.096776611045002,2.3763535765156147,-1.6241805797338484
1783696672522797600,5.225797607421875,5.106179814684391,2.57953572345823,-1.723657145269215
1783696672532760600,5.235760498046875,5.240922631651163,2.6691899831593036,-1.6012901180118322
1783696672542723600,5.2457236328125,5.3889352645576,2.52477040630877,-1.1453202278278767
1783696672552686600,5.2556865234375,5.579532655215263,2.576226160518825,-0.7356626645509153
1783696672562649600,5.265649658203125,5.795455625787377,2.874867454048991,-0.3568970831438899
1783696672572612600,5.275612548828125,5.7879100327134125,3.1671327828064557,-0.00014876082092523573
1783696672582575600,5.28557568359375,5.734099532070756,3.3721465290904042,0.20384967094063758
1783696672592538600,5.29553857421875,5.568083624961972,3.47788186275959,0.33383316455110906
1783696672602501600,5.305501708984375,5.272022703313827,3.601471417549252,0.30276052888464183
1783696672621805600,5.3248056640625,4.553440718227624,3.780197168627381,-0.5218721394302324
1783696672631768600,5.3347685546875,4.54330452413857,3.803563431167602,-0.911320187164843
1783696672641731600,5.344731689453125,4.411648567271232,3.793019240799546,-1.119251866722107
1783696672651694600,5.354694580078125,3.897677885147929,3.9272260511934753,-1.181515138411522
1783696672661657600,5.36465771484375,3.260487066069245,4.219444325938821,-1.2556091331481933
1783696672671620600,5.37462060546875,2.6946955958157774,4.260450290066004,-1.2244049435239284
1783696672681583600,5.38458349609375,2.229488067817688,3.6680531369596716,-0.759046389682591
1783696672691546600,5.394546630859375,1.7398083618640898,2.6889053219765424,-0.046935061915218824
1783696672701509400,5.40450927734375,0.6312462314605712,1.9374229378074406,0.06062200728841126
1783696672711472400,5.414472412109375,-0.9113730863958597,0.7645639840602875,-0.35944340662583707
1783696672721435600,5.424435546875,-2.3991057988107203,-0.9180261145442724,-0.771367380464822
1783696672731398700,5.434398681640625,-4.447263486009836,-2.6028999401718376,-0.9627702422864735
1783696672741361700,5.444361572265625,-7.208727263718843,-4.487210296472907,-0.7606897729754447
1783696672751324700,5.45432470703125,-9.65045639872551,-6.244831378403306,-0.40210765935406084
1783696672761287700,5.46428759765625,-9.944785382014512,-7.066720593228935,0.008897153813391923
1783696672771250400,5.47425048828125,-7.894744949808716,-6.966023838248849,0.5550866824962198
1783696672781213400,5.48421337890625,-4.723349541121721,-6.478441981357336,1.1504491151489318
1783696672791176400,5.494176513671875,-2.1317162603735924,-5.609363729855418,1.539698461973667
1783696672801139700,5.5041396484375,-1.308216103219986,-5.427064211943745,1.6141571983695029
1783696672811102700,5.514102783203125,-2.2106267154812813,-5.607654003328085,1.7411127224609255
1783696672821065700,5.524065673828125,-3.6316648957610127,-4.88638906276822,1.5109510909169912
1783696672831028500,5.534028564453125,-4.5909120784878725,-3.942751537105441,0.5460055504180491
1783696672840991500,5.543991455078125,-4.922131991800666,-3.223724730861187,-0.6944052098806947
1783696672850954500,5.55395458984375,-4.582684348368645,-2.6015666457414626,-1.8912804875746367
1783696672860917500,5.56391748046875,-3.565380113470554,-2.054438374903798,-2.510661216935515
1783696672870880300,5.57388037109375,-1.9898785167098043,-1.566116513299942,-2.5523759138539432
1783696672880843500,5.583843505859375,-0.2609089442461729,-1.0491150851786135,-2.429418811748922
1783696672890806500,5.593806640625,1.3857079237014054,-0.4185881079033017,-2.195884927292913
1783696672900769300,5.603769287109375,2.5922026050686835,0.1389142574325204,-1.7687237829640508
1783696672910732300,5.613732177734375,3.274098242792487,0.6128165485396981,-1.0844219608813523
1783696672921318400,5.624318359375,3.640121758460998,1.1424483256533742,-0.33258254343550653
1783696672931281400,5.634281494140625,3.8571091433942315,1.6198671004489062,0.17707436714190988
1783696672941243400,5.644243408203125,3.9161008460670708,1.5678350076556204,0.38189273698423054
1783696672951206100,5.6542060546875,3.9609851129323244,1.2963406642481683,0.3567067482035607
1783696672961169200,5.664169189453125,4.096722201633453,1.2620505643725395,0.1405547181159258
1783696672971132200,5.674132080078125,4.315011901336908,1.381286892388761,-0.1511227277509868
1783696672981095400,5.684095458984375,4.651831534352898,1.335676064814627,-0.19408420986011624
1783696672991058400,5.694058349609375,5.095228212559223,1.24609457808882,-0.05895728894658386
1783696673001021400,5.704021484375,5.474346187600493,1.22677320702523,0.054775619347766036
1783696673010984400,5.713984375,5.736791839894652,1.2297542686626315,0.14938735532574354
1783696673020947200,5.723947265625,5.764816157373786,1.1858654425755142,0.2549575615610927
1783696673030910200,5.73391015625,5.532570997554063,1.1702005481928586,0.30600064331702886
1783696673040873200,5.743873291015625,5.234902056187391,1.2101271926507353,0.28227212333567436
1783696673050836200,5.753836181640625,4.852631754595041,1.0838090896800159,0.29738917457722125
1783696673060799500,5.763799560546875,4.48360554997921,1.0013163921713828,0.2657992005057633
1783696673070762500,5.773762451171875,4.0368396876007315,1.0633674824148416,0.12495265983641148
1783696673080725500,5.7837255859375,3.499748242130875,1.283545772343874,-0.19797288786172865
1783696673090688300,5.793688232421875,2.806691743445396,1.5185314630433917,-0.682598671426624
1783696673100651300,5.8036513671875,2.0358798049062488,1.5599270110100507,-1.1380282441888003
1783696673110614300,5.8136142578125,1.590695074239373,1.332917998278141,-1.1194528691869228
1783696673120577300,5.823577392578125,0.9097954618155956,1.2120166596591473,-0.7121911150053143
1783696673130540300,5.833540283203125,0.14305880989134312,0.982854268285632,-0.08454056994915007
1783696673140503300,5.84350341796875,-0.6076210257232189,0.8182932361602783,0.7201675737772136
1783696673150466300,5.85346630859375,-1.1906412786751985,0.39244653543084856,1.6189878333963452
1783696673160429300,5.86342919921875,-2.190153251773119,-0.06749620390683413,2.068787802773714
1783696673170392300,5.873392333984375,-3.7350522049993273,-0.7537380541414022,1.8633935327395796
1783696673180355300,5.883355224609375,-5.954457270219922,-1.5434195283234118,1.2210916542574763
1783696673190318300,5.893318359375,-8.626015736076235,-2.222375313203037,0.4295409521374851
1783696673200281300,5.90328125,-10.973640938496589,-2.542051795977354,-0.1635579194974154
1783696673210244400,5.913244384765625,-12.210209855610131,-2.5086522152006623,-0.669033525802195
1783696673220207000,5.92320703125,-12.229748084294796,-2.4465359507665037,-0.6194372818537056
1783696673230170400,5.93317041015625,-12.250035670042037,-2.383708615453541,-0.6096381011666729
1783696673240133400,5.94313330078125,-12.26233985581994,-2.3461431471690535,-0.6429228599246591
1783696673250096400,5.953096435546875,-8.808165616384148,-2.3519302061378955,-0.22330559163670985
1783696673260059400,5.963059326171875,-8.314317684835196,-2.270120230196416,0.13937609365745446
1783696673270022400,5.9730224609375,-8.87847424736321,-1.966238405664265,0.6913145503889769
1783696673279985400,5.9829853515625,-9.704116092720627,-1.5182912245467304,1.1995751112371682
1783696673289948200,5.9929482421875,-9.769267487066983,-1.103067040118575,1.4880036383107305
1783696673299911200,6.0029111328125,-8.90594326904714,-0.9465937451198696,1.3814471975170075
1783696673309874200,6.012874267578125,-7.096911148831248,-0.9574459785237908,1.0274267657879739
1783696673319837400,6.02283740234375,-4.683777993711829,-0.9001368221104145,0.39762097892668097
1783696673329800400,6.032800537109375,-2.084396290794015,-0.8511559335812926,-0.36424061430711296
1783696673339763500,6.042763427734375,0.4492588482379913,-0.8573565417870879,-0.906788388954103
1783696673349726500,6.0527265625,2.5930139214515684,-0.8970391483560204,-1.1366975070416927
1783696673359689200,6.062689208984375,4.235564270612597,-0.8940998800337314,-1.2793395528256892
1783696673369652200,6.07265234375,5.269587585121393,-0.58306613792032,-1.1780801955267786
1783696673379615200,6.082615234375,5.88926028316617,0.03940232832282781,-0.7695480560831726
1783696673389578200,6.092578125,6.166477388134599,0.6209782276853919,-0.3177903037015348
1783696673399541500,6.10254150390625,6.048388768848777,1.0164221913665532,0.06790120451115071
1783696673409504500,6.11250439453125,5.827890160924196,1.3041603980883956,0.39675826115012164
1783696673419467300,6.12246728515625,5.8165048435568805,1.771878739863634,0.5137185339931398
1783696673429430300,6.13243017578125,5.748031026789546,2.153391793347895,0.4227953138021752
1783696673439393300,6.142393310546875,5.593708480083942,2.21075881742835,0.15608946504658086
1783696673449356300,6.152356201171875,5.507552876153588,2.0281784367486835,-0.18057097708601502
1783696673459319300,6.1623193359375,5.555334618026018,1.7326511835858225,-0.5559705161260441
1783696673469282300,6.1722822265625,5.600750215288996,1.3563444665729998,-0.9399592755414545
1783696673479245300,6.182245361328125,5.792901265129447,1.095340537519753,-1.2982292544737457
1783696673489208300,6.192208251953125,6.188157305023074,0.9653229955092072,-1.5725808870084583
1783696673499171300,6.20217138671875,6.593546616396307,0.8161784359633922,-1.5823042625129222
1783696673509134300,6.21213427734375,6.784098414346575,0.49947629282474515,-1.3271882224544882
1783696673519097300,6.222097412109375,6.803577021798491,0.30538404578864575,-1.0668649691417813
1783696673529060400,6.232060302734375,6.736088708937168,0.2676820916429162,-0.8801881129287182
1783696673539023400,6.2420234375,6.600384353461862,0.38863282236158847,-0.7684080922678113
1783696673548986400,6.251986328125,6.473352549263835,0.6260013165444135,-0.9405347373418509
1783696673558949000,6.26194921875,6.2404585701465605,0.7593491720214486,-1.152971911624819
1783696673568912400,6.271912353515625,5.628959241685271,0.5756193290457129,-1.255343614079803
1783696673578875400,6.28187548828125,4.810735563629866,0.23210253647863863,-1.255830813074857
1783696673588838400,6.29183837890625,4.115931929016113,0.10805179391801356,-1.0538232628695665
1783696673598801400,6.301801513671875,3.411420554858446,0.09544979423731564,-0.4791279168009758
1783696673608764400,6.311764404296875,2.456198389863968,-0.18151567405760288,0.286876183065027
1783696673618727200,6.32172705078125,0.6675105540186166,-0.9189403067797421,1.008625984532386
1783696673628690200,6.331690185546875,-2.051812702575326,-1.9524179701045155,1.2763532304912806
1783696673638653200,6.341653076171875,-5.076397839882969,-2.6944866292402145,0.8445729749944061
1783696673648616200,6.3516162109375,-7.828805035433173,-2.948766510735452,0.0675723013503477
1783696673658579500,6.361579345703125,-10.217388855707645,-3.023698709861934,-0.5086935089053586
1783696673668542500,6.37154248046875,-12.098780109691619,-3.046283466635644,-0.45878538599610325
1783696673678505500,6.38150537109375,-12.09730477644205,-3.051910074345767,-0.47954767658300695
1783696673688468200,6.39146826171875,-12.098307816004752,-3.0570795859381557,-0.5443919777415692
1783696673698431200,6.40143115234375,-12.098061147767305,-3.0693387635305522,-0.6303437296628952
1783696673708394200,6.411394287109375,-12.088879477924108,-3.1032661675736306,-0.7076421464640646
1783696673718357200,6.421357177734375,-8.613278419578075,-2.7960499379217625,2.1350449664048847
1783696673728320300,6.4313203125,-8.008368990901111,-2.244372333216667,2.0960129326991734
1783696673738283500,6.441283447265625,-8.090164061534404,-1.7739555461376904,1.6056084196023641
1783696673748246500,6.45124658203125,-8.005956084540486,-1.3047557336330413,0.7609540499348193
1783696673758209300,6.461209228515625,-7.178510404631495,-1.0069897616326808,0.09406703464202583
1783696673768172300,6.47117236328125,-5.520627461782097,-0.81543667768538,-0.38914932051636275
1783696673778135300,6.48113525390625,-3.3452719661682844,-0.5563178317263722,-0.8213244205497204
1783696673788098300,6.491098388671875,-1.082345154607296,-0.195189686883986,-1.1659233092650771
1783696673798061300,6.501061279296875,0.9043331047564744,0.18459055145829914,-1.301783439823985
1783696673808024300,6.5110244140625,2.537835055065155,0.44598084948062894,-1.221919118057564
1783696673817987300,6.5209873046875,3.8498675017029043,0.7794637392893433,-1.0343940475173294
1783696673827950300,6.530950439453125,4.7955374099761245,1.042517878870666,-0.7289603904332965
1783696673837913300,6.540913330078125,5.506066436988115,1.1898206099420785,-0.5064128140896559
1783696673847876400,6.55087646484375,6.030992812889814,1.3456813260003924,-0.5096653861448168
1783696673857839400,6.56083935546875,6.366638141429424,1.4436360887959598,-0.6654794865824282
1783696673867802400,6.57080224609375,6.568261953014135,1.6070331917084753,-0.9180329826764762
1783696673877765400,6.580765380859375,6.6149588222593065,1.761437571478635,-1.1830832645110785
1783696673887728400,6.590728271484375,6.5043772176027295,1.7677612215422094,-1.4183216147974134
1783696673897691400,6.60069140625,6.4335314110070465,1.7138998674951493,-1.7203417371109126
1783696673907654400,6.610654296875,6.464995639806985,1.597979678289592,-1.9906379567749797
1783696673917617700,6.62061767578125,6.537809531605244,1.4572069335088134,-2.2098311811894176
1783696673927580400,6.630580322265625,6.679363197630644,1.361828304811567,-2.2322037565171717
1783696673937543400,6.64054345703125,6.837455326002836,1.2727055216386913,-2.0142200540229678
1783696673947506400,6.65050634765625,6.783321584755182,1.1422123249404132,-1.6413558786794542
1783696673957469400,6.660469482421875,6.578574088191986,0.8960951455041766,-1.3220888534888624
1783696673967432400,6.670432373046875,6.303692148172855,0.5347573034338653,-0.9941597984150051
1783696673977395500,6.6803955078125,6.052822367382049,0.24637217711061238,-0.8244064583435654
1783696673987358200,6.690358154296875,5.959323414951562,0.21886223889440296,-1.1144029653862118
1783696673997321500,6.700321533203125,5.927173541975021,0.0022784663259983063,-1.5434259580641985
1783696674007284500,6.710284423828125,5.736949076282977,-0.4436556214034557,-1.7856702415898442
1783696674017247500,6.72024755859375,5.352752190542221,-0.5471645111948251,-1.8208926538795231
1783696674027210500,6.73021044921875,4.617920496922731,-0.45851124522984027,-1.7593115192353725
1783696674037173500,6.740173583984375,3.526379643946886,-0.2595426243290305,-1.615947588917613
1783696674047136500,6.750136474609375,1.8988608597010372,-0.18234072670489548,-1.183743628115952
1783696674057099300,6.760099365234375,-0.10887713882625102,-0.2955547256916761,-0.546863628552109
1783696674067062300,6.770062255859375,-2.438226679843664,-0.42525107292383907,0.35673151731863617
1783696674077025500,6.780025634765625,-5.087505509352684,-0.5426844431713224,1.1392116818197071
1783696674086988500,6.789988525390625,-7.391931036993861,-0.5516144763410091,1.271353376377374
1783696674096951600,6.79995166015625,-9.100064157655835,-0.8158563644021749,1.0792188392803073
1783696674106914600,6.80991455078125,-10.518985784173012,-1.5881573724552989,0.8202581064924597
1783696674116877600,6.819877685546875,-11.810956855034828,-2.742505979260802,0.8945707124158739
1783696674126840300,6.82984033203125,-11.847404132944344,-2.6697549235656854,0.8598964355282485
1783696674136803300,6.83980322265625,-11.891127539336681,-2.6055615605965254,0.7720067012816667
1783696674146766300,6.849766357421875,-8.665691912904382,-4.3963709186404945,2.149371159529686
1783696674156729300,6.859729248046875,-6.703486416018009,-4.990724466511607,1.7843229186341165
1783696674166692600,6.869692626953125,-4.9493940927356475,-5.409516280293464,1.1378972382202743
1783696674176655600,6.879655517578125,-4.178287555164099,-5.562082338720559,0.9686518476709723
1783696674186618600,6.88961865234375,-4.583483974313736,-5.047819980174303,1.152319731326401
1783696674196581400,6.899581298828125,-5.532771488562226,-3.62728741132915,1.1895067216873167
1783696674206544400,6.90954443359375,-6.201692493900656,-2.0901415564477444,1.0989132814399898
1783696674216507400,6.91950732421875,-6.244968156525492,-1.1236106464534996,1.1650186155103146
1783696674226470400,6.929470458984375,-5.329808537328243,-0.48419075314849613,1.0872029699020087
1783696674236433400,6.939433349609375,-3.540264376914501,-0.24075462948977946,0.7023723163023591
1783696674246396400,6.949396484375,-1.2906038741618393,-0.21689824534505606,0.00019873744249343872
1783696674256359400,6.959359375,1.1351607989937067,-0.20256956800222395,-0.9685251525513827
1783696674266322400,6.969322509765625,3.4768180329203604,-0.16146394289284943,-1.9161552549816667
1783696674276285400,6.979285400390625,5.396396101957559,-0.06377192268669604,-2.6034704335361716
1783696674286248400,6.98924853515625,6.6340972379714245,0.16494623205065725,-3.068817077744007
1783696674296211500,6.99921142578125,7.173565349444747,0.4372814101964235,-3.139116356372833
1783696674306174500,7.009174560546875,7.238280105939507,0.7641942739650607,-2.9362457595974205
1783696674316137500,7.019137451171875,7.046131978708505,1.0443025703303515,-2.4766449655652045
1783696674326100200,7.029100341796875,6.715497756329178,1.2340733009055256,-1.8463029894679783
1783696674336063500,7.0390634765625,6.254365514945984,1.2259899476930498,-1.0789353461638092
1783696674346026500,7.049026611328125,5.804622682583331,1.079725765889138,-0.6286530000969767
1783696674355989500,7.058989501953125,5.515156921416521,0.8256028285212814,-0.46793636844009157
1783696674365952500,7.068952392578125,5.384050999647378,0.46614290915206075,-0.5690628931395709
1783696674375915500,7.07891552734375,5.3551364553302525,-0.025278379771858452,-0.8882783342733979
1783696674385878500,7.08887841796875,5.299050995492935,-0.5377244826763868,-1.266381871575117
1783696674395841300,7.09884130859375,5.168944021633267,-1.0120838699012995,-1.6755799275815486
1783696674405804300,7.10880419921875,4.968237909415364,-1.2834791368484497,-2.2099963086232544
1783696674415767600,7.118767578125,4.878175945696235,-1.243855128598958,-2.6711373178347944
1783696674425730600,7.12873046875,4.687154192146658,-1.160187542092055,-2.9317434797421096
1783696674435693600,7.138693603515625,4.573093513202667,-0.9067666155137121,-3.091008743546903
1783696674445656600,7.148656494140625,4.575433938848972,-0.2510695411466062,-2.85049406029284
1783696674455619300,7.158619384765625,4.327790718889236,0.493074024567008,-2.3109482074081895
1783696674465582300,7.168582275390625,3.6936359065055844,1.1864537638574837,-1.680074024130404
1783696674475545300,7.17854541015625,2.742657954952121,1.726620671249926,-1.1541212277904151
1783696674485508400,7.18850830078125,1.6467559841573238,2.0674052623741326,-0.6590288491383195
1783696674495471400,7.198471435546875,0.48038873051702974,2.154452992838621,-0.08674947817027569
1783696674505434600,7.2084345703125,-0.588431756606698,1.8280157837577162,0.6817556447312235
1783696674515397600,7.218397705078125,-1.6721020223379135,1.2306041634902358,1.7126882997483015
1783696674525360400,7.2283603515625,-2.879734767824411,0.5793471173971891,2.7090856479570267
1783696674535323400,7.238323486328125,-4.3869449186474085,-0.31445407195091246,3.3104800542503594
1783696674545286400,7.248286376953125,-6.1609039719164365,-1.2470508559003473,3.1334254512548445
1783696674555249400,7.25824951171875,-8.068886295706033,-2.0313407001718877,2.4142769183270634
1783696674565212400,7.26821240234375,-10.05350060827732,-2.468706573781371,1.7031844122134148
1783696674575175400,7.278175537109375,-12.058275080823897,-2.079449774302542,1.2060538057319818
1783696674585138400,7.288138427734375,-12.065016956299543,-2.0422499244600534,1.245799686795473
1783696674595101400,7.298101318359375,-12.079414899486302,-2.0126149569138883,1.22554644170925
1783696674605064400,7.308064453125,-12.101178987526893,-1.9826777915507554,1.1652639685735107
1783696674615027500,7.31802734375,-12.124634681916236,-1.9540829807072877,1.0961676359936594
1783696674624990500,7.327990478515625,-9.526623098307848,-0.757930829656124,2.5643951452106237
1783696674634953500,7.337953369140625,-8.07347946871519,-0.7760127220526337,2.869967991569638
1783696674644916500,7.34791650390625,-7.2760448961883775,-1.0753694703757761,3.2290839198067784
1783696674654879200,7.357879150390625,-6.57153469107449,-1.543191564786434,3.269298149034381
1783696674664842200,7.36784228515625,-5.257637619608641,-1.8833102393478154,3.002515928840637
1783696674674805500,7.377805419921875,-3.041832040184736,-1.7991724049806594,2.3516613260686396
1783696674684768500,7.3877685546875,-0.33855858563780783,-1.5037866061151026,1.643309058573842
1783696674694731500,7.3977314453125,2.2865081781566143,-1.1349833966001868,1.0395436853654683
1783696674704694500,7.407694580078125,4.424403419426083,-0.8003568897143006,0.4221174510732293
1783696674714657500,7.417657470703125,5.924573588609695,-0.5481386169239878,-0.37275720783770083
1783696674724620300,7.427620361328125,6.791449946153164,-0.3311088541537523,-0.9751876791805029
1783696674734583300,7.437583251953125,7.216931612962484,-0.012562836714088916,-1.3614812449395657
1783696674744546300,7.44754638671875,7.159321135514974,0.32937223961949347,-1.503098769981414
1783696674754509600,7.457509521484375,6.619519846564531,0.6456587876945734,-1.4789970327734947
1783696674764472600,7.46747265625,5.772388053932786,0.8946031533807516,-1.4940391190826892
1783696674774435600,7.477435546875,4.786155249124765,1.0166755816057325,-1.721499382713437
1783696674784398600,7.487398681640625,3.924377091503143,1.0695178217381238,-2.20300104290843
1783696674794361300,7.497361328125,3.3351065459847447,0.9943466992892325,-2.7574937050342556
1783696674804324400,7.507324462890625,3.093717125722766,0.6784490044012665,-2.7458997133523226
1783696674814287400,7.517287353515625,2.8992069455355405,0.2933376341640949,-2.5493489672482013
1783696674824250400,7.52725048828125,3.0674101335555313,0.1037213634982705,-2.55772516592741
1783696674834213400,7.53721337890625,3.4478935517311093,-0.07037702004015445,-2.909370027631521
1783696674844176600,7.5471767578125,3.90134985165894,-0.3762587862178683,-3.33872444422096
1783696674854139600,7.5571396484375,4.3275037186414,-0.6674480101764202,-3.6084915254443883
1783696674864102400,7.567102294921875,4.832956747788191,-0.42144203602969643,-3.288244841566682
1783696674874065200,7.577065185546875,5.250885222738981,0.002787292630970478,-2.7969296433657407
1783696674884028000,7.58702783203125,5.485863022392988,0.4911493401147425,-2.447685997584462
1783696674893991000,7.596990966796875,5.226173975330591,0.9465839543782174,-2.083890679359436
1783696674903954000,7.606953857421875,4.712192771813273,1.154207737030089,-1.6527558090940118
1783696674913917200,7.616917236328125,4.079187713986635,1.3432716345101594,-1.3139401799552142
1783696674923880200,7.626880126953125,3.2702035734415054,1.6554279509127139,-1.227894758401066
1783696674933843200,7.63684326171875,2.653502000162005,2.7644378250837325,-1.1091752938658
1783696674943806200,7.64680615234375,4.683621926367283,3.1311031457871197,-0.8758642583802342
1783696674953769000,7.65676904296875,4.129861670169234,2.1099550949424506,-0.3680329557947814
1783696674963732000,7.66673193359375,2.258973105499148,0.9464043600276112,-0.08893222903683781
1783696674973695000,7.676695068359375,1.8377935197979212,0.38392800567150115,0.17472805974408984
1783696674983658000,7.686657958984375,1.3643717056840656,-0.042568975660204886,0.8027135358430445
1783696674993621000,7.69662109375,1.0150380435317754,-0.9957537896081805,1.4277381163097917
1783696675003584300,7.706584228515625,0.25927111391127106,-2.4400813677996394,1.5369021092534065
1783696675013547300,7.71654736328125,-1.4387678982377052,-3.148580934810638,0.7984611390955746
1783696675023510000,7.726510009765625,-3.358183470189571,-3.062898501349985,-0.1493472425110638
1783696675033473000,7.73647314453125,-5.312534746444225,-2.873743126194179,-0.7644076244547963
1783696675043436000,7.74643603515625,-7.952036278304457,-2.8154177784755823,-0.7543139543332159
1783696675053399000,7.75639892578125,-10.898588327860832,-2.6581749604091045,-0.189546128039062
1783696675063362000,7.766362060546875,-12.538978868639468,-2.063476252362132,0.3212325531098991
1783696675073325000,7.776324951171875,-12.596002486109732,-1.924507342132926,0.46854017955213784
1783696675083288000,7.7862880859375,-12.675712567162513,-1.751525979925692,0.6370036990087479
1783696675093251000,7.7962509765625,-8.81623552559316,-1.2026871057778596,2.047207985258847
1783696675103214000,7.806214111328125,-6.712109282934665,-1.2547896334588526,1.6313574856258928
1783696675113177000,7.816177001953125,-5.53054446016252,-1.4060603913784027,0.8879705104332417
1783696675123140000,7.82614013671875,-4.8015761056184765,-1.4977625235199927,0.46979620749522
1783696675133103000,7.83610302734375,-4.268521368318796,-1.5700117671728133,0.3617846359897405
1783696675143066000,7.846066162109375,-3.5381256113201376,-1.5206652602016926,0.2951831159003079
1783696675153028900,7.85602880859375,-2.491613986638188,-1.4218494966626167,0.26527386145740744
1783696675162992000,7.8659921875,-1.0335773243069648,-1.2579144874811172,0.3234668880332261
1783696675172955100,7.875955078125,0.6912620164841413,-1.1139198580443859,0.1822003683861345
1783696675182918100,7.885918212890625,2.2390116829663516,-0.9283990399986505,-0.2592529937326908
1783696675192881200,7.895881103515625,3.392742742395401,-0.7607622536897659,-0.6810942582130431
1783696675202844200,7.90584423828125,3.993466994342208,-0.5223293451458215,-0.913655717440322
1783696675212807200,7.91580712890625,4.090516917252541,-0.13173895897567273,-0.9641781363230199
1783696675222770000,7.92577001953125,3.821569043457508,0.2907499557584524,-0.9709923463825136
1783696675232733000,7.93573291015625,3.179682175517082,0.7664367921948433,-1.0429985019944608
1783696675242696000,7.945696044921875,2.1646540688574314,1.167169217672944,-0.9025574733860791
1783696675252659200,7.9556591796875,1.3922078071147204,1.4486542092189192,-0.6564801145035773
1783696675262622200,7.965622314453125,1.1054285085529088,1.7204478278338908,-0.3225566778531298
1783696675272585200,7.975585205078125,1.4897802925944328,1.8864935455590486,-0.04025769390999339
1783696675282548200,7.98554833984375,2.148378641360998,2.122636005078256,0.15080118591273203
1783696675292511000,7.995510986328125,2.5855314567416903,2.1961939932420846,0.2172686495600268
1783696675302474000,8.005473876953126,2.961962969177961,2.187554467451572,0.16368280625240877
1783696675312437000,8.01543701171875,3.243549375271797,2.014885239933431,0.2360589824868366
1783696675322400000,8.02539990234375,3.4805759241491554,1.8011501347944139,0.33476971474885936
1783696675332363000,8.035363037109375,3.748426650357246,1.5861398951530457,0.3709619949840009
1783696675342326300,8.045326171875,3.8362095632284876,1.3126137536570428,0.3640896615291014
1783696675352289000,8.0552890625,3.7732021951735017,1.092048510237038,0.2279875389078632
1783696675362252000,8.065251953125,3.3940444726437327,0.9328884603723883,-0.07966580351963638
1783696675372215000,8.075215087890625,3.3123440945565696,1.0451283536300062,-0.5615269081441685
1783696675382178000,8.085177978515626,3.6114579740345474,1.4094751682579516,-1.0237131520923226
1783696675392141000,8.09514111328125,3.968288713943958,1.737922401987016,-1.5581895196929574
1783696675402104000,8.10510400390625,4.211085662916302,1.9287617847070098,-2.017147631907463
1783696675412067000,8.115067138671876,4.295613957905769,2.0007772196039557,-2.002162536482513
1783696675422030000,8.125030029296875,4.4298084933400155,2.082515299353003,-1.2595292292013764
1783696675431993000,8.1349931640625,4.57003003397882,2.2976135095387695,-0.33256087959297
1783696675441956000,8.1449560546875,4.342897102606297,2.113905293872952,0.18019933076202868
1783696675451919000,8.154919189453125,3.8700463663786646,1.525586057730019,0.26821773288957773
1783696675461882000,8.164882080078126,3.4196617289811373,0.8070566796138882,0.5454070730682462
1783696675471845000,8.17484521484375,2.3483272132098674,-0.1499655205398798,0.8952073298189789
1783696675481808100,8.18480810546875,0.9338333400070666,-0.89431702991575,0.9155097478091716
1783696675491771000,8.19477099609375,-0.5234241546452045,-1.1114040758311747,1.0102885109171271
1783696675501734100,8.204734130859375,-2.100467135629058,-1.263160863701999,0.9675259854461997
1783696675511697200,8.214697265625,-4.141269783890247,-1.544713659787178,0.9336906436007469
1783696675521660200,8.22466015625,-6.225695300778746,-2.0971198710277674,1.2102771955806761
1783696675531623200,8.234623046875,-7.4556626276701685,-2.645688111540675,1.61575250473693
1783696675541586200,8.244586181640624,-7.7010121837347745,-3.012779256440699,1.8256740429371594
1783696675551549000,8.254548828125,-7.335559745952486,-3.4267113552317023,2.1187682237342
1783696675561512000,8.264511962890625,-6.710493664431572,-3.790660694974661,2.38375742303133
1783696675571475000,8.274474853515626,-6.318759953445196,-3.8771491841211914,2.168425111828744
1783696675581438000,8.28443798828125,-6.196779587417841,-3.8106536816895007,1.7351228343963623
1783696675591401200,8.294401123046875,-6.133970956805348,-3.771856918044388,1.4715565075092016
1783696675601364200,8.3043642578125,-5.855328787469864,-3.665214114141464,1.4015852917909621
1783696675611327200,8.3143271484375,-5.356953149363398,-3.55048649572134,1.2027501610767095
1783696675621290000,8.3242900390625,-4.711659103327989,-3.3196032719045876,0.6158746940013021
1783696675631253000,8.3342529296875,-4.0851662038743495,-3.1241850369617343,-0.12840499224737287
1783696675641216000,8.344216064453125,-3.5683787107646463,-2.9455913878306745,-0.5745765785271302
1783696675651179000,8.354178955078124,-3.025839521282911,-2.6805755927875636,-0.8097682035949081
1783696675661142000,8.36414208984375,-2.2489906406670808,-2.1646385790273546,-0.848112474232167
1783696675671105000,8.37410498046875,-1.114475153839588,-1.4927572625786065,-0.7330258863065391
1783696675681068300,8.384068359375,0.36301381245851516,-0.7641156557708978,-0.5061460529122501
1783696675691031000,8.394031005859375,1.8432120377153156,-0.012619535337388514,-0.12906977629903704
1783696675700994000,8.403994140625,2.858701916667819,0.4436825094103813,0.3192685595605522
1783696675710957000,8.41395703125,3.5165818880319595,0.660262482586503,0.6852494781963527
1783696675720920000,8.423920166015625,3.886947816818952,0.8148468950986861,0.9084107294589281
1783696675730883000,8.433883056640624,4.04587055079639,1.0641703232303261,0.6911881475303322
1783696675740846000,8.44384619140625,4.1006396673381325,1.2435270656883717,0.22919919798625632
1783696675750808800,8.453808837890625,3.983251305276155,1.2537249268367885,0.05758546173726208
1783696675760772000,8.463772216796874,3.806968271175027,1.3590908426716923,-0.08970883943252266
1783696675770735000,8.473735107421875,3.5313358050495385,1.4513079385980963,-0.3178054647380486
1783696675780698000,8.483697998046875,3.3766894332170483,1.502568170236051,-0.37409678587839007
1783696675790661000,8.4936611328125,3.299911898484826,1.5623141984075306,-0.323899726492539
1783696675800624000,8.5036240234375,3.340790436840057,1.7222487397760151,-0.27935488418210297
1783696675810587100,8.513587158203125,3.481100240284204,1.9413924259603021,-0.11905185656109823
1783696675820550000,8.5235498046875,3.893294555497169,2.1870041400924323,-0.04474599090572446
1783696675830513000,8.533512939453125,4.609021735674142,2.3839149516806004,-0.05933733777273446
1783696675840476200,8.54347607421875,5.518927672126889,2.5468565659105775,-0.08178359939120709
1783696675850439200,8.553439208984376,6.672795509678125,2.5320070795640346,-0.17412790189385413
1783696675860402200,8.563402099609375,7.464718625307083,2.3130767438694835,-0.17991474166698754
1783696675870366000,8.573365966796874,7.602898430985212,2.0277192948043345,-0.03359079249985516
1783696675880329000,8.583328857421876,7.346395028221607,1.9544734413295983,0.03604709961079061
1783696675890292000,8.5932919921875,6.927101694658398,2.158080243425071,0.023605624254047868
1783696675900255000,8.6032548828125,6.227249544483423,2.3632243380904194,-0.07876052524298428
1783696675910218000,8.613218017578125,5.39814791406095,2.2335396812960506,-0.2527781716953963
1783696675920181000,8.623180908203125,4.466846722880006,1.7439730803281068,-0.26779052045345303
1783696675930143700,8.633143798828126,3.425890978759527,1.274156889490783,-0.19010178916044532
1783696675940106800,8.643106689453125,2.2203578359007836,0.719478349404037,0.0893783653691411
1783696675950070000,8.653070068359375,0.4251256929785013,-0.13459405614584682,0.4088760575104505
1783696675960033000,8.663032958984376,-1.532676600512862,-1.0737257948219776,0.3607574118338525
1783696675969996000,8.67299609375,-3.5707653136402366,-1.9171639936327933,0.0669748834464699
1783696675979959000,8.682958984375,-5.7717070859313,-2.2265184043571353,-0.2877171639338136
1783696675989922000,8.692922119140626,-8.311574523606897,-2.393748071169853,-0.5829460186719894
1783696675999884800,8.702884765625,-10.45572648718357,-2.836335771080851,-0.255534338535741
1783696676009847800,8.712847900390624,-11.236584603440761,-3.3578456165373325,0.6886737535566091
1783696676019810800,8.722810791015625,-10.317760616517067,-3.47640828307569,1.5507354042947292
1783696676029773800,8.73277392578125,-8.505511287820338,-3.325053938525915,2.1507743043258785
1783696676039737000,8.742737060546874,-6.532362956637144,-3.286466725978255,1.7813465331718326
1783696676049700000,8.7527001953125,-4.3771524234294885,-3.617583763438463,0.6483711884584278
1783696676059663000,8.7626630859375,-2.9939006607085465,-4.567617127618194,0.022274622245458883
1783696676069625900,8.7726259765625,-3.3888790527045725,-5.125338104140758,-0.30759518249947576
1783696676079588900,8.7825888671875,-5.0540568287372585,-4.738021040552854,-0.6087328228900208
1783696676089552000,8.7925517578125,-6.460963023290038,-3.952182505534589,-0.674328782666102
1783696676099515000,8.802514892578126,-6.748814334997534,-3.2772996691823004,-0.5685360927864909
1783696676109478000,8.812477783203125,-6.147129129064083,-2.604648537404835,-0.749485584328696
1783696676119441200,8.822441162109374,-5.126966582125425,-1.9642077766194939,-0.8956316927108913
1783696676129404000,8.83240380859375,-3.85101374912858,-1.4409958034202455,-0.8598957779411226
1783696676139367000,8.842366943359375,-2.328327212232351,-1.0110396215453743,-0.9275983911402523
1783696676149330000,8.852329833984374,-0.6351999375224113,-0.5854430961847304,-1.0754298953261225
1783696676159293000,8.86229296875,1.0476870982021094,-0.2632221896246075,-1.2489528901293874
1783696676169256000,8.872255859375,2.3315958586394787,-0.17226269254386423,-1.2398492539584636
1783696676179219000,8.882218994140626,3.075760613271594,-0.06051350541263818,-1.0696194554816931
1783696676189182000,8.892181884765625,3.3462171380639076,0.18729045806676148,-0.9107938982684165
1783696676199145000,8.90214501953125,3.268538270577788,0.4760308275684714,-0.7816700171619653
1783696676209108000,8.91210791015625,3.1527269485741853,0.8891203380554914,-0.7060173948064447
1783696676219071000,8.922071044921875,3.155897395303845,1.2751274880886077,-0.6016507191419601
1783696676229034000,8.932033935546874,3.3773078573763367,1.5227160552516579,-0.5584213798768818
1783696676238997000,8.9419970703125,3.7438586117893453,1.7086933848932384,-0.5074501943133771
1783696676248960000,8.9519599609375,4.1123640074014665,1.8480799360126257,-0.43275264419298615
1783696676258923000,8.961923095703124,4.475177328851819,1.8673627286314962,-0.37100846447423097
1783696676268885800,8.9718857421875,4.760789921721816,1.805672872915864,-0.41352410251200195
1783696676278848800,8.981848876953125,4.9700043345659966,1.7007073545753955,-0.47306423284783955
1783696676288812000,8.99181201171875,4.919380062744021,1.425810216987133,-0.7152098783046007
1783696676298775800,9.00177587890625,4.844904959735274,1.1322189003229142,-1.1770366778232157
1783696676308738000,9.011738037109374,4.872908818948269,1.095381454052031,-1.4506994513109326
1783696676318701000,9.021701171875,5.042475696536898,1.0677771155506373,-1.5133889855884015
1783696676328665000,9.0316650390625,5.311633413690329,1.057303652331233,-1.550872620808333
1783696676338628000,9.041628173828125,5.629920195671915,1.1013111363619565,-1.5880902985684573
1783696676348589800,9.05158984375,5.900068677428364,1.1456813162252306,-1.628384022773057
1783696676358552800,9.061552734375,6.07680530051589,1.3207497138395905,-1.6988912450641394
1783696676368516900,9.071516845703124,5.786268110725283,1.5989122829645872,-1.6041431693553923
1783696676378479900,9.08147998046875,4.843708443427086,1.9585747391685842,-1.3078034307658672
1783696676388443000,9.09144287109375,3.5010324367225167,2.2610835217818614,-0.7994733848780393
1783696676398406100,9.10140625,2.3455296914458272,2.409110183213651,-0.17510171536207197
1783696676408369200,9.111369140625,1.536643750578165,2.254583346107602,0.4180019785784185
1783696676418332000,9.121331787109375,0.9123451462984085,1.4897791235506535,0.9245183991730213
1783696676428295000,9.131294921875,0.1631236927986145,0.23444120855927467,1.2251226633392274
1783696676438258000,9.1412578125,-0.4743780919253826,-0.988363679356873,1.060218370734155
1783696676448221000,9.151220947265625,-1.3900941759616137,-1.9174658991888165,0.577959754692018
1783696676458184000,9.161183837890626,-3.252226018202305,-2.5048794186636805,-0.12111439684778451
1783696676468147000,9.17114697265625,-5.825692358618975,-2.594107854168117,-0.5748633961118758
1783696676478110000,9.18110986328125,-7.968166159850359,-2.180865491206944,-0.22148199293874202
1783696676488073000,9.191072998046875,-9.606324411532283,-2.3131880952894686,1.0062216268043964
1783696676498036000,9.201035888671875,-10.19516533346176,-3.1584830278828737,2.8555139342814684
1783696676507999000,9.2109990234375,-9.392724330949783,-3.5583030146911736,3.9763597921967504
1783696676517962000,9.2209619140625,-7.933371325322986,-3.678325524649024,3.786653505159914
1783696676527925000,9.230925048828125,-5.830776530015468,-3.576357726819813,2.4431335949771107
1783696676537888000,9.240887939453126,-4.037676138424873,-3.796800805164873,0.9127085727833211
1783696676547850800,9.250850830078125,-3.915135800427198,-4.2225349854305385,0.08195391445681452
1783696676557813800,9.260813720703124,-5.364096591377258,-4.0562861463487145,0.12109510762542486
1783696676567777000,9.270777099609376,-6.616926907461881,-3.291631561395526,0.25687705838158725
1783696676577740000,9.280739990234375,-6.784321701708436,-2.5625942332684994,0.33166597657985986
1783696676587703000,9.290703125,-6.239969909846782,-1.8846812354400753,0.603280950692296
1783696676597666000,9.300666015625,-5.101580796456337,-1.1235641769632696,0.7576623879782856
1783696676607629000,9.310629150390625,-3.4571605617702006,-0.4596472635224461,0.6638762161042541
1783696676619459800,9.3224599609375,-1.3191162674188612,0.058519701246917244,0.26531086899954825
1783696676629422800,9.3324228515625,1.040126892080903,0.3271498873949051,-0.5698303338481113
1783696676639385900,9.3423857421875,2.95707811974585,0.3202466838777065,-1.3986974613949656
1783696676649348900,9.352348876953124,3.8501357972502706,0.3855798645317554,-1.8035244627103209
1783696676659312000,9.36231201171875,3.6748271611392496,0.712764238718152,-1.7795463518820702
1783696676669275100,9.372275146484375,3.0011148298710584,1.17730365819633,-1.787725712814927
1783696676679238000,9.38223779296875,2.134754605156183,1.4693816476881503,-1.773389728948474
1783696676689201000,9.392200927734375,1.2460638906896113,1.7636235372155904,-1.6045292460635303
1783696676699164000,9.402163818359375,0.7269090839266776,2.150963397157192,-1.4800368972152471
1783696676709127000,9.412126953125,0.5522404992848634,2.4176859961181876,-1.7855441309921443
1783696676719090000,9.42208984375,0.9396095853209495,2.3097888082399964,-1.891559889037907
1783696676729053000,9.432052978515625,1.7625573692888021,2.267992570517957,-1.7727799264870583
1783696676739016000,9.442015869140626,2.8297061238080263,2.3546441412717103,-1.6708547987557947
1783696676748979000,9.45197900390625,3.952631710606813,2.3254729918450114,-1.2832403596565127
1783696676758942000,9.46194189453125,4.940092011383175,2.225543421845138,-0.4447203280255198
1783696676768905000,9.471905029296876,5.807618941789865,2.1528364975526926,0.3888404737628996
1783696676778868000,9.481867919921875,6.258640123525262,2.0577941150724888,0.8326727669075131
1783696676788831000,9.4918310546875,6.327268838593364,2.0554165722861883,0.7733231907077133
1783696676798794000,9.5017939453125,6.208111128771304,2.177793536415696,0.15786453016139565
1783696676808757000,9.511757080078125,6.0528761433959,2.2225731738626955,-0.6847105490140617
1783696676818719700,9.5217197265625,5.590717481574416,2.2984230723559853,-1.2169463711462913
1783696676828683000,9.53168310546875,5.141052390623092,2.401877893872559,-1.5646546240538357
1783696676838646000,9.54164599609375,4.945782331979275,2.6079490402549506,-1.8167415255494415
