time,seconds_elapsed,z,y,x
1783696645033845800,0.058845703125,4.944442023286223,3.6785663476675747,-1.529250717717409
1783696645043808500,0.06880859375,4.954458974909782,3.613391572445631,-1.3925811704717577
1783696645053771500,0.078771484375,5.112385099065303,3.5671026994794603,-1.3951758631400764
1783696645063734500,0.088734619140625,5.0288925768643615,3.5632045229971405,-1.3068699493080376
1783696645073697500,0.098697509765625,4.397386233162879,3.5107144573032856,-0.9524494854107498
1783696645083661600,0.10866162109375,3.4365164176702496,3.136300129908323,-0.6002386603869497
1783696645093624600,0.11862451171875,2.323276943105459,2.5335604464858767,-0.36715091226324437
1783696645103587600,0.128587646484375,0.9936766910731792,1.5893927594691515,-0.31353885680213567
1783696645113550600,0.138550537109375,-0.5335924974381924,0.35091947003901003,-0.09184066382944583
1783696645123513300,0.148513427734375,-2.1047434977740047,-0.9473498241841792,0.416037108246237
1783696645133476600,0.1584765625,-3.111611094331741,-2.2783283788323403,0.6921686830002814
1783696645143439600,0.168439697265625,-3.4445173532962796,-3.30915435860455,0.5071304608397186
1783696645153402600,0.178402587890625,-4.002158250319957,-4.2829678268224,0.11717369639798998
1783696645163365600,0.18836572265625,-5.146913976132869,-5.554637867933511,0.4341872435733676
1783696645173328600,0.19832861328125,-6.180484870699048,-6.488191806477308,1.1592193546470253
1783696645183292700,0.208292724609375,-5.802272904586792,-6.506505461803078,1.758091768182069
1783696645193255700,0.218255615234375,-4.568156056800484,-6.380852544742822,2.7862285088703036
1783696645203218400,0.228218505859375,-3.7499388084858656,-6.5367158911496395,3.716923550851643
1783696645213181400,0.238181396484375,-3.138644647207856,-6.8545666198015205,4.199367752593756
1783696645223144400,0.24814453125,-2.568115042516589,-6.966928093612194,4.351041830617189
1783696645233107500,0.258107421875,-2.399135024905205,-6.906742212718725,4.484124605417251
1783696645243070700,0.26807080078125,-2.5266180800020694,-6.66581105761826,4.606344625419378
1783696645253033700,0.27803369140625,-2.686487154918909,-6.1462938472837205,4.1052889544486995
1783696645262996700,0.287996826171875,-2.969007042470574,-5.253444844093918,2.6138772612601517
1783696645272959500,0.29795947265625,-3.5074376275897023,-4.163747573158145,0.5110994375359267
1783696645282922500,0.307922607421875,-3.802478558540344,-3.1332781517386437,-1.1511436002191155
1783696645292886500,0.317886474609375,-3.4949604233324525,-2.2350001092374323,-2.130248379778117
1783696645302849500,0.327849609375,-2.379291091272235,-1.4107313057988882,-2.4309543507531286
1783696645312812500,0.3378125,-0.7094909161359071,-0.5201122536182403,-2.2545824693247676
1783696645322775600,0.347775634765625,0.9904583135485648,0.41896600130498407,-1.9410243233002722
1783696645332738600,0.357738525390625,2.56609844199717,1.3709984303474425,-1.7270096705675124
1783696645342701600,0.36770166015625,3.8967742143064736,2.316240468597412,-1.5130262897558509
1783696645352664600,0.37766455078125,4.718731233671307,3.028185792148113,-1.1657708951823413
1783696645362627600,0.387627685546875,4.921650930285454,3.4079619388371705,-0.8832293072555214
1783696645372590600,0.397590576171875,4.578890216782689,3.5783676053375,-0.9519181550130248
1783696645382553600,0.4075537109375,4.042859678542614,3.7137335226386785,-1.3216864101678132
1783696645392517600,0.417517578125,3.616160452637076,3.781409467026591,-1.6325827896371483
1783696645402480600,0.427480712890625,3.3389825106352564,3.7616707473337647,-1.8081316642448304
1783696645412443600,0.437443603515625,3.198530083850026,3.716777712640166,-1.846415802192688
1783696645422406700,0.44740673828125,3.153881963828206,3.738538878071308,-1.6732725274220108
1783696645432369400,0.457369384765625,3.371139982396364,3.8132179792195555,-1.4055401668965817
1783696645442332400,0.46733251953125,3.7237002053797243,3.7866900377780195,-1.0294752958156168
1783696645452295400,0.47729541015625,4.171711099383235,3.5152702209115025,-0.6277155000511556
1783696645462258700,0.4872587890625,4.7212394170999525,3.22302856529057,-0.46924314018972213
1783696645472221700,0.4972216796875,5.08387621293962,3.1556513115882874,-0.5310663399614394
1783696645482184700,0.507184814453125,5.0502276258379215,3.2229309501349923,-0.6576065612502395
1783696645492148700,0.517148681640625,4.86850503103137,3.2868817365199328,-0.8411136283207684
1783696645502111700,0.52711181640625,4.558573989462852,3.299193521082401,-0.9663548227749764
1783696645512074500,0.537074462890625,3.9650165604054926,3.3619279174149033,-0.8721701531026512
1783696645522037500,0.54703759765625,3.3953543861985205,3.5215590919226405,-0.599342149938643
1783696645532000500,0.55700048828125,3.055205901020765,3.584994914522767,-0.3871074394252151
1783696645541963500,0.566963623046875,2.791669530880451,3.4365748698592182,-0.2879156091153621
1783696645551926500,0.576926513671875,2.163485025078058,3.135203566843271,-0.013169716566056013
1783696645561889500,0.5868896484375,1.2805769856661557,2.487112583565712,0.3615501696467399
1783696645571852800,0.596852783203125,-0.026376550272107124,1.5398182889610528,0.6038633536901324
1783696645581815600,0.606815673828125,-1.7073597982019184,0.25401392403542994,0.9454866606608032
1783696645591778600,0.616778564453125,-3.8017765477508303,-1.5376801078885793,1.2014805795323102
1783696645601742600,0.62674267578125,-5.666075797158479,-3.2411329617798326,0.952399947180599
1783696645611705600,0.63670556640625,-6.241333014893532,-4.1999335697829725,0.2236683970671147
1783696645621668600,0.646668701171875,-5.914953527349233,-4.722409045401215,-0.7563721289720385
1783696645631631600,0.656631591796875,-5.889131688350439,-5.615323515042662,-0.6673663232423365
1783696645641594600,0.6665947265625,-6.362457640874386,-6.264398833182454,0.7154948327258229
1783696645651557600,0.6765576171875,-6.824037041503191,-5.831266943880915,2.715432094374299
1783696645661520400,0.686520263671875,-6.867818900084496,-5.313238510799407,4.4456180568903685
1783696645671483400,0.6964833984375,-5.905846676307917,-5.193208109796047,5.614366068187356
1783696645681446700,0.70644677734375,-4.360553755328059,-5.268306897661089,6.194528009098768
1783696645691409700,0.71640966796875,-3.1740228345811365,-5.30150248029828,6.191854990497231
1783696645701372700,0.72637255859375,-2.8597008645772934,-5.2351709362566465,6.194453190296888
1783696645711336700,0.736336669921875,-2.9991970135509964,-4.741086273342371,6.350508844405412
1783696645721299700,0.7462998046875,-3.286901025742292,-4.050462554761767,6.3052580823153255
1783696645731262700,0.7562626953125,-3.379281203275919,-3.268070653066039,5.411599516308307
1783696645741225500,0.7662255859375,-3.218600811976194,-2.1043676501989363,3.7474504988014696
1783696645751188500,0.7761884765625,-3.0051392630815505,-0.9588017770469188,1.9720269259378314
1783696645761151500,0.7861513671875,-2.661611072337627,-0.10165069470405579,0.5512073568448425
1783696645771114500,0.796114501953125,-1.8881553412914276,0.4248959758758545,-0.34938510007858276
1783696645781077500,0.806077392578125,-0.5262590858101844,0.7203893267691135,-0.9536321193240582
1783696645791040800,0.816040771484375,0.9043068012714386,0.8545125505328178,-1.3634662812769411
1783696645801003800,0.826003662109375,2.196818554881215,0.910923004540801,-1.8276706235818563
1783696645810967800,0.8359677734375,3.101778851625323,1.0041782113432884,-2.379735912430286
1783696645820930600,0.8459306640625,3.370826094141602,1.1977642624229192,-2.7566683601260182
1783696645830893600,0.8558935546875,3.2299802841246126,1.5085501672551036,-2.785472429805994
1783696645840856800,0.86585693359375,2.992842676088214,1.9695809940904379,-2.650878081399202
1783696645850819800,0.87581982421875,2.880468342795968,2.4461074962213636,-2.5016174942582845
1783696645860782800,0.885782958984375,2.896678303840756,2.8623168922945856,-2.2461646234609187
1783696645870745900,0.895745849609375,3.0025474930226803,3.062688365730643,-1.9950040430299936
1783696645880708600,0.90570849609375,3.166998050510883,3.107038379588723,-1.6922145437791942
1783696645890671600,0.915671630859375,3.3594436993837355,3.116159843677282,-1.2706040193147956
1783696645900635000,0.925634765625,3.4859506029248237,3.0908401089817286,-0.9022440235227346
1783696645910598000,0.935597900390625,3.590681143465638,2.8980393630608914,-0.8390985621713102
1783696645920561700,0.945561767578125,3.731972359162569,2.6527804078891872,-0.9471411498695611
1783696645930525000,0.95552490234375,3.945211789739132,2.3930349544644356,-1.0223688248112797
1783696645940488000,0.965488037109375,4.153329639518261,2.033587310054898,-1.1197224068433045
1783696645950451000,0.975450927734375,4.2617993665874,1.897656744608283,-1.2838128988474606
1783696645960413700,0.98541357421875,4.124805555823445,1.984388979382813,-1.6173346593618392
1783696645970376700,0.995376708984375,3.988820629841089,2.2215888390004634,-1.8925505075104534
1783696645980339700,1.005339599609375,3.4929765560388564,2.5504016911715266,-1.8253882117331026
1783696645990302700,1.015302734375,2.5306425132125616,3.0036154145151377,-1.455530816990137
1783696646000265700,1.025265625,1.254535366436839,3.4967362008333205,-1.056224040400982
1783696646010229000,1.03522900390625,0.2606166833013296,3.876719268271327,-1.0337301767811178
1783696646020192800,1.04519287109375,0.038266310030221934,3.9893940458148713,-1.403294141535461
1783696646030155800,1.05515576171875,0.40682372809052464,3.5850434298396108,-1.6238820351786911
1783696646040118800,1.065118896484375,1.1084294439345597,2.8422055398970842,-1.6560243093706666
1783696646050081800,1.075081787109375,1.7032365807920693,1.939574562883377,-1.6026481084920465
1783696646060044800,1.085044921875,1.5958943964481354,0.920960414430499,-1.0910936937302351
1783696646070007800,1.0950078125,0.7268424484312533,0.04025251541137695,-0.17407617170661688
1783696646079970800,1.104970703125,-0.7244412325084209,-0.641205899938941,0.6509788136735558
1783696646089933800,1.114933837890625,-2.4910481694489714,-1.198995265522599,0.8691799583107233
1783696646099896600,1.124896484375,-4.328948656752705,-1.8283955768555402,0.35129502535313367
1783696646109859600,1.134859619140625,-6.092422556364536,-2.5997365077048538,-0.3415713575877249
1783696646119822800,1.14482275390625,-7.334383103388547,-3.837463947203755,-0.120510147344321
1783696646129786600,1.15478662109375,-7.307674544683098,-5.395586539140344,1.3376095170952378
1783696646139750000,1.16475,-5.886812305492162,-5.981041325762868,2.6625711495414373
1783696646149713000,1.174712890625,-3.7534634754806753,-6.24500965757966,3.7069498538479206
1783696646159676000,1.184676025390625,-2.1396552366793156,-6.935344037824869,4.653709018662572
1783696646169639000,1.194638916015625,-1.3559183501154184,-7.47759155088365,5.3249359628558155
1783696646179601700,1.2046015625,-1.35994395236969,-7.619194901269674,6.001982406982779
1783696646189564700,1.214564697265625,-2.157075158035755,-7.020936162653565,6.445819230172038
1783696646199527700,1.224527587890625,-3.310578253927827,-5.824425115162134,6.495193794193863
1783696646209490700,1.23449072265625,-3.926972953215241,-4.450091987434029,5.771715269237756
1783696646219453700,1.24445361328125,-4.201588351252675,-3.116135293757915,4.639373327057063
1783696646229417700,1.254417724609375,-4.115935436147451,-1.9528478859543799,3.2823686430096624
1783696646239380700,1.264380615234375,-3.669988488936424,-1.2372177364110946,2.0520707689896223
1783696646249344000,1.274343994140625,-2.952926845285296,-0.7845768445193767,0.8340554534375667
1783696646259306800,1.284306640625,-1.9313176066696642,-0.12461539070606231,-0.39146336961239575
1783696646269269800,1.294269775390625,-0.772211283943057,0.5873690958112477,-1.4465779874667524
1783696646279232800,1.304232666015625,0.33061902481019495,1.242698213648796,-2.2905659291148184
1783696646289195800,1.31419580078125,1.2273171046435831,1.846862961438298,-2.916080338925123
1783696646299158800,1.32415869140625,1.9792308659672735,2.279003501614928,-3.422904656425118
1783696646309121800,1.334121826171875,2.705534385216236,2.6126316451132294,-3.737818747103214
1783696646319084800,1.344084716796875,3.3088837249696255,2.9004543152481315,-3.836358616310358
1783696646329048800,1.354048828125,3.8390544312655925,3.1467566419929263,-3.798464646723866
1783696646339011600,1.364011474609375,4.2577293406695125,3.5209085190594194,-3.812486157813668
1783696646348974600,1.373974609375,4.4959331166327,3.917889190788567,-3.8589404504746194
1783696646358937900,1.383937744140625,4.5476767478734255,4.217845950831473,-3.7993165873780845
1783696646368900900,1.39390087890625,4.47109152084291,4.319137456834316,-3.5962174425438045
1783696646378863900,1.40386376953125,4.40061220947206,4.26447560005933,-3.2994849052444097
1783696646388827000,1.413826904296875,4.419624368456006,4.185249210870266,-2.8916981773406265
1783696646398790000,1.423789794921875,4.502904709210991,4.0986569690883154,-2.438780514334142
1783696646408752600,1.433752685546875,4.726863102200627,4.098260663247109,-2.0328347381219265
1783696646418715600,1.443715576171875,5.000317639765143,4.318913000428676,-1.6564859355330466
1783696646428679700,1.4536796875,5.130712198394536,4.749115850540996,-1.2125412680551408
1783696646438642700,1.463642578125,5.089339154520631,5.176759663820266,-0.9496560552999377
1783696646448605700,1.473605712890625,5.030633867573738,5.585155755794048,-0.8378878712072968
1783696646458568700,1.483568603515625,5.002781399530172,5.818033952820301,-0.8486572486333549
1783696646468532000,1.493531982421875,4.900891050851345,5.590444509851932,-0.978083692882955
1783696646478495000,1.503494873046875,4.563230875357985,4.976825705018639,-1.2936882500432432
1783696646488457700,1.513457763671875,4.044865757668018,4.199363660940528,-1.7219474187418817
1783696646498420700,1.523420654296875,3.5481560069471594,3.5360108111232518,-1.9067890223518014
1783696646508383700,1.5333837890625,2.9625463220238686,3.1748171998292207,-1.5380604855082929
1783696646518346800,1.5433466796875,2.5485154390335083,3.010430939748883,-0.35418899322897196
1783696646528310800,1.553310791015625,2.3918372691124676,2.466914429667592,1.300888536810875
1783696646538273800,1.563273681640625,2.0108780501186847,0.9426379932314157,2.7456892854720354
1783696646548236800,1.57323681640625,1.45998253570199,-1.717094425752759,3.440909684193134
1783696646558199800,1.58319970703125,0.8377309270799159,-4.599677568745613,3.4755846917331215
1783696646568162600,1.59316259765625,-0.13308219027817247,-6.704293640747666,3.425184291794896
1783696646578125800,1.603125732421875,-1.8761410783708095,-7.833606882756948,4.10622009781897
1783696646588088800,1.6130888671875,-4.2717420839309685,-8.965854424652457,5.806363973292708
1783696646598051800,1.6230517578125,-6.547412057209015,-10.243063395190239,7.563654800355434
1783696646608014800,1.633014892578125,-8.018532657518982,-10.61434585430026,8.113705096119642
1783696646617977900,1.642977783203125,-8.432963938003779,-10.086832384514809,7.411308522158861
1783696646627942000,1.65294189453125,-7.902443687617779,-9.241454742074012,6.35845834210515
1783696646637905000,1.66290478515625,-7.022952763172984,-8.614972948536277,5.442734659284353
1783696646647867600,1.67286767578125,-6.411662693548202,-8.336164190462231,4.524752383881807
1783696646657830700,1.68283056640625,-5.8870525439888235,-8.014723328363894,3.784167825824022
1783696646667793700,1.692793701171875,-5.535346892008185,-7.39200585579574,3.062289137279987
1783696646677756700,1.702756591796875,-5.3332805973529815,-5.962470480805635,1.9869871791824698
1783696646687720000,1.712719970703125,-4.97372832352519,-4.056023111498356,0.856236817042157
1783696646697683000,1.722682861328125,-4.257908204367757,-2.2308225312918424,-0.15165661543197928
1783696646707646000,1.73264599609375,-3.1994489522606133,-0.7235393152326345,-0.6854629017513245
1783696646717610000,1.74260986328125,-1.969438955271244,0.3019745296061039,-0.7893740887332708
1783696646727572700,1.75257275390625,-0.6347574544519186,1.048896473991871,-0.8858616285204887
1783696646737535700,1.76253564453125,0.8003589355409145,1.592002649706602,-1.0795528204750269
1783696646747498800,1.772498779296875,1.958883074465394,2.022989343672991,-1.2549258270591497
1783696646757461800,1.782461669921875,2.820945894247293,2.323530625605583,-1.457642110055685
1783696646767424800,1.7924248046875,3.3709482592165467,2.4845097075909375,-1.7893503914073108
1783696646777387800,1.8023876953125,3.826398947831988,2.579256614255905,-2.204254550100863
1783696646787350800,1.812350830078125,4.365623898199201,2.7575018883407116,-2.360214781010896
1783696646797313800,1.822313720703125,4.8279754522442815,2.9862650512635707,-2.3319725829973814
1783696646807276800,1.83227685546875,5.158710796910524,3.2846623069047927,-2.2606648579783735
1783696646817239800,1.84223974609375,5.132450566494464,3.4642420444637536,-2.0160332409247754
1783696646827203800,1.852203857421875,4.843410337263346,3.447483801886439,-1.821242636360973
1783696646837166800,1.862166748046875,4.522741628581286,3.273338948857784,-1.6085352668344974
1783696646847129600,1.872129638671875,4.261957772019505,3.015661241617799,-1.358646021513641
1783696646857092600,1.882092529296875,3.9861809289872645,2.872629904255271,-1.201956380350515
1783696646867055600,1.8920556640625,3.641151686030626,2.9368624301910398,-1.2135781368222087
1783696646877018400,1.902018310546875,3.26292159973979,3.198101044782996,-1.5068021545439958
1783696646886981400,1.9119814453125,2.9970728610038755,3.3816526085823773,-1.8473691573947666
1783696646896944600,1.921944580078125,3.035280718845129,3.1806472211569545,-1.9372430511958896
1783696646906907600,1.93190771484375,3.199225080376863,2.838584426790476,-1.9886893069252372
1783696646916870700,1.94187060546875,3.327799437841773,2.5592425847530365,-2.1033117114052176
1783696646926834700,1.951834716796875,3.3769816941618918,2.4359148957699537,-2.2790781742863357
1783696646936797700,1.961797607421875,3.220016523993015,2.4021920743882657,-2.278345329967141
1783696646946760700,1.9717607421875,2.64506384216249,2.208501393890381,-2.0055022022992373
1783696646956723500,1.981723388671875,1.9170774843931198,1.887975308549404,-1.7645666632845998
1783696646966686500,1.9916865234375,0.9847101252853869,1.4013567437320946,-1.6978651168867944
1783696646976649500,2.0016494140625,0.19928455498218536,0.643796500954032,-1.7527296566270292
1783696646986612500,2.011612548828125,-0.44456046128869053,-0.22784780164361,-1.6954698923133313
1783696646996575500,2.021575439453125,-1.196156827226281,-1.1448632778406143,-1.7139970442593098
1783696647006538800,2.031538818359375,-1.963241269674897,-1.9140327098697423,-1.9398194775551556
1783696647016501500,2.04150146484375,-3.1531980732172724,-2.353393264427781,-2.4112203072354195
1783696647026465500,2.051465576171875,-4.493946326729655,-2.6628017434269187,-2.9560914467960595
1783696647036428500,2.061428466796875,-5.467580931249261,-3.187996414875984,-3.0588337361291047
1783696647046391600,2.0713916015625,-6.176252932217717,-3.9475358487725254,-2.317848342185467
1783696647056354600,2.0813544921875,-6.2742170473635195,-4.291973555576801,-1.2073984983392059
1783696647066317600,2.091317626953125,-5.550200177747011,-4.213096418216824,-0.2793051632888615
1783696647076280600,2.101280517578125,-4.665959428426623,-4.276600045356155,0.6404493094179778
1783696647086243600,2.11124365234375,-3.517566807416081,-4.4886599107593295,1.4681827932924032
1783696647096206300,2.121206298828125,-2.079244899380207,-4.61038717880845,1.5989567066282033
1783696647106169300,2.13116943359375,-0.7265542791396379,-4.682303829506039,1.3671382477879523
1783696647116132600,2.141132568359375,-0.04203589169681072,-4.698091765746474,1.1904413721889258
1783696647126096400,2.151096435546875,0.1441997966200113,-4.450398276904225,0.6893088365897536
1783696647136059600,2.1610595703125,0.5064397020965814,-3.5520553524732588,-0.2959586485837586
1783696647146022700,2.171022705078125,0.8172767525941133,-2.434996611881256,-1.1053660377759487
1783696647155985700,2.180985595703125,0.7208487609744072,-1.530779826980829,-1.3930067024074495
1783696647165948700,2.19094873046875,0.19903145700395106,-0.7261006901532411,-1.4907983835957943
1783696647175911400,2.200911376953125,-0.8784212493866681,0.32365269292891025,-1.8295484001524744
1783696647185874400,2.21087451171875,-1.8925772493869064,1.5038661010921,-2.0987331514433025
1783696647195837400,2.22083740234375,-2.552769589346647,2.408472177571058,-2.1267307270459828
1783696647205800400,2.230800537109375,-2.7218168269753455,3.01483765027523,-1.9622917138651013
1783696647215763500,2.240763427734375,-2.6126602866858244,3.2985677903994914,-1.6183751083254814
1783696647225727500,2.2507275390625,-2.2675199845701455,3.2407711427301167,-1.2402248092725872
1783696647235690500,2.2606904296875,-1.7972043197780847,3.044881783144176,-1.0017461618907748
1783696647245653500,2.270653564453125,-1.0115005170553921,2.8748841129228473,-1.0646124409746378
1783696647255616500,2.280616455078125,0.07497311565876007,2.7267385012865066,-1.28601479280591
1783696647265579500,2.29057958984375,1.0304822809010743,2.470136898845434,-1.3632546843528748
1783696647275542500,2.30054248046875,1.8259154504776,2.2905153679713606,-1.3145520282432437
1783696647285505500,2.310505615234375,2.6255940025389193,2.2796143269896505,-1.2385465007968246
1783696647295468500,2.320468505859375,3.2876766862899065,2.321963814680278,-1.1741927596341817
1783696647305431600,2.330431640625,3.68952262596786,2.3050381065815686,-1.0346768099814654
1783696647315394600,2.34039453125,4.004735991853475,2.3943548048913477,-0.8584851074256002
1783696647325358600,2.350358642578125,4.188603781995177,2.4881591700091956,-0.5709699688699096
1783696647335321300,2.3603212890625,4.23412342415452,2.5262688281729817,-0.3537875362886116
1783696647345284400,2.370284423828125,4.273177669692039,2.708193667553365,-0.44812447391320015
1783696647355247600,2.38024755859375,4.304330932846665,2.9472870858326554,-0.7421732885539531
1783696647365210600,2.390210693359375,4.394465961802005,2.961828821404278,-0.8220635484792291
1783696647375173600,2.400173583984375,4.448724790734053,2.9734619760528207,-0.7982566294994204
1783696647385136600,2.41013671875,4.469994957777858,2.997295563843846,-0.8023749515384435
1783696647395099600,2.420099609375,4.460539731690288,3.071429890590906,-0.8313097349260002
1783696647405062400,2.4300625,4.308911830896139,3.130720868471265,-0.8288179181102663
1783696647415025400,2.440025390625,3.856729788687825,3.048281070193648,-0.6552942657198757
1783696647424988400,2.449988525390625,3.2527953425228593,2.8676638062804938,-0.36485761369429526
1783696647434952400,2.459952392578125,2.658803029179573,2.4854683234900237,-0.12569310294017194
1783696647444915500,2.46991552734375,1.930156161674857,1.723726411113143,0.15118695209361613
1783696647454878500,2.47987841796875,1.0344394940942525,0.35792847201824185,0.7225991848383099
1783696647464841700,2.489841796875,0.008873626807332039,-1.315543669629097,1.3878557493850587
1783696647474804700,2.4998046875,-0.9644494275450706,-2.9267250670582055,1.6899493753261863
1783696647484767500,2.509767578125,-1.7725637995183467,-4.224903175866603,1.2143267632324248
1783696647494730500,2.51973046875,-2.7127847947359083,-4.841615270540118,0.2534366356041282
1783696647504693500,2.529693603515625,-4.211450404575467,-5.380348637998104,0.012016162616759538
1783696647514656500,2.539656494140625,-6.2510904387980695,-5.974145721030235,0.9536017241857946
1783696647524620500,2.54962060546875,-7.183404021891951,-6.101077571985125,2.4820424406945705
1783696647534583600,2.55958349609375,-6.750552118575572,-5.681923354631662,4.047556311926246
1783696647544546600,2.569546630859375,-6.321581440606713,-5.478056732556223,5.400402414989471
1783696647554509600,2.579509521484375,-5.989792787495255,-5.4332917081564664,6.21123364470601
1783696647564472300,2.589472412109375,-5.638839415186643,-4.9954906580001115,6.087269995906949
1783696647574435600,2.599435546875,-5.521345839184522,-4.562013900783658,5.5705351097673175
1783696647584398600,2.609398681640625,-5.722817090556025,-4.427848006922006,5.055888720339536
1783696647594361600,2.619361572265625,-5.972279927158356,-3.9988621313840147,4.157269317054748
1783696647604324600,2.62932470703125,-6.136880122250318,-3.142916917699575,2.5461361426815388
1783696647614287600,2.63928759765625,-6.0657993378549815,-2.2776748833596705,0.8251064233064651
1783696647624250600,2.649250732421875,-5.454150371789932,-1.5415338607072828,-0.4133904296623543
1783696647634214700,2.659214599609375,-4.456012025132775,-1.027428154027462,-0.8963956628207117
1783696647644177400,2.669177490234375,-3.097344084048271,-0.6197735280707478,-0.8066513136833906
1783696647654140400,2.679140380859375,-1.3884990157246588,-0.2768640537470579,-0.5796916930511593
1783696647664103400,2.689103515625,0.5128787952333689,0.09231061942875385,-0.6461480325162411
1783696647674066400,2.69906640625,2.3636983853429556,0.4009036903917789,-0.9590673691805451
1783696647684029700,2.70902978515625,3.8440971016079186,0.6884077960968017,-1.2703779554739594
1783696647693992700,2.71899267578125,4.768367078977823,1.0343488932013511,-1.325018623330444
1783696647703955700,2.728955810546875,5.087914674675464,1.3759823562398552,-1.1686107217181474
1783696647713918500,2.73891845703125,4.873634210613369,1.6567153603747486,-0.971499857513234
1783696647723881500,2.748881591796875,4.366914522531628,1.8330653222322464,-0.9674555505584925
1783696647733845500,2.758845458984375,3.8795834255307913,2.0302862226828933,-1.115828468144685
1783696647743808500,2.76880859375,3.5729116780191656,2.209674237062037,-1.174933421933651
1783696647753771500,2.778771484375,3.3757050983548162,2.264858948667347,-1.0546252999674528
1783696647763734500,2.788734619140625,3.429574635708332,2.242057918794453,-0.8137220557872206
1783696647773697500,2.798697509765625,3.6662154001384972,2.273847141765058,-0.5499912590533494
1783696647783660500,2.80866064453125,4.016971204048395,2.379882042902708,-0.2301243317408487
1783696647793623600,2.81862353515625,4.33865581177473,2.365856732420623,0.12062599227633326
1783696647803586600,2.828586669921875,4.590207145088911,2.2769196810781955,0.2732657369941473
1783696647813549600,2.838549560546875,4.903381698623299,2.2343094966247676,0.22794731649532912
1783696647823512600,2.8485126953125,5.246254055806994,2.240731346365809,0.0747005823276937
1783696647833475600,2.8584755859375,5.591929779973626,2.168982745711505,-0.02834280884377658
1783696647843439600,2.868439697265625,5.910331128245592,1.9597309234663842,-0.040742929276824
1783696647853402600,2.878402587890625,6.018983810666203,1.8143676360249519,-0.03134023709408939
1783696647863365600,2.88836572265625,5.742775590479374,1.8569132308095693,-0.23196780418306587
1783696647873328400,2.898328369140625,5.29876165715754,2.158980699396133,-0.6781435186486691
1783696647883291400,2.90829150390625,4.818267712700367,2.4982602927848694,-1.064052103678137
1783696647893254400,2.91825439453125,4.297295042860508,2.765807359871268,-1.1946826630204914
1783696647903217700,2.9282177734375,3.6406443210303783,2.8748300446480513,-1.1646573079172522
1783696647913180700,2.9381806640625,2.603165897631645,2.78714854632467,-0.921318434087932
1783696647923143700,2.948143798828125,1.0747504616945982,2.4321347927093506,-0.7337966514833271
1783696647933106400,2.9581064453125,-1.0179162293165922,1.6866151163369416,-0.764256087154895
1783696647943069400,2.9680693359375,-2.982958410933614,0.5956289746344089,-1.1150883173018693
1783696647953033500,2.978033447265625,-4.264626698967814,-0.6240121885538101,-1.4879711973458527
1783696647962996500,2.98799658203125,-4.636795877784491,-1.66841544277966,-2.039823135704547
1783696647972959500,2.99795947265625,-4.5256554702013725,-2.2726374737143513,-2.419172143022716
1783696647982922500,3.007922607421875,-4.921759066835046,-2.951375524190068,-1.6404291192233562
1783696647992885500,3.017885498046875,-5.6952416858881705,-3.8377912794619795,-0.18779190478287636
1783696648002848500,3.0278486328125,-5.413447774523497,-3.950541460329294,1.020757005700469
1783696648012811500,3.0378115234375,-3.971681278991699,-3.825726163136959,1.9842726595267652
1783696648022774500,3.0477744140625,-2.1801801392912865,-4.26728335095644,2.953100740547478
1783696648032737500,3.057737548828125,-0.6129875211924314,-4.724909045523405,3.518831420524418
1783696648042700500,3.067700439453125,-0.24157880535423754,-5.1877358158648015,3.65694079131484
1783696648052664600,3.07766455078125,-0.8851894283473491,-5.490940764048696,3.7155475863233205
1783696648062627600,3.087627685546875,-2.077366830548644,-5.153320336043834,3.6298435255527495
1783696648072590600,3.097590576171875,-3.09462313465178,-4.185155687367915,3.0040131816610693
1783696648082553600,3.1075537109375,-3.4452035819947717,-3.2422891460776326,1.7941966623947023
1783696648092516400,3.117516357421875,-3.694834176379442,-2.5358997030884027,0.6717175041891634
1783696648102479400,3.127479248046875,-4.119339691632986,-1.8363409829020498,-0.2895417672787793
1783696648112442400,3.1374423828125,-4.622111518871784,-1.0953992819696665,-1.067891462645307
1783696648122405600,3.147405517578125,-4.572129636606574,-0.4405544405177235,-1.33351654869318
1783696648132368600,3.15736865234375,-3.619370062333345,-0.1252154024258256,-1.2117898651659489
1783696648142331600,3.16733154296875,-1.7536258748143911,-0.10545797803252935,-1.008230847734958
1783696648152294700,3.177294677734375,0.43167233814299105,-0.05143208107352257,-0.9192125478498637
1783696648162258700,3.1872587890625,2.17724583940506,-0.11021364812701939,-0.6507697009675204
1783696648172221400,3.197221435546875,3.1772692691564557,-0.24023966570496558,-0.11427834028266369
1783696648182184400,3.207184326171875,3.6498008564323183,-0.11033815128952264,0.3360410498589277
1783696648192147500,3.2171474609375,3.964586936816573,0.24800445448756217,0.7319681939471513
1783696648202110500,3.2271103515625,4.220892771181464,0.5140002004787325,1.151528800144419
1783696648212073500,3.237073486328125,4.439065566506982,0.5276800585240126,1.445053262117505
1783696648222036500,3.247036376953125,4.739212296164036,0.4408864489510655,1.427880008998513
1783696648231999700,3.256999755859375,5.247368739050627,0.288576118850708,1.1772072120845316
1783696648241962500,3.26696240234375,5.889064468333125,0.034244799429178234,0.9269614084109663
1783696648251925500,3.276925537109375,6.380030706965923,-0.2726832609310746,0.8006004892118275
1783696648261888500,3.286888427734375,6.60698945081532,-0.4687774954393506,0.7506682182420045
1783696648271852500,3.2968525390625,6.685832101383805,-0.43600189177989956,0.8828236490640788
1783696648281815600,3.306815673828125,6.606092794236541,-0.21325696623325346,1.1265665005844085
1783696648291778600,3.316778564453125,6.300516440746188,0.11931962238550185,1.3590791522338985
1783696648301741600,3.326741455078125,5.683384074833989,0.5489417500004172,1.4974002660788595
1783696648311704600,3.33670458984375,4.799458382812142,1.0563435751274228,1.5001619858771562
1783696648321667300,3.346667236328125,3.9223464624583717,1.6825719784259796,1.333494044600427
1783696648331630600,3.356630615234375,3.0922336091667413,2.272517646726966,1.0535120049633084
1783696648341593600,3.366593505859375,2.3399328943520783,2.860380079013109,0.7313622639432549
1783696648351556600,3.376556640625,1.6673586272031067,3.3621216864213346,0.39289807859063147
1783696648361519600,3.38651953125,0.904350640413165,3.5222470741868017,0.24494579756930468
1783696648371482600,3.396482666015625,-0.09391454749405384,3.314502149373293,0.3655019029472023
1783696648381446700,3.40644677734375,-1.2226163796067238,2.928083495929837,0.4990560215860605
1783696648391409700,3.41640966796875,-2.548417239356041,2.4562793461456893,0.524879906411469
1783696648401372400,3.426372314453125,-3.8956571929752823,1.7227289245083928,0.6128851567965
1783696648411335400,3.43633544921875,-4.9296775848746295,0.5124591085165738,0.9183826728969812
1783696648421298400,3.44629833984375,-5.689868176156282,-1.2058204353675246,0.9612805882506072
1783696648431261400,3.456261474609375,-6.308723128077387,-2.886462614774704,0.4328481769893318
1783696648441224400,3.466224365234375,-7.1437167391479015,-3.920660116806626,-0.3378834628552198
1783696648451187700,3.476187744140625,-8.4650752325356,-4.512683760425448,-0.8569163968041539
1783696648461150700,3.486150634765625,-10.125700752091408,-5.074855286616087,-0.5681592953633516
1783696648471113500,3.496113525390625,-11.220655212903022,-5.2952562793850895,0.08043788387067616
1783696648481076500,3.506076416015625,-11.423781245744228,-4.909852940464019,0.9262107361741363
1783696648491040500,3.51604052734375,-11.247863537824154,-4.391020789784193,1.6936568515419959
1783696648501003500,3.52600341796875,-10.124702388703822,-3.953806599605083,1.6294281249985099
1783696648510966500,3.535966552734375,-8.468558982998132,-3.7081197744101284,0.978353668930754
1783696648520929500,3.545929443359375,-7.4464774506956335,-3.8587282690286635,0.7847012746166437
1783696648530892500,3.555892578125,-6.986012148788571,-3.9304333228021857,0.9316245779164135
1783696648540855600,3.56585546875,-6.485434616723656,-3.7487861313194033,1.0138863162133842
1783696648550818600,3.575818603515625,-5.791728129696845,-3.414684525090456,1.1736831296116113
1783696648560781600,3.585781494140625,-4.647020334678888,-2.7723084123283623,1.1286430145975201
1783696648570744600,3.59574462890625,-3.196198426032066,-1.9634809236496686,0.9154569947086274
1783696648580707600,3.60570751953125,-1.791213554930687,-1.3144172959476708,0.6762487178780138
1783696648590670600,3.615670654296875,-0.4861883567065,-0.6630348699092865,0.3138250533323735
1783696648600634600,3.625634521484375,0.6778636057287454,0.05469546678364277,-0.0756119250189513
1783696648610597600,3.63559765625,1.6444757642656564,0.8211439494162798,-0.36113296714797616
1783696648620560600,3.645560546875,2.4277011941760778,1.5642428283825516,-0.4916915207000449
1783696648630523400,3.6555234375,2.9625118352323767,2.292579022502899,-0.4941490333873778
1783696648640486400,3.665486328125,3.3160108003705737,2.934063154861331,-0.49168973060175775
1783696648650449400,3.675449462890625,3.55554027197957,3.399053532977402,-0.511560844502598
1783696648660412700,3.68541259765625,3.760086693012714,3.7312738555043934,-0.6264267023496329
1783696648670375700,3.695375732421875,3.9806566126078367,3.8276565466776487,-0.8795724652484059
1783696648680338700,3.705338623046875,4.240816199791431,3.820001940271258,-1.1927965570129453
1783696648690301400,3.715301513671875,4.5330578554123635,3.837061503882706,-1.3319006379291414
1783696648700264400,3.725264404296875,4.833709027460217,3.888028597792983,-1.3086062715813518
1783696648710228500,3.735228515625,5.112909999722242,3.949015858197212,-1.1682571590401232
1783696648720191500,3.74519140625,5.356757919052243,4.024330042378605,-0.8370568272106349
1783696648730154500,3.755154541015625,5.507665688878298,4.031706416365504,-0.3619510055325925
1783696648740117500,3.765117431640625,5.579597537145018,4.045836648526787,0.05396662278613075
1783696648750080500,3.77508056640625,5.526951988628507,4.07951387720108,0.28867903123591093
1783696648760043500,3.78504345703125,5.31666614716053,4.06508758470267,0.3207697213711217
1783696648770006500,3.795006591796875,5.1369619064390655,4.048151939731836,0.11727956792525947
1783696648779969500,3.804969482421875,5.040462603148818,4.0129438482284545,-0.13477376922746187
1783696648789932500,3.8149326171875,4.924897364860773,3.9091134713977573,-0.44064836587887257
1783696648799895600,3.8248955078125,4.661642734271288,3.7863100985497233,-0.811119837399572
1783696648809858600,3.834858642578125,4.391683637607097,3.6860417981147764,-1.1179323816213755
1783696648819822600,3.844822509765625,4.219937662413716,3.6096418645232915,-1.4278434763804078
1783696648829785600,3.85478564453125,4.1659179029345506,3.425660092613101,-1.7560722450532018
1783696648839748600,3.86474853515625,3.9827877794176336,3.2329134149670598,-1.8114321670949458
1783696648849711900,3.8747119140625,3.523152498593926,2.958043165385723,-1.437953074723482
1783696648859675000,3.8846748046875,2.5474890185952184,2.4867700537383555,-0.8062729088250548
1783696648869637600,3.8946376953125,1.1026309867888688,1.9194114802986382,-0.060680838503292756
1783696648879600600,3.9046005859375,-0.25356910287737844,1.2817150497853755,0.7177990910802036
1783696648889564000,3.91456396484375,-1.614414388000965,0.18781974263787268,1.3520013228021561
1783696648899527000,3.92452685546875,-2.886976994037628,-1.3002794650018215,1.2707124481253325
1783696648909490000,3.934489990234375,-3.98514457167685,-2.7890374288111923,0.5406028876569122
1783696648919453000,3.944452880859375,-5.47030597229898,-4.138617223554849,-0.22700866567203773
1783696648929416000,3.954416015625,-7.373731363436579,-5.394999094641208,-0.6963889310438186
1783696648939380000,3.9643798828125,-8.68066794824004,-6.127798990172147,-0.5917067596893757
1783696648949342700,3.9743427734375,-8.888694612604379,-6.563245586156845,0.12981047513112426
1783696648959305700,3.9843056640625,-8.307679854255914,-7.077599130117893,1.2048693451877683
1783696648969268700,3.994268798828125,-7.266167060774564,-7.154419334948062,1.599298359672725
1783696648979231700,4.004231689453125,-6.162970256796479,-6.791108585369587,1.2686357879817485
1783696648989194800,4.01419482421875,-5.61232550227046,-6.492119793576002,1.2223530524954198
1783696648999158000,4.024157958984375,-5.5150137135535475,-6.2509998379051686,1.6411834447219966
1783696649009121000,4.03412109375,-5.305682980853319,-5.648754660001397,1.8644985713720321
1783696649019083800,4.044083740234375,-4.55648783083856,-4.829958735015988,1.5037310765355825
1783696649029046800,4.054046875,-3.175260851943493,-3.9736253987967967,0.7444077696077526
1783696649039009800,4.064009765625,-1.5805694015443323,-3.178598471933603,-0.045900019779056306
1783696649048973800,4.073973876953125,-0.3010024697035551,-2.481537998303771,-0.5532321406707167
1783696649058936800,4.083936767578125,0.6074608667254447,-1.7313970918714998,-0.8564625155568122
1783696649068899800,4.09389990234375,1.2001344986855984,-0.8883511072486638,-1.0431013778470457
1783696649078862800,4.10386279296875,1.719270600748062,-0.026761750197410582,-1.295151746724546
1783696649088825900,4.113825927734375,2.3134113826513287,0.8358458439856767,-1.5574407471522689
1783696649098788900,4.123788818359375,2.8874814364284274,1.5906795844092965,-1.721219688989222
1783696649108752000,4.133751953125,3.3025311410725116,2.159017232014239,-1.7813658223941922
1783696649118715000,4.14371484375,3.6426486465901133,2.6292624619185925,-1.6047854127816854
1783696649128678000,4.153677978515625,3.8373762689203024,2.900401416017115,-1.3099156006142496
1783696649138641000,4.163640869140625,4.052736929434538,3.0550185617551207,-1.0308784406118094
1783696649148604000,4.17360400390625,4.296521720400452,3.0349872888565064,-0.8355622047387063
1783696649158566700,4.183566650390625,4.547012731006741,2.9508959239795804,-0.7028348923128098
1783696649168531000,4.193531005859375,4.823510289528966,2.805834542094171,-0.5325331976436078
1783696649178493700,4.20349365234375,5.1443146072894335,2.5553201506122947,-0.32180571335535496
1783696649188456700,4.213456787109375,5.498182405740022,2.235752681170404,-0.1789493307009339
1783696649198419700,4.223419677734375,5.938334402936697,1.8899930781126022,-0.1658820881286636
1783696649208382700,4.2333828125,6.243343185672163,1.571334540209174,-0.23654011706728487
1783696649218346000,4.243345947265625,6.346010363942384,1.3535314549788833,-0.3075853186925873
1783696649228309000,4.25330908203125,6.2487956058591605,1.319868547090888,-0.44749779338221995
1783696649238271700,4.263271728515625,6.136809979623556,1.3870841804906726,-0.7263229546017944
1783696649248234800,4.27323486328125,5.834342698064446,1.5797317816764116,-1.0734485853157938
1783696649258197800,4.28319775390625,5.365288431510329,1.9388933026209472,-1.383323658913374
1783696649268160800,4.293160888671875,4.976487266844511,2.598425425106287,-1.3804837593123316
1783696649278124800,4.303124755859375,4.535997415995597,3.240699246537685,-1.1696822964724152
1783696649288087800,4.313087890625,4.143849863511324,3.716660223740339,-0.8658303556218743
1783696649298050800,4.32305078125,3.7220997844457626,4.140185788045823,-0.5563959749964997
1783696649308013800,4.333013916015625,3.086152243426442,4.351164580214023,-0.22390096371397375
1783696649317976800,4.342976806640625,2.434200493067503,4.073119207727909,-0.12013842795509844
1783696649327939800,4.35293994140625,2.0083552536427973,3.220171422293782,-0.4684756994811818
1783696649337902800,4.36290283203125,1.3302964176028966,2.1288900970369578,-1.2479914977513253
1783696649347865900,4.372865966796875,0.26900223433077336,0.7086439439177513,-2.1846090616494416
1783696649357828900,4.382828857421875,-0.9263368467718363,-1.2919628875553608,-2.493262338367104
1783696649367791900,4.3927919921875,-2.2380285171478986,-3.08440276941061,-2.250342639797926
1783696649377755000,4.4027548828125,-3.8091596437394615,-3.7957694162905216,-2.417256226398796
1783696649387719000,4.412718994140625,-6.309013635456561,-4.041145860362053,-2.906762767742574
1783696649397681700,4.422681640625,-9.214253431415557,-4.70147497844398,-2.9580367356449364
1783696649407644700,4.432644775390625,-10.829169339197874,-5.164847107708454,-2.8396102627068758
1783696649417607700,4.442607666015625,-10.596209309107065,-5.5066907063663,-2.296702532173693
1783696649427571000,4.452571044921875,-9.4295457028687,-6.092383393397927,-0.7632217756710946
1783696649437534000,4.462533935546875,-8.425321898818016,-6.284126446959376,0.5732951969470829
1783696649447497000,4.4724970703125,-7.954769502660632,-6.0666831349521875,1.3503551630303263
1783696649457460000,4.4824599609375,-8.171184640663862,-5.779029976165294,1.8656433574929832
1783696649467422700,4.492422607421875,-8.728534445786476,-5.420071576577425,2.263839834752679
1783696649477385700,4.5023857421875,-9.235035522681475,-5.216749144381285,2.3463328245222566
1783696649487348700,4.5123486328125,-9.226080647331475,-4.982471601951122,1.7303205486811697
1783696649497311700,4.522311767578125,-8.018670020163059,-4.391306620988249,0.7243458093099295
1783696649507275800,4.53227587890625,-6.1497512942612165,-3.960703373381495,-0.21368618796337394
1783696649517238800,4.54223876953125,-4.175377805197239,-3.5889012743115423,-0.9678148123249412
1783696649527201800,4.552201904296875,-2.0210159977734086,-3.084800244295597,-1.3036407581284641
1783696649537164800,4.562164794921875,0.25318098034262654,-2.674443081381917,-1.2805755243614316
1783696649547127800,4.5721279296875,2.4098732765406368,-2.1969091557741165,-1.1747471055813132
1783696649557090800,4.5820908203125,4.226497167059779,-1.4620833073735235,-1.2423743885219096
1783696649567053800,4.5920537109375,5.550712218922376,-0.4482832812041044,-1.317232207237929
1783696649577016800,4.602016845703125,6.038917760670185,0.6758008279800415,-1.1793452470265329
1783696649586979800,4.611979736328125,5.8236447784394025,1.6078320870012044,-0.7389046421468257
1783696649596942800,4.62194287109375,5.280421698346734,2.405339724764228,-0.23869327651318162
1783696649606905900,4.63190576171875,4.367971338108181,3.0239588221028444,0.04078629349451512
1783696649616868600,4.64186865234375,3.3053830233722925,3.322627295900881,-0.10123327300958335
1783696649626832600,4.65183251953125,2.415730770397186,3.3134473796233532,-0.4827457419719547
1783696649636795600,4.661795654296875,1.989191118967533,3.137241794672608,-0.764476524972543
1783696649646759000,4.671759033203125,2.0358914953440426,2.8440599355921146,-1.0006995754472912
1783696649656722000,4.681721923828125,2.7764626093983646,2.6583614228919146,-1.1925254849866032
1783696649666685000,4.691684814453125,3.8974756405740973,2.473772040477395,-1.1635504426538943
1783696649676648000,4.70164794921875,4.894380061522126,2.205356373862922,-0.9133305040739477
1783696649686611000,4.71161083984375,5.757893080112337,1.9736913520187138,-0.7283549718860537
1783696649696573700,4.72157373046875,6.460244645887613,1.849129152804613,-0.6317592224840074
1783696649706536700,4.73153662109375,6.786428903120756,1.5437515367567538,-0.4708320168163627
1783696649716499700,4.741499755859375,6.594761252883076,1.4013754484325647,-0.16014285035692155
1783696649726462700,4.751462646484375,6.085739133077859,1.4681360315412282,0.24743052705712615
1783696649736426000,4.761426025390625,5.528824212241172,1.7076082200050353,0.4210170886158943
1783696649746389800,4.7713896484375,5.136289706265926,2.171150445139408,0.122257210207358
1783696649756353000,4.78135302734375,4.687405536559224,2.5460879196256396,-0.5426896308030933
1783696649766316000,4.79131591796875,3.6965795587420462,2.697391995292902,-1.1051156432114542
1783696649776278800,4.80127880859375,2.604792037528753,3.0948797397613523,-1.2107967624753713
1783696649786241800,4.81124169921875,1.7700445101737976,3.6358652700603007,-1.073857969834283
1783696649796204800,4.821204833984375,0.7175456277757882,3.955860025003552,-0.9176255709193646
1783696649806167800,4.831167724609375,-0.27124855195283887,3.923644101053476,-0.6790566149055958
1783696649816130800,4.841130859375,-0.9110492612689733,3.545354393529892,-0.35682401790767904
1783696649826093800,4.85109375,-1.681315840885043,2.7425194232642647,0.038896132366359235
1783696649836056800,4.861056884765625,-2.8450732042878863,1.3802958355247974,0.3516587440989911
1783696649846019000,4.87101904296875,-4.298848702043295,-0.49833413705229757,0.3474998708538711
1783696649855982000,4.880982177734375,-5.381108516454696,-2.482343469467759,-0.07381094001159072
1783696649865946000,4.890946044921875,-6.177715405985713,-4.013930521178246,-0.47790728896483775
1783696649875909000,4.9009091796875,-7.4406158651858565,-5.363684503445029,0.1737793807171285
1783696649885872000,4.9108720703125,-8.851517266854643,-6.759907975941896,1.8653078419283031
1783696649895835000,4.9208349609375,-9.50796632863283,-7.251608374068141,3.039291708052158
1783696649905798000,4.9307978515625,-10.306874480843543,-6.993872214639186,3.216510561698675
1783696649915761000,4.940760986328125,-11.138266852551698,-6.420054674318433,2.6514444831103083
1783696649925724000,4.950723876953125,-11.166091263544558,-5.649613907179236,1.823804157412052
1783696649935687200,4.960687255859375,-10.855747549521922,-5.0959880910158155,1.4386572774700819
1783696649945650200,4.970650146484375,-10.274175157290696,-4.509855259001255,1.377563341820985
1783696649955613200,4.98061328125,-9.023414048695564,-3.832432967299223,1.2892688261657952
1783696649965576000,4.990575927734375,-6.658439067545533,-3.3190561594158408,0.8986630962960421
1783696649975539000,5.0005390625,-3.4533050553858278,-3.024347821420431,0.2777922745078802
1783696649985503000,5.0105029296875,-0.27435645484030247,-2.6621459098666906,-0.23045067761838434
1783696649995466000,5.020466064453125,2.1858687063217164,-2.0853145746827124,-0.35309199177250267
1783696650005429000,5.030428955078125,3.905764745491743,-1.4198539389312266,-0.13315613229721784
1783696650015392000,5.04039208984375,5.004343826541304,-0.9285609525620937,0.26692820453569294
1783696650025355000,5.05035498046875,5.526568542268872,-0.6820595961138606,0.5937253329701722
1783696650035318000,5.060318115234375,5.507407330203056,-0.45869420058131216,0.7064315285652876
1783696650045281000,5.070281005859375,5.28639668110311,-0.13500292920768261,0.5373099105261266
1783696650055244000,5.080244140625,5.244525040057301,0.37228871354311704,0.04925239894688129
1783696650065207000,5.09020703125,5.62178072835803,1.191727612607181,-0.5841441424153745
1783696650075170000,5.100170166015625,6.51573447791934,1.7827762737140058,-1.110940111581236
1783696650085133000,5.110133056640625,7.280363343909382,1.8422604360789059,-1.2880410379365086
1783696650095096000,5.120095947265625,7.308763508963584,1.554889016842842,-1.1731241074893624
1783696650105060000,5.13006005859375,6.769600517916679,1.2819193401858209,-1.0329628456704318
1783696650115023000,5.140023193359375,6.120920336574316,1.1612480109304189,-1.0033803389638662
1783696650124985900,5.14998583984375,5.742680313411355,1.2337214187279344,-1.0960589879874139
1783696650134948900,5.159948974609375,5.8023927315741775,1.2668939127504826,-1.2948724913917482
1783696650144912100,5.169912109375,6.04702040310502,1.1873761393994091,-1.4408882513925432
1783696650154875100,5.179875244140625,6.222537713530659,1.2439414917081593,-1.3595130136065183
1783696650164838100,5.189838134765625,6.2262546882271765,1.501891293887794,-1.168908316425234
1783696650174801200,5.19980126953125,6.105524614521861,1.9263076695531605,-1.080338198699057
1783696650184764200,5.20976416015625,5.937905948391556,2.3873332356914876,-1.2662493312366305
1783696650194727000,5.219726806640625,5.659227538698912,2.84863791103214,-1.5245691357724367
1783696650204690000,5.22968994140625,5.0320799747288225,3.144752608694136,-1.7568274473346768
1783696650214653000,5.23965283203125,4.30628089787066,3.455941249108314,-1.8836586143940686
1783696650224617000,5.249616943359375,3.7530268376290796,3.9012902304261923,-1.9436394742347298
1783696650234580000,5.259580078125,3.348316156169772,4.46940254484266,-1.8907554407872258
1783696650244543000,5.26954296875,3.114514999079704,4.919889765831828,-1.76158691682145
1783696650254506000,5.279506103515625,2.8500603450506925,5.040112474536896,-1.541221287626773
1783696650264469200,5.28946923828125,2.348725857138634,4.749511571860313,-0.9766051447629928
1783696650274432000,5.299431884765625,1.3734253652334212,4.197392653128505,-0.17232099860236047
1783696650284395000,5.30939501953125,-0.08115560368597508,3.4137557198077437,0.22554098600596187
1783696650294981000,5.319981201171875,-1.8593524406552313,2.391998597154021,0.2205865784689784
1783696650304944000,5.329944091796875,-3.7726147506743666,1.138797109669447,0.09047332099899649
1783696650314907100,5.3399072265625,-5.267441805264354,-0.24851006592214106,-0.26169994849339123
1783696650324870100,5.3498701171875,-6.162171215373277,-1.7868664656370876,-0.9481782378323376
1783696650334833200,5.359833251953125,-7.380846163877845,-3.3969898784458636,-1.3322919753342866
1783696650344797200,5.369797119140625,-9.403605790448188,-5.007006908270716,-0.8069726545922458
1783696650354760000,5.379760009765625,-11.211197648727893,-5.6399839090466495,0.3502319261662662
1783696650364723000,5.389722900390625,-11.713715793466568,-5.176656787967682,1.755024635696411
1783696650374686000,5.39968603515625,-10.897593471604585,-5.060778830468655,3.146659026837349
1783696650384649000,5.40964892578125,-9.169403651341796,-5.426178076758981,3.406217140996456
1783696650394612000,5.419612060546875,-7.736673279702663,-5.732558147847652,2.7680045776546
1783696650404575200,5.4295751953125,-6.9755088749527925,-5.834556633076072,2.172540438193083
1783696650414538200,5.439538330078125,-6.614272593560814,-5.743128057178855,2.0371338966205714
1783696650424501000,5.4495009765625,-5.9965557057589285,-5.478710812550783,2.0197794417157766
1783696650434464000,5.459464111328125,-4.941349317967892,-5.068805485057831,1.6656852871634065
1783696650444427000,5.469427001953125,-3.3163176743626592,-4.529154418233037,1.0340099435705692
1783696650454390000,5.47939013671875,-1.4444272391736506,-3.8013603681653736,0.3333142552435398
1783696650464354000,5.48935400390625,0.33905835185348987,-2.9607185220748184,-0.17939652647916227
1783696650474317000,5.499317138671875,1.8058634270519016,-2.13819217838943,-0.39635600049216296
1783696650484280000,5.509280029296875,2.8768600891709326,-1.3241279581010341,-0.5601997511936352
1783696650494243000,5.5192431640625,3.562875437173247,-0.3757698336571455,-0.6572730915121734
1783696650504205800,5.529205810546875,3.9152234787106512,0.5835121281221508,-0.7134104276672005
1783696650514169000,5.539169189453125,4.035937770324945,1.3604028020530938,-0.5555641638148575
1783696650524132000,5.549132080078125,3.867011528727412,1.8157266494184732,-0.2475909052506089
1783696650534095000,5.55909521484375,3.6359792518287897,2.1625398531824347,-0.11714737464664503
1783696650544058000,5.56905810546875,3.434311601102352,2.549187054684758,-0.14895952183511108
1783696650554021000,5.579021240234375,3.2067122212618586,2.9700042368143795,-0.1439308800181374
1783696650563984100,5.588984130859375,3.0835277401417494,3.250511323238909,-0.11325462325811385
1783696650573947000,5.59894677734375,3.1347517314225435,3.279745893290639,-0.09941572045991197
1783696650583910000,5.608909912109375,3.212444627434015,3.307906988891959,-0.28580765878437087
1783696650593874000,5.6188740234375,3.3544261634826658,3.2714699401155114,-0.3792304955050349
1783696650603837000,5.6288369140625,3.552093930917978,3.136246061633527,-0.2886237391184084
1783696650613800000,5.638800048828125,3.8180262562841176,2.947707064810395,-0.10176409195065497
1783696650623763200,5.64876318359375,4.1343776862889525,2.790361955413222,0.03511259523965418
1783696650633726200,5.658726318359375,4.3923838948309415,2.7324039797022937,-0.0005122969036921858
1783696650644311000,5.66931103515625,4.635924940168858,2.7231168036580082,-0.17919742371048777
1783696650654274000,5.679274169921875,4.789648936459422,2.7212328896075486,-0.5025671349795535
1783696650664237000,5.689237060546875,5.015919698044657,2.784377912567556,-0.8448335986919701
1783696650674200000,5.699199951171875,5.137573900857568,2.8609198849782347,-1.081032391508296
1783696650684163000,5.7091630859375,5.1510395316302775,2.9240932572498917,-1.209217676590383
1783696650694126000,5.7191259765625,5.0597898194313045,3.0229280177503823,-1.2971952352508902
1783696650704090000,5.729090087890625,4.784854103398323,3.145078479647636,-1.2599934857122599
1783696650714053000,5.73905322265625,4.320316437485814,3.1040421203821897,-1.0882853583112357
1783696650724015900,5.749015869140625,3.8325136313199994,2.961502365928888,-0.8369587005984037
1783696650733979000,5.758978759765625,3.1006986551731823,2.5710131020456553,-0.5561918672591447
1783696650743942100,5.768942138671875,2.0156191071659326,1.8948188908338546,-0.03966032167188823
1783696650753905200,5.7789052734375,0.8019383136868476,0.9129922120302915,0.7629964424826204
1783696650763868200,5.7888681640625,-0.22507482979893684,-0.2645990309357643,1.640772525833547
1783696650773831200,5.7988310546875,-1.145825985392928,-1.2690531366109847,2.214033455184847
1783696650783794000,5.8087939453125,-2.0409967095285655,-1.9321745157599448,2.1431801959350705
1783696650793757000,5.8187568359375,-3.301802826797962,-2.5624890193283556,1.5458935172215102
1783696650803720000,5.828719970703125,-5.516712918686866,-3.7602614650577304,1.2057288846265524
1783696650813684000,5.83868408203125,-8.207520274892449,-5.017753343212604,1.08566458135359
1783696650823647000,5.84864697265625,-10.320129099214077,-5.459402300968766,1.1179797278944403
1783696650833610000,5.85860986328125,-11.612521025836466,-5.509430944985151,1.5590785774871707
1783696650843573000,5.868572998046875,-12.211616215276717,-5.818139751282334,2.2035712440118194
1783696650853536300,5.878536376953125,-12.22919863371849,-5.79160888723135,2.2288526925235987
1783696650863499300,5.888499267578125,-10.550984850502013,-5.958721941927075,2.534917706313729
1783696650873462300,5.898462158203125,-9.552515079933404,-6.031465106576681,2.308075574581325
1783696650883425300,5.90842529296875,-9.23914529608786,-5.906123739683628,2.2877891578778624
1783696650893388300,5.91838818359375,-8.809621075889467,-5.264774047359824,2.4201336815312504
1783696650903351300,5.928351318359375,-7.577484588265419,-4.525003728294372,2.3079000718839464
1783696650913314000,5.93831396484375,-5.682988353514671,-3.8136809205561875,1.8551281009584664
1783696650923277000,5.948277099609375,-3.7641672403246162,-3.156602913224697,1.44431194223091
1783696650933241000,5.958240966796875,-2.0302929446846245,-2.5044483337700365,1.1830007007941603
1783696650943204000,5.9682041015625,-0.30607378161847587,-1.844438364639878,0.970863240110129
1783696650953167000,5.9781669921875,1.501951207381487,-1.189064238616824,0.6407143170297146
1783696650963130000,5.988130126953125,3.206758398491144,-0.48722412949502464,0.215501895615831
1783696650973093400,5.99809326171875,4.5634290282785885,0.2339782672226429,-0.1986056328073144
1783696650983056400,6.008056396484375,5.432097529935836,0.9666770404666661,-0.5371418604828417
1783696650993019100,6.01801904296875,5.888298744657635,1.6754127543210982,-0.8215725500918925
1783696651002982100,6.027982177734375,5.892567508018017,2.254519633221626,-1.1523426738105713
1783696651012945200,6.037945068359375,5.458837652823329,2.596432789984345,-1.3032745551645755
1783696651022908200,6.047908203125,4.793425532388687,2.9255443328410387,-1.2139443397860974
1783696651032871200,6.05787109375,4.386933228209615,3.427317212170362,-1.2418233305104076
1783696651042835200,6.067835205078125,4.232364597788453,3.7177842593342065,-1.342311557306349
1783696651052798200,6.077798095703125,4.279140377488732,3.886695303362608,-1.3167635668128728
1783696651062761200,6.08776123046875,4.468251328980922,3.9953655214399095,-1.0362520964741706
1783696651072724200,6.09772412109375,4.722153024813532,3.9544384677678344,-0.5689906316209584
1783696651082687200,6.107687255859375,5.019384159284829,3.777841545411944,-0.09609355376726016
1783696651092650200,6.117650146484375,5.41810466041863,3.6267420524060725,0.18555572496233508
1783696651102613200,6.12761328125,5.872334867328405,3.5666380045771597,0.23184081680253146
1783696651112576300,6.137576171875,6.366624112904072,3.4424323637157674,0.1944086195088923
1783696651122539300,6.147539306640625,6.65849985782206,3.294181830400228,0.16681286617275326
1783696651132502300,6.157502197265625,6.43760786666572,3.1750247051000593,0.2983692351231351
1783696651142465000,6.167465087890625,5.635081523957848,2.913324318215251,0.44337227441743016
1783696651152428000,6.177427978515625,4.878394556882977,2.6357003860116004,0.4949915851587429
1783696651162392000,6.18739208984375,4.329162591764331,2.438100423115492,0.4851724941948429
1783696651172355000,6.19735498046875,3.9143057793438434,2.3104899422466754,0.36188060717750337
1783696651182318300,6.207318359375,3.2651953898906707,2.272681897377968,0.4431707604959607
1783696651192281300,6.21728125,2.4394307949364182,2.2006804910063744,0.6786805481348186
1783696651202244400,6.227244384765625,1.654720679426193,1.9949965903759002,1.099869266990572
1783696651212207400,6.237207275390625,0.9520902967095375,1.587099680095911,1.3746461392000318
1783696651222170000,6.247170166015625,-0.09316752851903438,0.7053454868942499,1.3979554108560084
1783696651232133000,6.257133056640625,-1.4780875167131422,-0.5315314732551575,1.3034540033847093
1783696651242096000,6.26709619140625,-2.570596922460198,-1.5450070897758006,0.8708648426577449
1783696651252059100,6.27705908203125,-3.287466842931509,-2.0683564256191254,-0.03089914226308465
1783696651262022100,6.287022216796875,-4.183441869187355,-2.4741923117160796,-1.083577253685519
1783696651271985400,6.2969853515625,-5.812630047950148,-3.4271301651656625,-1.48496894678995
1783696651281949200,6.30694921875,-7.537117506563663,-4.853571665793657,-0.9146339878879487
1783696651291912200,6.316912109375,-8.196337786620855,-5.54173454721868,-0.29034181334897874
1783696651301875200,6.326875244140625,-7.961089937853813,-5.175962375962734,0.3188600152922794
1783696651311838200,6.336838134765625,-7.2206883351475,-4.924266665741801,1.2905939372897148
1783696651321801200,6.34680126953125,-6.072897771683335,-4.745862986224889,2.1079002082392573
1783696651331764200,6.35676416015625,-5.00918191422224,-4.504969240525365,2.386634732033312
1783696651341727200,6.366727294921875,-4.609918392252922,-4.414147982871532,2.10519577158615
1783696651351690200,6.376690185546875,-5.185867683905363,-4.219817835426331,1.5263056041762233
1783696651361653000,6.386653076171875,-5.8730754565626375,-4.066035386946798,1.0354796507969497
1783696651371616000,6.396615966796875,-5.929519812840223,-4.2427334315896035,0.6997257473163306
1783696651381579300,6.406579345703125,-5.170758377578855,-4.122986523702741,0.2173366002297029
1783696651391543000,6.41654296875,-3.723133219146728,-3.4232062697201964,-0.34630605795942243
1783696651401506300,6.42650634765625,-2.155091290742159,-2.4982699373960493,-0.5378612607985734
1783696651411469300,6.43646923828125,-0.61787646227777,-1.4727899948269128,-0.4773095788000151
1783696651421432300,6.446432373046875,0.9335919324666261,-0.47510348359048366,-0.35134419825710356
1783696651431395300,6.456395263671875,2.2382541425973175,0.39565702190995217,-0.05516929484046995
1783696651441358000,6.466358154296875,3.0218975056588646,1.083650391986966,0.25260898914095015
1783696651451321000,6.476321044921875,3.442524718174338,1.663676723819971,0.28516954354392365
1783696651461284000,6.4862841796875,3.592674947631359,2.13349203787446,0.07113536412678659
1783696651471247000,6.4962470703125,3.5029748029619454,2.311167403116822,-0.37962709360718727
1783696651481210000,6.506210205078125,3.3129028974831103,2.292911615458131,-0.9266447436772286
1783696651491173400,6.51617333984375,3.2634885859727856,2.447829789969325,-1.3631602840676902
1783696651501136400,6.526136474609375,3.381542718467116,2.6887784807264805,-1.6196286155179143
1783696651511099100,6.53609912109375,3.6172768894463774,2.7452397881388664,-1.4040981513947248
1783696651521063200,6.546063232421875,3.854946996924281,2.7329437856674192,-0.8930877073165029
1783696651531026200,6.556026123046875,4.037100384363532,2.8750889878451824,-0.4168431639321148
1783696651540989200,6.5659892578125,4.237239510348439,3.0521763240665196,-0.08547335728723555
1783696651550952200,6.5759521484375,4.340314100375771,3.171549137943983,0.09245605578143148
1783696651560915200,6.585915283203125,4.442603677505255,3.2481565768063065,0.08614047942645847
1783696651570878200,6.595878173828125,4.723606146231293,3.3080805918931957,-0.11061711436137556
1783696651580841200,6.60584130859375,5.162819401273131,3.3173265591442584,-0.5267891740988939
1783696651590804200,6.61580419921875,5.6237377076447,3.330529155066609,-1.0043472842998802
1783696651600767200,6.625767333984375,6.032873219808936,3.415819666600227,-1.419478383617103
1783696651610730200,6.635730224609375,6.338977981087565,3.6299849798500534,-1.6872256494507192
1783696651620693200,6.645693359375,6.44092853552103,3.8797412464410064,-1.7018816590517758
1783696651630657300,6.6556572265625,6.249698692178725,3.9920203026652334,-1.5022148267537354
1783696651640620300,6.665620361328125,5.77512186281085,4.070332207357883,-1.26108873360306
1783696651650583300,6.675583251953125,5.183780940759181,4.167798894375562,-1.0453799903035164
1783696651660546300,6.68554638671875,4.467451703035831,4.243860974314809,-0.835200312623754
1783696651670509000,6.695509033203125,3.7647055849850175,4.020717989361286,-0.540796218271926
1783696651680472000,6.70547216796875,2.5428712956666946,3.522599540886283,-0.16081643876954912
1783696651690435000,6.71543505859375,0.5060772985249757,2.838866750863194,0.15965426312237976
1783696651700398000,6.725398193359375,-1.6732453471541404,1.8926812942832707,0.2330886249065399
1783696651710361300,6.735361328125,-3.373575685110688,0.3772726394355297,0.3063903002217412
1783696651720324400,6.745324462890625,-4.539558323347568,-1.5823334886074065,0.3704680009219795
1783696651730287400,6.755287353515625,-5.108865692767501,-3.2713311161667105,0.19366591138280928
1783696651740250000,6.76525,-5.791165819638967,-4.619724331474304,-0.05539908500835299
1783696651750214100,6.775214111328125,-7.1296887983173125,-6.256864346024393,0.3759251703493297
1783696651760177200,6.78517724609375,-8.285484973582625,-7.614349799326062,1.1568612472135573
1783696651770140200,6.79514013671875,-8.771432507270575,-8.082173062780498,1.8232199277833103
1783696651780103200,6.805103271484375,-8.689820391988754,-8.176922892054915,2.4056300860129296
1783696651790066200,6.815066162109375,-7.648449637326598,-7.991752787142992,2.54370920779556
1783696651800029200,6.825029296875,-6.410318293201923,-7.463816708031296,2.3785684760861097
1783696651809992200,6.8349921875,-6.189608088353276,-6.802800192207098,2.858778196774423
1783696651819955200,6.844955078125,-6.893236834457516,-6.011842122218012,4.040457293576002
1783696651829918200,6.854918212890625,-7.685747979107498,-5.430234658673405,4.8746661840096115
1783696651839881200,6.864881103515625,-7.746416675081849,-4.8406473022907965,4.431882669265568
1783696651849844000,6.874843994140625,-6.94369685562849,-4.08275914273262,2.909015222844481
1783696651859807000,6.884806884765625,-5.424819063365459,-3.478354740968346,1.3001213518306611
1783696651869770000,6.89477001953125,-3.4645138471424577,-3.251533944284916,0.25144590017832813
1783696651879734000,6.904734130859375,-1.4354741173893213,-2.9619618001341816,-0.47692806866914034
1783696651889697000,6.914697021484375,0.703304920977354,-2.3553993435531853,-0.9600333646684884
1783696651899660000,6.924659912109375,2.4543285043388603,-1.645483480003476,-1.0654149164639413
1783696651909623000,6.934623046875,3.59423912820816,-0.8373825520336627,-1.0185490473274141
1783696651919586000,6.9445859375,4.133457648834586,0.26668343599438665,-1.014598044679314
1783696651929549000,6.954549072265625,4.161069878381491,1.3532868325680494,-1.1299391918879003
1783696651939512000,6.964511962890625,3.637752106720209,2.191926691186428,-1.3996940712168813
1783696651949475000,6.97447509765625,2.816645566704869,2.6780989735409615,-1.7264321629405022
1783696651959438000,6.98443798828125,2.1969214307338,2.917992017765343,-1.9464073315128683
1783696651969401000,6.994401123046875,1.8043419165730474,3.0564976943969726,-2.007116067236662
1783696651979363800,7.00436376953125,1.789087064296007,3.17315891122818,-1.9321834297187626
1783696651989326800,7.014326904296875,2.226876424014568,3.322677272522449,-1.8541805909752844
1783696651999291000,7.024290771484375,2.932544566991925,3.4138264469563957,-1.7736339129678904
1783696652009254000,7.03425390625,3.639154959255457,3.437135426351428,-1.5823752819225192
1783696652019217000,7.044216796875,4.2536581457078455,3.4786464173913,-1.3613577646903694
1783696652029180200,7.05418017578125,4.777763268354535,3.492413953720033,-1.1323432573549448
1783696652039143200,7.06414306640625,5.146121948972344,3.4535672134533524,-0.9758888131871819
1783696652049106200,7.074106201171875,5.400565496596694,3.4729029053032394,-0.8527204064190387
1783696652059069000,7.08406884765625,5.596040722423791,3.4712118834763763,-0.8037729087028652
1783696652069032000,7.094031982421875,5.800157519868016,3.3689813430577513,-0.8345412641931325
1783696652078995000,7.103994873046875,6.026033144655823,3.219427325928211,-0.8900552808180451
1783696652088958000,7.1139580078125,6.259473067218065,3.088094025143981,-0.9066703155323862
1783696652098921000,7.1239208984375,6.29874066324532,3.0352608451008796,-0.9277404299594462
1783696652108884200,7.13388427734375,6.074159754443168,3.1105384966641663,-0.9379840299457312
1783696652118847200,7.14384716796875,5.532355893498659,3.133422528645396,-0.7746747514471412
1783696652128811000,7.15381103515625,4.760684707781672,2.970060935437679,-0.17904650746509432
1783696652138774000,7.16377392578125,3.7577544506728646,2.346315873387456,0.625811200799793
1783696652148737000,7.173737060546875,2.480496964818239,1.4156354444533585,1.4100392318814992
1783696652158700000,7.183699951171875,0.9217536106348038,0.5555559074431657,1.8497152821294962
1783696652168663000,7.1936630859375,-0.683526453796029,0.047424598997831344,1.460167244619131
1783696652178626000,7.2036259765625,-2.2246756990998984,-0.5830266826927661,0.7159136426597833
1783696652188589000,7.213589111328125,-3.7044758649498224,-1.7222095768094061,0.1191025455687195
1783696652198552000,7.223552001953125,-4.988115160796046,-2.7847943844139573,-0.16279373019188642
1783696652208514800,7.233514892578125,-5.751190367603302,-3.373663363394141,-0.4145664511717856
1783696652218478000,7.24347802734375,-6.829362620440125,-4.396987004712224,0.3181697314731777
1783696652228441000,7.253441162109375,-7.920971277955174,-5.325251604676247,1.756933538057655
1783696652238404000,7.263404052734375,-7.910286217811703,-5.5618210574358695,2.85467163823843
1783696652248367000,7.2733671875,-7.20418260602653,-6.066411332273483,4.2531157093942165
1783696652258331100,7.2833310546875,-6.281031403553485,-6.5998612063705915,5.615321761476993
1783696652268294100,7.293294189453125,-5.242411993426084,-6.264460792502761,6.103469435557723
1783696652278257200,7.303257080078125,-4.537219651266932,-5.889589953511953,6.040718088090419
1783696652288220000,7.313219970703125,-4.274101214277744,-5.63159134375453,5.5428252650648355
1783696652298183000,7.323182861328125,-4.260862962520123,-5.073362417709827,4.589464802289009
1783696652308146000,7.33314599609375,-4.515184929591417,-4.252358169025182,3.343342751671374
1783696652318109000,7.34310888671875,-4.7838422960072755,-3.3107787449359893,2.281306810121238
1783696652328072200,7.353072265625,-4.979247963729501,-2.2010276970088483,1.5612535834386945
1783696652338035200,7.36303515625,-5.079464241716265,-0.9471773902267218,0.9688238432370125
1783696652347998200,7.372998291015625,-4.863907181847095,0.21881635392606258,0.48625605164784935
1783696652357961000,7.3829609375,-4.0021389610975975,1.0374807614862918,0.21797993963453918
1783696652367924000,7.392924072265625,-2.509751700875163,1.5081412941932677,0.12340707436222582
1783696652377888000,7.402887939453125,-0.6482716005414724,1.8739193106681107,-0.11298496687072329
1783696652387851000,7.41285107421875,1.136344455820322,2.3289432983040808,-0.5640556229041889
1783696652397814000,7.42281396484375,2.5910510969460008,2.6203695458889005,-1.0247215984825044
1783696652407777000,7.432777099609375,3.7816760090082884,2.7933716586232182,-1.5464333231866358
1783696652417740000,7.442739990234375,4.649300554570555,2.800812037757039,-2.1167741273075342
1783696652427703000,7.452703125,5.101595994025469,2.770613298848271,-2.510110012793541
1783696652437666000,7.462666015625,5.328678071993589,3.1120863106280563,-2.7431816865652796
1783696652447629000,7.472629150390625,5.293678070282936,3.578524257203936,-2.7182854379788037
1783696652457592000,7.482592041015625,4.984335642257332,3.987939170831442,-2.458221712385118
1783696652467555000,7.49255517578125,4.773261865282058,4.216871260580421,-2.059113965499401
1783696652477518000,7.50251806640625,4.750594106400013,4.225263241350651,-1.6950779703862964
1783696652487481000,7.512481201171875,4.936311323800683,4.029602722084522,-1.4428027067117393
1783696652497444000,7.522444091796875,5.221933269020915,3.676148180609941,-1.2433292050287126
1783696652507406800,7.53240673828125,5.454075552988052,3.3695290400683877,-1.1376610183116047
1783696652517371000,7.542370849609375,5.760843746611475,3.202472683995962,-1.1238270656831562
1783696652527334000,7.552333984375,6.109129361015558,2.9991233637928962,-1.176682603688538
1783696652537297000,7.562296875,6.210161047038436,2.828550524032116,-1.386333654384315
1783696652547260200,7.57226025390625,5.8329714097112415,2.46514625095129,-1.1737542951516806
1783696652557223200,7.58222314453125,5.32168251401782,1.970349055853486,-0.5671408025031909
1783696652567186200,7.592186279296875,4.715661324706673,1.764215657889843,0.16303411481902003
1783696652577149200,7.602149169921875,4.504076675599813,1.6707459315538404,0.42252851609215136
1783696652587112000,7.61211181640625,4.759732521623373,1.6425491801172494,-0.011719663888216018
1783696652597075000,7.622074951171875,4.657939203578233,1.9998539672791957,-0.4489276435222476
1783696652607038000,7.632037841796875,3.6633775463640688,2.5902520555227992,-0.8114389132861047
1783696652617001000,7.6420009765625,1.8548598054111003,2.626795779544115,-0.6662190529033541
1783696652626964000,7.6519638671875,0.022052257332205772,1.9074241053849457,0.13205460079610348
1783696652636928000,7.661927978515625,-1.2738052995741367,0.7905109107434749,0.9054208999931812
1783696652646891000,7.67189111328125,-2.133831645092368,-0.4046007913440466,1.6423729467675088
1783696652656854300,7.681854248046875,-2.473654551577568,-1.4527116679161787,2.2914285372935232
1783696652666817000,7.691817138671875,-2.422341128447652,-2.172373849454522,2.6427935591429472
1783696652676780000,7.701780029296875,-2.7398247773528097,-2.929651768159866,2.631713069941103
1783696652686743000,7.711742919921875,-3.660312898096442,-4.05780531874001,2.324868742341548
1783696652696706000,7.7217060546875,-5.66215891597569,-5.660388983693719,1.9485757615931332
1783696652706669000,7.7316689453125,-7.679824434277415,-6.557594428527355,1.375007373727858
1783696652716632000,7.741632080078125,-8.869379671281576,-6.423420935881137,1.2587550299584864
1783696652726594800,7.7515947265625,-9.023395928516983,-6.651994713711738,1.9778958179712294
1783696652736558000,7.76155810546875,-7.765155277821421,-7.471858560189604,3.47426367226243
1783696652746521000,7.77152099609375,-6.08409721108973,-7.8115990490883584,4.235676498815417
1783696652756484000,7.781484130859375,-4.787520692259073,-7.582412107795476,3.796831784825027
1783696652766448000,7.7914482421875,-4.251712272337079,-7.246917001381516,3.4152322221010922
1783696652776411100,7.8014111328125,-4.422219061124324,-6.5975576056033365,3.364754665273428
1783696652786374100,7.8113740234375,-4.994458976864815,-5.459700991654396,3.287318666632473
1783696652796337200,7.821337158203125,-5.7230035530388355,-4.177418371114134,2.6361794017001987
1783696652806300000,7.8312998046875,-6.147850429075956,-3.020522710174322,1.5251742620587347
1783696652816263000,7.841262939453125,-6.003409224915504,-2.08356626971066,0.3758856785891577
1783696652826226000,7.851225830078125,-5.332753943130373,-1.3125024022370577,-0.3823690127264708
1783696652836189000,7.86118896484375,-4.228121553391218,-0.589879032805562,-0.554540885181725
1783696652846152200,7.871152099609375,-2.800793333056569,0.20002865134775638,-0.5450367784511297
1783696652856115200,7.881115234375,-1.4325152675837278,1.016748939102888,-0.5980235050881281
1783696652866078200,7.891078125,-0.13628127858042716,1.5798703133642673,-0.6909772812586278
1783696652876041200,7.901041259765625,1.1405360622912644,2.0951170067727563,-0.7399845463380217
1783696652886004200,7.911004150390625,2.2868898709505796,2.462792965823412,-0.6833041893474757
1783696652895968300,7.92096826171875,3.1419559637129306,2.6805343839943405,-0.5741988312559202
1783696652905931300,7.93093115234375,3.6621781074464317,2.8477099825322627,-0.4875254505291581
1783696652915894300,7.940894287109375,3.913028599014878,3.0864918506443497,-0.45458957827407864
1783696652925857000,7.95085693359375,3.9836797598212956,3.424713751673698,-0.501508858098276
1783696652935820000,7.960820068359375,3.9636476101398466,3.7187224169671533,-0.4891542573073879
1783696652945783000,7.970782958984375,3.870047535422444,3.8153503150731325,-0.4170123830191791
1783696652955746000,7.98074609375,3.84608973672986,3.688677407315373,-0.3603389672260731
1783696652965709300,7.990709228515625,4.083264169645309,3.531037698885798,-0.1552434974754229
1783696652975672300,8.00067236328125,4.533835269525647,3.350985083118081,0.02102200096901506
1783696652985635300,8.01063525390625,4.997587922540307,3.246659616246819,0.09873612243160605
1783696652995598000,8.02059814453125,5.505889911377429,3.185415166211128,-0.06037851738873869
1783696653005561000,8.03056103515625,5.947979014116525,3.151626878377795,-0.32539975579194724
1783696653015524000,8.040524169921875,6.228623170924187,3.2184809849888083,-0.6225958920150995
1783696653025487000,8.050487060546875,6.449372538739443,3.3880770886719227,-1.0164375350661574
1783696653035451100,8.060451171875,6.59027796998918,3.6558641019940374,-1.3321288937270641
1783696653045414100,8.0704140625,6.518142123582959,3.962367507201433,-1.476649446734041
1783696653055377200,8.080377197265625,6.374554905903339,4.266823332229256,-1.5195650438748298
1783696653065340200,8.090340087890626,6.216912274864316,4.550400035357475,-1.583196973568946
1783696653075303200,8.10030322265625,5.921242398360371,4.767485035446286,-1.7673184462107716
1783696653085266200,8.11026611328125,5.5960927448719735,5.047626503428816,-1.9729569002643226
1783696653095229200,8.120229248046876,5.194751247584819,5.305146974280476,-2.048784440795332
1783696653105192200,8.130192138671875,4.792650456362963,5.456418316721916,-1.993101424279064
1783696653115155200,8.1401552734375,4.421694160467386,5.167720617318153,-1.7522772366844117
1783696653125118200,8.1501181640625,3.996853714171052,3.9753824715971944,-1.0194790947191417
1783696653135081000,8.1600810546875,3.3333617481440303,2.095903188714385,0.14854498621746898
1783696653145044000,8.1700439453125,2.0002274767667054,-0.13145546585917472,0.9212326555006205
1783696653155007200,8.18000732421875,0.27757307879924775,-2.2014836240828037,0.7729368217386305
1783696653164971000,8.189970947265625,-1.8484212967962026,-3.4190321989059447,-0.10372224028110504
1783696653174934300,8.199934326171874,-4.114070811319351,-3.9062481450945135,-1.4322234450303017
1783696653184897300,8.209897216796875,-5.926643965142965,-4.031634520173073,-1.8713425920478999
1783696653194860300,8.2198603515625,-7.246504913449287,-4.423802530923486,-0.5639597247816622
1783696653204823300,8.2298232421875,-8.34672299387753,-5.759543185406923,2.3640716025695205
1783696653214786000,8.2397861328125,-9.278799845606088,-7.096628824758529,5.044438521042466
1783696653224749000,8.2497490234375,-9.790674432232976,-7.059356786462664,5.561233612936735
1783696653234712000,8.259712158203126,-10.103640895974635,-5.819074986305832,4.3714983431905505
1783696653244675000,8.269675048828125,-10.674068793857098,-4.979494631966948,3.7282331726342437
1783696653254638000,8.27963818359375,-11.315394520783423,-5.271472083693743,3.89834774723351
1783696653264601300,8.289601318359376,-11.118052916562556,-6.076721129363775,3.703237847587466
1783696653274564400,8.299564453125,-9.850202726000546,-6.716357588028908,3.094661713096499
1783696653284527000,8.309527099609374,-7.9610443451464175,-7.006924003913999,2.0398627370625735
1783696653294491100,8.3194912109375,-5.697283420848846,-6.6639920254975555,0.7050393435545266
1783696653304454100,8.3294541015625,-3.471934352532029,-5.891507769832015,-0.4011645332850516
1783696653314417200,8.339417236328124,-1.441063900220394,-4.894997901159525,-0.9929819868072867
1783696653324380200,8.349380126953125,0.21377952880263326,-3.555380697503686,-1.0148806610129772
1783696653334343200,8.35934326171875,1.5114567023515701,-2.0678332785278557,-0.5868855500780046
1783696653344306200,8.36930615234375,2.561843707162142,-0.5109539646506309,-0.14208221994414924
1783696653354269200,8.379269287109375,3.455932481279969,0.9904016149252652,0.09415946216583251
1783696653364232000,8.38923193359375,4.086962439641356,2.3360656975299117,0.21180355255454777
1783696653374195200,8.3991953125,4.343402129518985,3.3526994858205317,0.2860276764769107
1783696653384158200,8.409158203125,4.328073627483844,4.053886099469661,0.1531444428369403
1783696653394121200,8.419121337890624,4.193109861242771,4.419973912546038,-0.30968978015854953
1783696653404084200,8.429084228515626,3.969333254560828,4.433236714223027,-0.8763512381795793
1783696653414047200,8.439047119140625,3.8736522819161414,4.333124188871682,-1.5215899738311767
1783696653424010200,8.44901025390625,3.9256969419300556,4.459026989039779,-1.9902923582077026
1783696653433974300,8.458974365234376,4.006287312948704,4.707711534745991,-2.1989877156138418
1783696653443937000,8.46893701171875,4.1157296844422815,4.897677934023737,-2.22368858775869
1783696653453900000,8.478900146484374,4.17151411550641,4.8948602462545034,-2.1672437930896877
1783696653463863000,8.488863037109375,4.1767075924962755,4.723035360606015,-2.0090493733868002
1783696653473826000,8.498825927734375,4.179813157296181,4.5331087088167665,-1.6568270040556787
1783696653483789300,8.508789306640624,4.171763121831416,4.288387806044518,-1.2577709873571992
1783696653493752300,8.51875244140625,4.155062162399291,4.015495870798826,-0.9084770726934075
1783696653503715300,8.52871533203125,4.075017734825611,3.8667441099628803,-0.7172945756241679
1783696653513678000,8.538677978515626,4.13501656871438,3.8512440507531163,-0.6966434172615409
1783696653523641000,8.54864111328125,4.367202691823244,3.8580905556470153,-0.8016063052535056
1783696653533604000,8.55860400390625,4.651967143431306,3.8144571656256914,-0.9673224987633525
1783696653543567000,8.568567138671876,4.767873157981038,3.6794296864986418,-1.0922777889482675
1783696653553530000,8.578530029296875,4.7655742333889,3.415128177204728,-1.0543097312122582
1783696653563493400,8.588493408203124,4.585237539982796,2.854585713520646,-0.6780883543953299
1783696653573457200,8.59845703125,4.0882185771822925,1.8359540294110774,-0.007881547030061484
1783696653583420200,8.608420166015625,3.3681033911794422,0.7520499549239873,0.6335588923171163
1783696653593383200,8.618383056640624,2.5267759009122845,-0.20124913305342196,1.0858229137204587
1783696653603346200,8.62834619140625,1.698707120668888,-0.9832342075139283,1.3386153331369162
1783696653613309200,8.63830908203125,1.2070891401290893,-1.8452338989317416,1.2711854724645615
1783696653623272200,8.648272216796874,0.5119184257686138,-3.336613443416357,1.0893907622698693
1783696653633235200,8.658235107421875,-1.1234931575536726,-5.3374231039851905,0.508581682561338
1783696653643198200,8.6681982421875,-4.011749670007824,-6.9472706224620335,-0.1169112460695207
1783696653653161000,8.678160888671876,-7.5382187458038326,-7.225735681664943,-0.6221092775419355
1783696653663124000,8.6881240234375,-10.50809614136815,-6.551537028184533,-0.41624874170292164
1783696653673087200,8.698087158203125,-12.377068643283843,-5.925908636605739,0.9335366951480507
1783696653683050200,8.70805029296875,-12.513811694157123,-5.923666410636901,2.5743203268975017
1783696653693013200,8.71801318359375,-10.93988363032341,-6.065423490279913,3.5649560428395866
1783696653702977300,8.727977294921875,-9.047865183863044,-6.248263690939545,3.546961536465585
1783696653712940300,8.737940185546876,-7.987147923696041,-6.72935267868042,2.9029116452723738
1783696653722903300,8.7479033203125,-7.398164378425479,-7.08959644190371,1.8761917856447397
1783696653732866000,8.757865966796874,-7.116169976052642,-6.984900388154387,1.0475869257632642
1783696653742829000,8.7678291015625,-6.785141201397776,-6.326910526674985,0.3498193998426199
1783696653752792000,8.7777919921875,-6.110135323187708,-5.225263874748349,-0.5518112410221249
1783696653762755000,8.787755126953124,-5.135497094583511,-3.976147610750794,-1.444023919069767
1783696653772718000,8.797718017578125,-3.6890012324422594,-2.742185076743364,-1.9803115008108316
1783696653782681300,8.807681396484375,-1.8355805199235677,-1.7011702959120272,-2.0804117512024938
1783696653792644400,8.817644287109376,-0.17010113059580326,-0.8765279829859733,-1.5062546036638318
1783696653802607000,8.827607177734375,0.8630413094252347,-0.07370850255042315,-0.5809742802076041
1783696653812570000,8.837570068359375,1.4049971460610626,0.7772326192364096,-0.09288272022828459
1783696653822533000,8.847533203125,1.8103899645656347,1.6658029221937058,-0.24373802921473978
1783696653832496000,8.85749609375,2.018684339955449,2.33717891946882,-0.7919706080324947
1783696653842459100,8.867459228515624,2.172158745399117,2.5889699067577716,-1.3148138940498233
1783696653852423700,8.877423583984376,2.385391161713004,2.673318753527105,-1.7222746048696338
1783696653862386700,8.88738671875,2.8259254362255333,2.8233593851298093,-2.105625833566487
1783696653872349700,8.897349609375,3.581704640805721,3.1725659137710926,-2.2626260750487446
1783696653882312700,8.907312744140626,4.568599708914756,3.4978809869542715,-2.19706083920449
1783696653892275500,8.917275390625,5.64643527714312,3.5893320669442415,-2.1013820585168896
1783696653902238700,8.92723876953125,6.7590265169322485,3.675723817718029,-2.254127565164119
1783696653912201700,8.93720166015625,7.581227281925082,3.7381776435434815,-2.3328046499073505
1783696653922164700,8.947164794921875,7.954395408651232,3.7777982907921075,-2.130323636971414
1783696653932127700,8.957127685546874,7.978996181422471,3.917210268613696,-1.8457564615011215
1783696653942090800,8.9670908203125,7.834114247757196,4.08936131747663,-1.5270776114620268
1783696653952053500,8.977053466796875,7.480173968592285,4.0971465645253655,-1.1959215571656823
1783696653962016500,8.9870166015625,7.089221763372421,3.9223464624583717,-0.9753731918152421
1783696653971979500,8.9969794921875,6.46608694217503,3.768240773373842,-0.9346017670962959
1783696653981942500,9.006942626953125,5.957316751304268,3.615396482527256,-1.0048132943764327
1783696653991906600,9.016906494140626,5.568788558360934,3.6125229729175565,-0.8837264431226998
1783696654001869600,9.02686962890625,5.045501181837916,3.748395086175203,-0.6428704721502959
1783696654011832800,9.036832763671875,4.237626463839412,3.9018005180358886,-0.49660585195496676
1783696654021795800,9.0467958984375,3.3607898532956835,4.0425498819410794,-0.48414969048574563
1783696654031758600,9.056758544921875,2.5983739871799942,3.9266087960779665,-0.4245126025814563
1783696654041721600,9.0667216796875,1.8203168998181818,3.359144424176216,-0.25335582545287905
1783696654051684600,9.0766845703125,1.01070264467597,2.402579027879238,0.20007249048948286
1783696654061647600,9.086647705078125,0.46966976810395716,1.1498533412128686,0.8622066121667623
1783696654071610600,9.096610595703124,0.1624298653155565,-0.3695575350135565,1.5364755544044078
1783696654081573600,9.10657373046875,-0.01712882945537567,-1.898658030605316,1.9468296485781669
1783696654091536600,9.11653662109375,-0.2780237451761961,-3.143265877267718,1.8453680467054248
1783696654101499600,9.126499755859374,-1.0926140351653097,-4.390378984749317,1.5385542603746056
1783696654111462700,9.136462646484375,-2.6812363947838542,-5.926084577694535,1.3482289646565913
1783696654121425700,9.14642578125,-4.853935822930932,-7.394303611344099,1.408187466534972
1783696654131389700,9.1563896484375,-6.849106016308069,-8.04391785866618,1.655365260940045
1783696654141352700,9.166352783203125,-8.223990348178148,-7.629219451677799,2.054365017406642
1783696654151315700,9.176315673828125,-8.93752031057179,-6.937872679519653,2.866799298405647
1783696654161278700,9.18627880859375,-8.713359088486433,-6.402372887155413,3.5856963407903906
1783696654171241700,9.19624169921875,-7.8472174749583,-6.026223698791862,3.7266505796179175
1783696654181204500,9.20620458984375,-7.2343947889387605,-5.7789399597942825,3.530217614674568
1783696654191167500,9.21616748046875,-7.358214645352959,-5.631432353800535,3.22736484092921
1783696654201130800,9.226130859375,-7.672365934965014,-5.214446128135919,2.6439208096072075
1783696654211093800,9.23609375,-7.598760600528121,-4.50999554425478,1.5405436806261539
1783696654221056800,9.246056884765625,-7.00749741988778,-3.93381945810914,0.09239540250222199
1783696654231019800,9.256019775390625,-6.029889820083976,-3.659494567450881,-1.2141293409641831
1783696654240982800,9.265982666015624,-4.599050961279869,-3.3588971714168787,-2.253409626153111
1783696654250945500,9.275945556640625,-2.8752000470042227,-2.8834722007870672,-2.92211932682842
1783696654260908500,9.285908447265625,-0.988152959215641,-2.259333170983195,-3.165633191898465
1783696654270872600,9.29587255859375,0.8246990115493535,-1.5755132871985436,-2.993412877191603
1783696654280835600,9.305835693359375,2.4557021307796236,-0.8196575102508068,-2.7458587968200443
1783696654290798600,9.315798583984375,3.7050866903245447,0.05616787742376327,-2.3789998532406984
1783696654308856800,9.33385693359375,4.852345338869094,2.1033120036661623,-1.1494850193571298
1783696654318819800,9.34381982421875,5.087234291195869,2.822581971016526,-0.9239046511888503
1783696654328782600,9.353782470703125,5.223738272616267,3.1809219464451073,-1.165819337433949
1783696654338745600,9.36374560546875,5.19613071924448,3.2760382709443565,-1.6922762108385563
1783696654348709600,9.373709716796874,4.953764562904834,3.3493343933016058,-2.1785076760344206
1783696654358672600,9.383672607421875,4.6522886304706335,3.4792046357959507,-2.412872166095674
1783696654368635600,9.3936357421875,4.325577719014883,3.6511996173143384,-2.283283517021686
1783696654378598700,9.4035986328125,3.8643104530751704,3.9653222653537985,-2.01170266437456
1783696654388561700,9.413561767578125,3.4883477271944283,4.315960580363869,-1.6854301443360744
1783696654398524700,9.423524658203124,3.304768106344342,4.585144601002336,-1.2445531938657164
1783696654408487700,9.43348779296875,3.442625840461254,4.7771191252321,-0.9527923074990511
1783696654418450700,9.44345068359375,3.9073172356307504,4.890746673455834,-0.7915749597784131
1783696654428413700,9.45341357421875,4.557942705821991,4.811549218100309,-0.688979385439679
1783696654438376700,9.463376708984375,5.0458366974025965,4.529012963935733,-0.5414537323325872
1783696654448339700,9.473339599609375,5.281732780945301,4.23451505382061,-0.4266331018667668
1783696654458302700,9.483302734375,5.450463207709789,4.109339106622338,-0.5194314317472278
1783696654468265700,9.493265625,5.53097349922955,3.9845191332548855,-0.8605765998121351
1783696654478228500,9.503228515625,5.435868280646204,3.783517252960801,-1.2702283178701996
1783696654488192500,9.513192626953124,5.0804140897870065,3.3537551323533057,-1.5375664183810351
1783696654498155500,9.523155517578125,4.4697710858941075,2.7467349951326847,-1.400890295264125
1783696654508118500,9.533118408203125,3.6376276035577058,2.160589303636551,-0.9545140897903591
1783696654518081800,9.543081787109376,2.6049270620852707,1.5776473766177892,-0.33896219800263644
1783696654528044800,9.553044921875,1.2617799307376145,0.9172387635588646,0.41822891920208927
1783696654538007800,9.5630078125,-0.32505086928904053,0.12457973487079142,1.1375050240322946
1783696654547970800,9.572970703125,-2.0191437741607428,-0.830688607352972,1.789057545940578
1783696654557933600,9.58293359375,-3.5681752971470355,-1.9018541962981224,2.2202434157408772
1783696654567896600,9.592896484375,-4.635221760335565,-2.843539418849349,1.9285864281401037
1783696654577859600,9.602859619140625,-5.035303612950444,-3.8048593161970374,1.3972941704683004
1783696654587822600,9.612822509765625,-6.221338859134912,-5.565472565680742,1.8137505270399152
1783696654597785600,9.62278564453125,-7.778608049112558,-6.877703165239096,2.580135150656104
1783696654608370400,9.633370361328126,-8.479085053187609,-6.754684103813767,2.884614356559515
1783696654618334700,9.643334716796875,-8.173832524824142,-6.616168782570957,3.050518035465479
1783696654628297500,9.65329736328125,-7.344731478923559,-6.97944972153306,3.1538521532118318
1783696654638260500,9.663260498046874,-6.453923626172542,-7.125942013004422,2.989019318407774
1783696654648223700,9.6732236328125,-5.970327624046802,-6.917714857631921,2.7768118612274524
1783696654658186800,9.683186767578125,-6.129194828444719,-6.349354998195171,3.0153090671792624
1783696654668149800,9.693149658203126,-6.310995164662599,-5.624401724511385,3.1809383130580184
1783696654678112800,9.70311279296875,-5.917927574723959,-4.813610826805234,2.8202760321617126
1783696654688075500,9.713075439453124,-5.129919586712122,-4.079809060755371,2.3289704785719514
1783696654698038500,9.72303857421875,-4.018773285034299,-3.1968115894943474,1.6044763468325136
1783696654708001500,9.73300146484375,-2.4963100354999304,-2.3953192660093308,0.7972862500973046
1783696654717964500,9.742964599609374,-1.2179425425767898,-2.0066069486707447,0.09107523241490124
1783696654727927800,9.752927734375,-0.41130291933119295,-1.4228957908451556,-0.5873989064276218
1783696654737890800,9.762890869140625,0.2580114692389965,-0.5305582443088293,-1.0255988927736879
1783696654747853800,9.772853759765624,0.9998328756153583,0.2866284919142723,-1.0802250937134026
1783696654757817900,9.78281787109375,1.7842641741842031,0.9134054690062999,-1.0281691816531122
1783696654767780600,9.792780517578125,2.4756530319184065,1.556259720674157,-1.0128339576162397
1783696654777743600,9.80274365234375,2.6424516138374803,2.22582837626636,-1.0989290635310114
1783696654787706600,9.81270654296875,2.321565463012457,2.7560698097109793,-1.2318087169744074
1783696654797669600,9.822669677734375,1.9398042799860238,3.241899269977212,-1.362046623737365
1783696654807632600,9.832632568359376,1.780979745686054,3.5728748531401155,-1.3061634084738791
1783696654817595600,9.842595703125,2.0335154138624665,3.814751764658093,-1.2981157110966741
1783696654827558700,9.85255859375,2.6931232319325207,4.111488978132606,-1.463444074332714
1783696654837521700,9.862521728515626,3.554550091898441,4.336189129400253,-1.5276172712966798
1783696654847484200,9.872484130859375,4.399721982634067,4.522282194375991,-1.420962338564545
1783696654857447200,9.882447265625,5.043584534561634,4.6825312085211275,-1.1921987372502685
1783696654867410200,9.89241015625,5.414532647150755,4.6651171323835845,-0.8863938357010483
1783696654877373200,9.902373291015625,5.587157743266225,4.5960172926723954,-0.6620119566023349
1783696654887336200,9.912336181640624,5.696673179996013,4.482181654655933,-0.6336540232546627
1783696654897299000,9.922298828125,5.772925229549408,4.336854899832606,-0.6629032063536345
1783696654907263200,9.93226318359375,5.600125945910811,4.14478919018805,-0.5553928258359432
1783696654917226000,9.94222607421875,5.337197478535771,3.9223061304479834,-0.3868941620007157
1783696654927189000,9.95218896484375,5.118538360998034,3.7311861772209403,-0.3882537599161267
1783696654937152300,9.96215234375,5.0664866867214435,3.4851246734946963,-0.6741260266356169
1783696654947115300,9.972115234375,5.079692789775133,3.3050662125080823,-1.02845267476961
1783696654957078300,9.982078369140625,4.882109193491935,3.053591451561451,-1.3051925176151096
1783696654967041300,9.992041259765625,4.236662587243318,2.566041158851981,-1.511009981497377
1783696654977004000,10.002004150390626,3.261142315107584,2.0540958450764415,-1.4611207459516822
1783696654986967000,10.011967041015625,2.6026637933284045,1.4379612580299377,-1.298654201887548
1783696654996930000,10.021929931640624,1.9738748918920754,0.7021990055620669,-1.2439096352651715
1783696655006893000,10.03189306640625,1.5078969640433788,0.05193067824542522,-1.0565047570385038
1783696655016856300,10.041856201171875,1.1682558438658714,-0.10165653992295265,0.008391980770230293
1783696655026819300,10.0518193359375,-0.21733108380436897,-0.7165361584722996,1.5392521795108913
1783696655036782300,10.0617822265625,-1.3548574428856373,-1.51557875071764,1.7739451708741485
1783696655046746400,10.071746337890625,-2.022999280545115,-1.9606401472657917,1.0997104231670498
1783696655056709000,10.081709228515624,-3.2551258312970397,-2.7874089508265256,0.9725352649755775
