time,seconds_elapsed,z,y,x
1783696634460663000,0.0576630859375,-0.5310261249542236,-0.4074140191078186,1.4971778392791748
1783696634470626000,0.0676259765625,-0.671549916267395,-0.22696585953235626,1.6652272939682007
1783696634480589000,0.077589111328125,-0.7354218363761902,-0.027668733149766922,1.8744220733642578
1783696634490552000,0.087552001953125,-0.7344393730163574,-0.0802541971206665,2.0490188598632812
1783696634500515300,0.097515380859375,-0.7788947224617004,-0.5644975304603577,2.0760412216186523
1783696634510478300,0.107478271484375,-0.838102400302887,-1.4055652618408203,1.9083439111709595
1783696634520441000,0.117441162109375,-0.839444100856781,-2.3086812496185303,1.5142452716827393
1783696634530405000,0.127405029296875,-0.6788858771324158,-2.7328693866729736,0.9243932366371155
1783696634540368100,0.1373681640625,-0.391501784324646,-2.322507381439209,0.26331302523612976
1783696634550331100,0.1473310546875,-0.06294916570186615,-1.2455259561538696,-0.31354469060897827
1783696634560294100,0.157294189453125,0.22728745639324188,-0.05958601459860802,-0.7616745233535767
1783696634570257200,0.167257080078125,0.4140026569366455,0.7933201789855957,-1.1264697313308716
1783696634580220200,0.17722021484375,0.5700743198394775,1.158508539199829,-1.377524495124817
1783696634590183200,0.18718310546875,0.7461336851119995,0.9857832193374634,-1.546074628829956
1783696634600146200,0.197146240234375,0.954712986946106,0.32231947779655457,-1.6921007633209229
1783696634610110000,0.20710986328125,1.1785484552383423,-0.6303998231887817,-1.8315590620040894
1783696634620073000,0.217072998046875,1.3440252542495728,-1.423179268836975,-1.9239259958267212
1783696634630036200,0.2270361328125,1.3644624948501587,-1.8062098026275635,-1.902580738067627
1783696634639999200,0.236999267578125,1.31106698513031,-1.8901361227035522,-1.7633087635040283
1783696634649962200,0.246962158203125,1.2631148099899292,-1.847335696220398,-1.5792032480239868
1783696634659925200,0.25692529296875,1.2212756872177124,-1.781355619430542,-1.397228717803955
1783696634669888300,0.26688818359375,1.1984071731567383,-1.701041579246521,-1.246362328529358
1783696634679852300,0.276852294921875,1.2049977779388428,-1.5167065858840942,-1.089160442352295
1783696634689815000,0.28681494140625,1.2135847806930542,-1.2433719635009766,-0.9241905212402344
1783696634699778000,0.296778076171875,1.1963567733764648,-1.009777545928955,-0.7972578406333923
1783696634709741000,0.306740966796875,1.128814458847046,-0.873265266418457,-0.7234883904457092
1783696634719704000,0.3167041015625,1.0146095752716064,-0.8407408595085144,-0.7161239385604858
1783696634729667000,0.3266669921875,0.8703663945198059,-0.8965626955032349,-0.7736517786979675
1783696634739630300,0.33663037109375,0.7114337682723999,-0.9621320962905884,-0.8910412192344666
1783696634749593300,0.34659326171875,0.5564179420471191,-0.9593402743339539,-1.0351879596710205
1783696634759557000,0.35655712890625,0.4280884265899658,-0.8317199945449829,-1.1622129678726196
1783696634769520000,0.36652001953125,0.3330673277378082,-0.5528147220611572,-1.248720407485962
1783696634779483100,0.376483154296875,0.26920151710510254,-0.17877934873104095,-1.257660150527954
1783696634789446100,0.386446044921875,0.22839118540287018,0.200407937169075,-1.1628409624099731
1783696634799409200,0.3964091796875,0.19905433058738708,0.5242635011672974,-0.9551413059234619
1783696634809372200,0.4063720703125,0.18953479826450348,0.7289635539054871,-0.6888148188591003
1783696634819335200,0.416335205078125,0.17928455770015717,0.7589425444602966,-0.4034735858440399
1783696634829298700,0.426298583984375,0.1306389570236206,0.6640937924385071,-0.13983727991580963
1783696634839262700,0.4362626953125,0.07013033330440521,0.5321221351623535,0.08372124284505844
1783696634849225700,0.446225830078125,0.03642412647604942,0.43661653995513916,0.23606258630752563
1783696634859188500,0.4561884765625,0.029334524646401405,0.38900506496429443,0.31840673089027405
1783696634869151500,0.4661513671875,0.03488428518176079,0.3623015582561493,0.31664183735847473
1783696634879114800,0.47611474609375,0.03707733750343323,0.3882453739643097,0.273855596780777
1783696634889077800,0.486077880859375,0.031171882525086403,0.4742133915424347,0.24248889088630676
1783696634899040800,0.496040771484375,0.027647454291582108,0.590991199016571,0.26991918683052063
1783696634909003800,0.506003662109375,0.04385846108198166,0.6922115683555603,0.38204890489578247
1783696634918967800,0.5159677734375,0.06376798450946808,0.7166476845741272,0.5823982357978821
1783696634928930800,0.525930908203125,0.05071587860584259,0.6353386044502258,0.8187978863716125
1783696634938893600,0.5358935546875,0.03482293337583542,0.4872756004333496,1.050176739692688
1783696634948856600,0.545856689453125,0.033273983746767044,0.3027390241622925,1.2695930004119873
1783696634958819600,0.555819580078125,0.055697001516819,0.05853596329689026,1.4803396463394165
1783696634968782600,0.565782470703125,0.08272624760866165,-0.24283327162265778,1.6340999603271484
1783696634978745600,0.57574560546875,0.11804775148630142,-0.46024733781814575,1.6640764474868774
1783696634988709600,0.585709716796875,0.17321424186229706,-0.4408718943595886,1.5033401250839233
1783696634998672600,0.595672607421875,0.29860493540763855,-0.17933376133441925,1.1723798513412476
1783696635008635600,0.6056357421875,0.4768865704536438,0.18263818323612213,0.8035632967948914
1783696635018598700,0.6155986328125,0.6277956366539001,0.36926931142807007,0.4938097298145294
1783696635028561700,0.625561767578125,0.6390296220779419,0.39186495542526245,0.346857488155365
1783696635038524700,0.635524658203125,0.5110077857971191,0.4898096024990082,0.4693719446659088
1783696635048487700,0.64548779296875,0.28018447756767273,0.7635869383811951,0.744659423828125
1783696635058450700,0.65545068359375,0.023327931761741638,1.1216825246810913,0.9656141996383667
1783696635068414700,0.665414794921875,-0.0935324877500534,1.4452587366104126,1.0258090496063232
1783696635078377700,0.675377685546875,-0.06391946971416473,1.5771420001983643,0.8549177050590515
1783696635088340700,0.6853408203125,-0.054006341844797134,1.3929431438446045,0.4542921185493469
1783696635098303500,0.695303466796875,-0.09475776553153992,0.9542030692100525,-0.09460560232400894
1783696635108266500,0.7052666015625,-0.07020001113414764,0.3122541010379791,-0.7146407961845398
1783696635118229500,0.7152294921875,0.07401655614376068,-0.3584177494049072,-1.3407055139541626
1783696635128192800,0.72519287109375,0.2560114860534668,-0.786074161529541,-1.8639074563980103
1783696635138155800,0.73515576171875,0.35208553075790405,-0.8398732542991638,-2.1802616119384766
1783696635148119800,0.745119873046875,0.38888803124427795,-0.6309174299240112,-2.243072748184204
1783696635158082800,0.755082763671875,0.4026254117488861,-0.31482815742492676,-2.0627267360687256
1783696635168045800,0.7650458984375,0.373125821352005,-0.11425314843654633,-1.7327218055725098
1783696635178008600,0.775008544921875,0.3196159899234772,-0.2090664803981781,-1.368443250656128
1783696635187971600,0.7849716796875,0.2731655240058899,-0.6371927857398987,-1.0660594701766968
1783696635197934600,0.7949345703125,0.24458128213882446,-1.276983380317688,-0.8617501258850098
1783696635207897600,0.804897705078125,0.24652329087257385,-1.9736039638519287,-0.761069118976593
1783696635217860600,0.814860595703125,0.26991304755210876,-2.5158350467681885,-0.751125693321228
1783696635227824600,0.82482470703125,0.323644757270813,-2.6960251331329346,-0.7420878410339355
1783696635237787600,0.83478759765625,0.4313288927078247,-2.47859263420105,-0.6985867023468018
1783696635247750700,0.844750732421875,0.5555156469345093,-1.9697704315185547,-0.641994297504425
1783696635257713700,0.854713623046875,0.6208900809288025,-1.301474690437317,-0.5596626400947571
1783696635267676700,0.8646767578125,0.5983160734176636,-0.610927402973175,-0.4541165232658386
1783696635277639700,0.8746396484375,0.48886922001838684,-0.04413057491183281,-0.3179573714733124
1783696635287602700,0.884602783203125,0.3222280442714691,0.26226210594177246,-0.17560981214046478
1783696635297565700,0.894565673828125,0.1699082851409912,0.29537293314933777,-0.03088964708149433
1783696635307529700,0.90452978515625,0.012754256837069988,0.2164923995733261,0.11950784921646118
1783696635317492700,0.91449267578125,-0.15413831174373627,0.21755899488925934,0.2981550991535187
1783696635327455700,0.924455810546875,-0.31237325072288513,0.3153631091117859,0.48402342200279236
1783696635337418500,0.93441845703125,-0.41530337929725647,0.42797911167144775,0.6033897399902344
1783696635347381500,0.944381591796875,-0.4603692293167114,0.5576899647712708,0.6631773114204407
1783696635357344500,0.954344482421875,-0.46658530831336975,0.7047353386878967,0.7239605188369751
1783696635367307800,0.964307861328125,-0.46402016282081604,0.8715311288833618,0.8043087720870972
1783696635377270800,0.974270751953125,-0.45812177658081055,1.028195858001709,0.8935563564300537
1783696635387234600,0.984234619140625,-0.46142762899398804,1.1556028127670288,0.9852436184883118
1783696635397197800,0.99419775390625,-0.49753662943840027,1.231801152229309,1.0826900005340576
1783696635407160800,1.004160888671875,-0.5653429627418518,1.2321712970733643,1.1751269102096558
1783696635417123600,1.01412353515625,-0.6395573019981384,1.1493009328842163,1.2589213848114014
1783696635427086600,1.024086669921875,-0.7070925235748291,0.9899229407310486,1.2924792766571045
1783696635437049600,1.034049560546875,-0.7315562963485718,0.7798413634300232,1.2661962509155273
1783696635447012600,1.0440126953125,-0.6901822686195374,0.6258531212806702,1.1939127445220947
1783696635456975600,1.0539755859375,-0.6048181056976318,0.6322228908538818,1.1163649559020996
1783696635466938600,1.063938720703125,-0.4835139811038971,0.8218116760253906,1.1155213117599487
1783696635476902700,1.073902587890625,-0.3526550531387329,1.0690215826034546,1.1978955268859863
1783696635486865700,1.08386572265625,-0.268270879983902,1.3082937002182007,1.3007798194885254
1783696635496828700,1.09382861328125,-0.2922832667827606,1.4656987190246582,1.3639649152755737
1783696635506791700,1.103791748046875,-0.40280190110206604,1.442941427230835,1.3574371337890625
1783696635516754700,1.113754638671875,-0.4911040663719177,1.3491547107696533,1.3727627992630005
1783696635526717700,1.1237177734375,-0.4908253848552704,1.3079453706741333,1.4549264907836914
1783696635536680700,1.1336806640625,-0.3791444003582001,1.3570239543914795,1.5893460512161255
1783696635546643700,1.143643798828125,-0.1962091326713562,1.4476487636566162,1.6973131895065308
1783696635556607700,1.153607666015625,0.016273578628897667,1.4764716625213623,1.7172083854675293
1783696635566570800,1.16357080078125,0.20781069993972778,1.521078109741211,1.6033626794815063
1783696635576533500,1.173533447265625,0.3847021162509918,1.5958654880523682,1.3834697008132935
1783696635586496500,1.18349658203125,0.5029208660125732,1.4615669250488281,1.0243364572525024
1783696635596459500,1.19345947265625,0.5746067762374878,1.089126467704773,0.5496179461479187
1783696635606422800,1.2034228515625,0.6267794966697693,0.6868659257888794,0.021633747965097427
1783696635616385800,1.2133857421875,0.6435137391090393,0.38638603687286377,-0.5061214566230774
1783696635626348800,1.223348876953125,0.64100182056427,0.21349872648715973,-0.9732775092124939
1783696635636311800,1.233311767578125,0.669394850730896,0.14672449231147766,-1.3456430435180664
1783696635646275800,1.24327587890625,0.8145336508750916,0.15366634726524353,-1.6033910512924194
1783696635656238600,1.253238525390625,1.0525070428848267,0.17762893438339233,-1.7144737243652344
1783696635666201600,1.26320166015625,1.2922847270965576,0.19960203766822815,-1.654859185218811
1783696635676164600,1.27316455078125,1.4567921161651611,0.22941213846206665,-1.4301480054855347
1783696635686127600,1.283127685546875,1.5061237812042236,0.25455912947654724,-1.0953569412231445
1783696635696090600,1.293090576171875,1.4564622640609741,0.2568739652633667,-0.7508589029312134
1783696635706053600,1.3030537109375,1.3042412996292114,0.19986176490783691,-0.5150614380836487
1783696635716017000,1.313016845703125,1.0580248832702637,0.07487881928682327,-0.39956602454185486
1783696635725979600,1.322979736328125,0.7587774991989136,-0.1114083081483841,-0.4097168445587158
1783696635735943700,1.332943603515625,0.4924778938293457,-0.3289302587509155,-0.49134379625320435
1783696635745906700,1.34290673828125,0.32379069924354553,-0.4551834464073181,-0.5854321718215942
1783696635755869700,1.35286962890625,0.26646268367767334,-0.429637610912323,-0.643731951713562
1783696635765832700,1.362832763671875,0.2835199534893036,-0.2548067569732666,-0.6456291079521179
1783696635775795700,1.372795654296875,0.329962819814682,0.0018255694303661585,-0.5716211795806885
1783696635785758700,1.3827587890625,0.38579124212265015,0.2944878041744232,-0.3943162262439728
1783696635795721700,1.3927216796875,0.4052472412586212,0.573677122592926,-0.14276282489299774
1783696635805684500,1.4026845703125,0.3663664162158966,0.7739881873130798,0.1413782685995102
1783696635815648500,1.4126484375,0.2776392102241516,0.8537642359733582,0.4295317828655243
1783696635825611500,1.422611572265625,0.15918773412704468,0.8319739699363708,0.6961281299591064
1783696635835574300,1.43257421875,0.04242544621229172,0.7618585228919983,0.9292471408843994
1783696635845537500,1.44253759765625,-0.03468532860279083,0.6523257493972778,1.1324493885040283
1783696635855500500,1.45250048828125,-0.07551185041666031,0.5234780311584473,1.3270103931427002
1783696635865463600,1.462463623046875,-0.1264716535806656,0.37927624583244324,1.4703936576843262
1783696635875426300,1.47242626953125,-0.1911981850862503,0.23138931393623352,1.540120005607605
1783696635885389300,1.482389404296875,-0.2677353322505951,0.1303521990776062,1.543448805809021
1783696635895352300,1.492352294921875,-0.3395884931087494,0.11557672917842865,1.4913305044174194
1783696635905316400,1.50231640625,-0.3956353962421417,0.12944774329662323,1.3985456228256226
1783696635915279400,1.512279296875,-0.45939570665359497,0.13177135586738586,1.2779041528701782
1783696635925242400,1.522242431640625,-0.5941793322563171,0.07459655404090881,1.1182862520217896
1783696635935205400,1.532205322265625,-0.7701144218444824,-0.04184404015541077,0.8892977237701416
1783696635945168400,1.54216845703125,-0.9424703121185303,-0.025998655706644058,0.6228645443916321
1783696635955131400,1.55213134765625,-1.079312801361084,0.27483388781547546,0.38967418670654297
1783696635965094400,1.562094482421875,-1.1294236183166504,0.7847759127616882,0.2595513164997101
1783696635975057400,1.572057373046875,-1.0576910972595215,1.2715845108032227,0.22143615782260895
1783696635985020400,1.5820205078125,-0.889905571937561,1.3780938386917114,0.20203521847724915
1783696635994984400,1.591984375,-0.7010810375213623,1.0208083391189575,0.1600313037633896
1783696636004947500,1.601947509765625,-0.5276439189910889,0.3722813129425049,0.13618803024291992
1783696636014910500,1.611910400390625,-0.3834289312362671,-0.18867816030979156,0.20047301054000854
1783696636024873500,1.62187353515625,-0.25710123777389526,-0.3998020887374878,0.3902595341205597
1783696636034836200,1.631836181640625,-0.18896879255771637,-0.32071632146835327,0.633929431438446
1783696636044799200,1.64179931640625,-0.24111142754554749,-0.12517032027244568,0.7913649082183838
1783696636054762200,1.65176220703125,-0.2667723298072815,-0.02530445158481598,0.7957407236099243
1783696636064725500,1.6617255859375,-0.19804908335208893,-0.13924247026443481,0.6424197554588318
1783696636074688500,1.6716884765625,-0.025761732831597328,-0.20958426594734192,0.4389914870262146
1783696636084652500,1.681652587890625,0.253299742937088,-0.10725758224725723,0.3100756108760834
1783696636094615600,1.691615478515625,0.5232636332511902,-0.11045737564563751,0.19865453243255615
1783696636104578600,1.70157861328125,0.6818053722381592,-0.30234771966934204,0.06333672255277634
1783696636114541300,1.711541259765625,0.7120634317398071,-0.565133273601532,-0.06414560228586197
1783696636124504300,1.72150439453125,0.6203953623771667,-0.817997932434082,-0.20258282124996185
1783696636134467300,1.73146728515625,0.3987056016921997,-1.0671350955963135,-0.43647417426109314
1783696636144430300,1.741430419921875,0.06643678992986679,-1.3495852947235107,-0.8211303949356079
1783696636154393300,1.751393310546875,-0.2614952623844147,-1.5751981735229492,-1.3211849927902222
1783696636164356400,1.7613564453125,-0.4470054507255554,-1.5259027481079102,-1.8401612043380737
1783696636174320400,1.7713203125,-0.5077505707740784,-1.1296899318695068,-2.256457805633545
1783696636184283400,1.781283447265625,-0.44552841782569885,-0.5675365328788757,-2.5456483364105225
1783696636194246400,1.791246337890625,-0.3292343020439148,-0.05607721954584122,-2.672261953353882
1783696636204209400,1.80120947265625,-0.2630503475666046,0.22627489268779755,-2.6303162574768066
1783696636214172400,1.81117236328125,-0.2601701319217682,0.18132340908050537,-2.4856717586517334
1783696636224135400,1.821135498046875,-0.2610134184360504,-0.08724579215049744,-2.283511161804199
1783696636234098400,1.831098388671875,-0.24207542836666107,-0.40007826685905457,-2.0462584495544434
1783696636244061400,1.8410615234375,-0.19746944308280945,-0.6625968217849731,-1.8059018850326538
1783696636254024400,1.8510244140625,-0.12302450090646744,-0.7809346914291382,-1.5535868406295776
1783696636263988500,1.860988525390625,-0.02151338756084442,-0.7634912133216858,-1.2459362745285034
1783696636273951200,1.870951171875,0.08562451601028442,-0.7017724514007568,-0.9138853549957275
1783696636283914200,1.880914306640625,0.19429214298725128,-0.6203612089157104,-0.5716084837913513
1783696636293877200,1.890877197265625,0.3110203444957733,-0.42991140484809875,-0.21075677871704102
1783696636303840500,1.900840576171875,0.42756685614585876,-0.17026136815547943,0.12799525260925293
1783696636313803500,1.910803466796875,0.5162307024002075,0.1139059066772461,0.4099302589893341
1783696636323766500,1.9207666015625,0.5415731072425842,0.35909005999565125,0.632601261138916
1783696636333729500,1.9307294921875,0.5187457799911499,0.5163907408714294,0.8141995072364807
1783696636343693600,1.940693603515625,0.47127988934516907,0.5282873511314392,0.9387180805206299
1783696636353656300,1.95065625,0.41482511162757874,0.387205570936203,1.0059629678726196
1783696636363619300,1.960619384765625,0.3279114067554474,0.1843729019165039,0.9874170422554016
1783696636373582300,1.970582275390625,0.21402236819267273,0.05647246539592743,0.9022800326347351
1783696636383545300,1.98054541015625,0.10111522674560547,0.07503820955753326,0.7824267745018005
1783696636393508400,1.99050830078125,0.005854493007063866,0.16175232827663422,0.6467461585998535
1783696636403471400,2.000471435546875,-0.05302903801202774,0.28599777817726135,0.5459563136100769
1783696636413434600,2.0104345703125,-0.09622763842344284,0.4340064227581024,0.5200096368789673
1783696636423397400,2.0203974609375,-0.1661265641450882,0.48998501896858215,0.5523180365562439
1783696636433360400,2.0303603515625,-0.24538277089595795,0.4420851469039917,0.6354720592498779
1783696636443324400,2.040324462890625,-0.3097376525402069,0.37912794947624207,0.7415373921394348
1783696636453287400,2.050287353515625,-0.3383796811103821,0.3869619071483612,0.8523989319801331
1783696636463250400,2.06025048828125,-0.30616140365600586,0.4517861306667328,0.9602422118186951
1783696636473213400,2.07021337890625,-0.21349965035915375,0.38489019870758057,1.0069626569747925
1783696636483176400,2.080176513671875,-0.0808369591832161,0.10640966147184372,0.9443824887275696
1783696636493139500,2.090139404296875,0.033729299902915955,-0.312056303024292,0.7517589926719666
1783696636503102200,2.100102294921875,0.09082108736038208,-0.76567143201828,0.4418796896934509
1783696636513065200,2.110065185546875,0.12461047619581223,-0.9611589312553406,0.08801162987947464
1783696636523029200,2.120029296875,0.1936699002981186,-0.6463772058486938,-0.16781766712665558
1783696636532992300,2.1299921875,0.2632271349430084,0.012863819487392902,-0.27176031470298767
1783696636542955500,2.13995556640625,0.27993419766426086,0.6785054802894592,-0.24487009644508362
1783696636552918500,2.14991845703125,0.3312559723854065,0.9635905027389526,-0.1704709678888321
1783696636562881500,2.159881591796875,0.40242356061935425,0.6534879803657532,-0.0730791687965393
1783696636572844500,2.169844482421875,0.37943756580352783,0.14604498445987701,0.03204059228301048
1783696636582807300,2.179807373046875,0.2719847857952118,-0.23563776910305023,0.10718018561601639
1783696636592770300,2.189770263671875,0.13749118149280548,-0.7067509293556213,0.012963669374585152
1783696636602733300,2.1997333984375,0.0184251070022583,-1.1458498239517212,-0.21996209025382996
1783696636612696300,2.2096962890625,-0.025011582300066948,-1.4365339279174805,-0.5261569619178772
1783696636622660400,2.219660400390625,-0.06768724322319031,-1.5867468118667603,-0.8381050229072571
1783696636632623400,2.229623291015625,-0.15810342133045197,-1.6165478229522705,-1.1648820638656616
1783696636642586400,2.23958642578125,-0.27014923095703125,-1.4834482669830322,-1.4941309690475464
1783696636652549600,2.249549560546875,-0.346824049949646,-1.0625241994857788,-1.7191628217697144
1783696636662512400,2.259512451171875,-0.36069923639297485,-0.38770177960395813,-1.7504938840866089
1783696636672475400,2.269475341796875,-0.36890947818756104,0.2655884027481079,-1.5916835069656372
1783696636682438400,2.2794384765625,-0.4198860824108124,0.6129811406135559,-1.290398359298706
1783696636692401400,2.2894013671875,-0.4999542832374573,0.6174638271331787,-0.9385298490524292
1783696636702365400,2.299365478515625,-0.5909386277198792,0.33771729469299316,-0.6401439309120178
1783696636712328400,2.309328369140625,-0.6590745449066162,-0.1850670725107193,-0.45024189352989197
1783696636722291500,2.31929150390625,-0.6867132782936096,-0.8147997856140137,-0.3967982828617096
1783696636732254500,2.32925439453125,-0.6554999947547913,-1.2719172239303589,-0.41512057185173035
1783696636742217200,2.33921728515625,-0.6059341430664062,-1.3804340362548828,-0.4117675721645355
1783696636752180200,2.34918017578125,-0.5884726047515869,-1.1727758646011353,-0.3686363399028778
1783696636762143500,2.3591435546875,-0.5797070860862732,-0.7492116093635559,-0.2912517786026001
1783696636772106500,2.3691064453125,-0.5311504602432251,-0.2491823434829712,-0.17575104534626007
1783696636782069500,2.379069580078125,-0.4543059468269348,0.22692075371742249,-0.014184155501425266
1783696636792032500,2.389032470703125,-0.4005705416202545,0.5415554046630859,0.2115941047668457
1783696636801996500,2.39899658203125,-0.37763622403144836,0.6140849590301514,0.4902891218662262
1783696636811959600,2.40895947265625,-0.355884313583374,0.5388533473014832,0.7948839068412781
1783696636821922300,2.41892236328125,-0.3428593575954437,0.4069769084453583,1.077794075012207
1783696636831885300,2.42888525390625,-0.3243948519229889,0.288160502910614,1.292781949043274
1783696636841848300,2.438848388671875,-0.28757283091545105,0.24975380301475525,1.4436836242675781
1783696636851811000,2.44881103515625,-0.2533288300037384,0.27068305015563965,1.5456219911575317
1783696636861774000,2.458774169921875,-0.2410270869731903,0.25887331366539,1.5824676752090454
1783696636871737300,2.4687373046875,-0.25497886538505554,0.18006636202335358,1.5476340055465698
1783696636881700400,2.478700439453125,-0.26161253452301025,0.07985145598649979,1.4482836723327637
1783696636891664400,2.488664306640625,-0.2714422643184662,0.04292938485741615,1.324325680732727
1783696636901627400,2.49862744140625,-0.28958001732826233,0.10127237439155579,1.2337031364440918
1783696636911590400,2.50859033203125,-0.31903165578842163,0.20108819007873535,1.22816801071167
1783696636921553400,2.518553466796875,-0.3504147529602051,0.23767197132110596,1.2860400676727295
1783696636931516200,2.52851611328125,-0.3641345500946045,0.20082899928092957,1.3866971731185913
1783696636941479200,2.538479248046875,-0.365411639213562,0.1696774661540985,1.5250564813613892
1783696636951442200,2.548442138671875,-0.3495090901851654,0.137042835354805,1.6735761165618896
1783696636961405200,2.5584052734375,-0.32454946637153625,0.04991570860147476,1.757247805595398
1783696636971368200,2.5683681640625,-0.30862507224082947,-0.06725379079580307,1.7412675619125366
1783696636981332200,2.578332275390625,-0.29157426953315735,-0.23517949879169464,1.608708381652832
1783696636991295200,2.588295166015625,-0.26129013299942017,-0.44100695848464966,1.3752840757369995
1783696637001258500,2.598258544921875,-0.25767600536346436,-0.6329002380371094,1.0366026163101196
1783696637011221200,2.60822119140625,-0.2919064164161682,-0.6968557834625244,0.5966569781303406
1783696637021184300,2.618184326171875,-0.36204248666763306,-0.437154084444046,0.14848437905311584
1783696637031147300,2.628147216796875,-0.4385359287261963,0.12802648544311523,-0.20088081061840057
1783696637041110300,2.6381103515625,-0.5010092258453369,0.704079270362854,-0.40434592962265015
1783696637051073300,2.6480732421875,-0.56257164478302,1.0853856801986694,-0.48688289523124695
1783696637061036300,2.658036376953125,-0.5918054580688477,1.1678619384765625,-0.45041871070861816
1783696637071000300,2.668000244140625,-0.5749260783195496,0.9090716242790222,-0.4017033874988556
1783696637080963300,2.67796337890625,-0.5428658723831177,0.4041019082069397,-0.43665143847465515
1783696637090926000,2.687926025390625,-0.49079519510269165,-0.1473042517900467,-0.5503547787666321
1783696637100889000,2.69788916015625,-0.36104917526245117,-0.5341461300849915,-0.6922174692153931
1783696637110852400,2.707852294921875,-0.13086308538913727,-0.7062603831291199,-0.8507663607597351
1783696637120815400,2.7178154296875,0.09741775691509247,-0.755191445350647,-1.032920241355896
1783696637130778400,2.7277783203125,0.25376129150390625,-0.7249044179916382,-1.2280313968658447
1783696637140741400,2.737741455078125,0.3168792128562927,-0.5839484930038452,-1.4064817428588867
1783696637150704400,2.747704345703125,0.32786130905151367,-0.4137847125530243,-1.535804271697998
1783696637160668400,2.75766845703125,0.31658339500427246,-0.2956768274307251,-1.5921012163162231
1783696637170631200,2.767631103515625,0.286135196685791,-0.2773124575614929,-1.5774530172348022
1783696637180594200,2.77759423828125,0.21070162951946259,-0.3406164050102234,-1.5168263912200928
1783696637190557200,2.78755712890625,0.07849672436714172,-0.4304610788822174,-1.4551976919174194
1783696637200520200,2.797520263671875,-0.08066181093454361,-0.48723751306533813,-1.4034062623977661
1783696637210483200,2.807483154296875,-0.23454777896404266,-0.4626387059688568,-1.3519004583358765
1783696637220446500,2.817446533203125,-0.344253271818161,-0.30926334857940674,-1.279343843460083
1783696637230409500,2.827409423828125,-0.4052335321903229,-0.06931068748235703,-1.1626802682876587
1783696637240372200,2.837372314453125,-0.43451789021492004,0.1917678862810135,-1.0076274871826172
1783696637250336300,2.847336181640625,-0.4685618579387665,0.4420650899410248,-0.8039113879203796
1783696637260299300,2.85729931640625,-0.5263347029685974,0.6643850803375244,-0.5595673322677612
1783696637270262300,2.86726220703125,-0.5861080288887024,0.8354596495628357,-0.29197850823402405
1783696637280225300,2.877225341796875,-0.6013844013214111,0.9049327969551086,-0.03093872219324112
1783696637290188300,2.887188232421875,-0.5831127166748047,0.8664267063140869,0.20302049815654755
1783696637300151300,2.8971513671875,-0.5721346139907837,0.7022766470909119,0.41298454999923706
1783696637310114300,2.9071142578125,-0.5961790084838867,0.45153018832206726,0.6037992835044861
1783696637320077000,2.9170771484375,-0.6736943125724792,0.18104273080825806,0.7583505511283875
1783696637330040300,2.927040283203125,-0.7737913727760315,-0.0650075227022171,0.8605434894561768
1783696637340003300,2.93700341796875,-0.8367738127708435,-0.2358819842338562,0.9039114117622375
1783696637349967400,2.94696728515625,-0.8166016936302185,-0.28675609827041626,0.9164149761199951
1783696637359930400,2.956930419921875,-0.7356035709381104,-0.22517983615398407,0.9280164837837219
1783696637369893400,2.966893310546875,-0.6589301228523254,-0.12985943257808685,0.9282966256141663
1783696637379856400,2.9768564453125,-0.6423019170761108,-0.160125732421875,0.8925154209136963
1783696637389819400,2.9868193359375,-0.6376288533210754,-0.29669421911239624,0.8266692757606506
1783696637399782100,2.9967822265625,-0.5950887203216553,-0.43094342947006226,0.7700216770172119
1783696637409745200,3.0067451171875,-0.5006889700889587,-0.48533934354782104,0.7677175402641296
1783696637419708200,3.016708251953125,-0.36745259165763855,-0.4563699960708618,0.8166872262954712
1783696637429671200,3.026671142578125,-0.20799218118190765,-0.4238037168979645,0.8606363534927368
1783696637439635200,3.03663525390625,-0.03341017663478851,-0.46547701954841614,0.8676010966300964
1783696637449598200,3.04659814453125,0.15563112497329712,-0.5915194153785706,0.8639386892318726
1783696637459561500,3.0565615234375,0.29499274492263794,-0.7688859105110168,0.8227393627166748
1783696637469524500,3.0665244140625,0.29065418243408203,-0.975319504737854,0.6633654236793518
1783696637479487200,3.0764873046875,0.10626054555177689,-0.9978387355804443,0.3513006865978241
1783696637489450200,3.0864501953125,-0.19343508780002594,-0.6010423898696899,-0.03516791760921478
1783696637499413200,3.096413330078125,-0.48679119348526,0.12267270684242249,-0.4047738313674927
1783696637509376300,3.106376220703125,-0.6283182501792908,0.7107385993003845,-0.748299241065979
1783696637519339300,3.11633935546875,-0.6072835326194763,0.8711165189743042,-1.0631517171859741
1783696637529303300,3.12630322265625,-0.48403459787368774,0.5877112150192261,-1.3636505603790283
1783696637539266300,3.136266357421875,-0.29849088191986084,-0.0877874568104744,-1.6492058038711548
1783696637549229300,3.146229248046875,-0.07416428625583649,-0.8926810026168823,-1.8597939014434814
1783696637559192000,3.156192138671875,0.13921402394771576,-1.4240909814834595,-1.9152982234954834
1783696637569155300,3.1661552734375,0.29203659296035767,-1.525251865386963,-1.769921898841858
1783696637579118300,3.176118408203125,0.30484598875045776,-1.2714964151382446,-1.4250544309616089
1783696637589081300,3.186081298828125,0.1621178537607193,-0.8196261525154114,-0.9642828106880188
1783696637599044400,3.19604443359375,-0.03915461525321007,-0.4735128581523895,-0.5129299163818359
1783696637609007400,3.20600732421875,-0.1630411297082901,-0.40538254380226135,-0.14348213374614716
1783696637618971400,3.215971435546875,-0.22322359681129456,-0.51407790184021,0.10410476475954056
1783696637628934400,3.225934326171875,-0.26797109842300415,-0.6825811862945557,0.21091562509536743
1783696637638897200,3.235897216796875,-0.29181286692619324,-0.9100039601325989,0.19359514117240906
1783696637648860200,3.245860107421875,-0.27215901017189026,-1.1198559999465942,0.08439674973487854
1783696637658823200,3.2558232421875,-0.22060391306877136,-1.1960201263427734,-0.06701496988534927
1783696637668786200,3.2657861328125,-0.17648625373840332,-1.0521804094314575,-0.2244405448436737
1783696637678749400,3.27574951171875,-0.15796399116516113,-0.7507132291793823,-0.35752251744270325
1783696637688712400,3.28571240234375,-0.18475140631198883,-0.3772765100002289,-0.4507722854614258
1783696637698675500,3.295675537109375,-0.25067198276519775,-0.04642027989029884,-0.5074756741523743
1783696637708638200,3.30563818359375,-0.3505716621875763,0.1900244802236557,-0.5321429371833801
1783696637718602200,3.315602294921875,-0.46146509051322937,0.35160601139068604,-0.5146316289901733
1783696637728565200,3.325565185546875,-0.5230293869972229,0.5042197704315186,-0.42480266094207764
1783696637738528300,3.3355283203125,-0.510827362537384,0.6999444365501404,-0.23957732319831848
1783696637748491300,3.3454912109375,-0.4728909134864807,0.898868203163147,0.03244912624359131
1783696637758454300,3.355454345703125,-0.4252758324146271,0.9583165049552917,0.3607187867164612
1783696637768417300,3.365417236328125,-0.35899507999420166,0.799155592918396,0.6524792909622192
1783696637778380300,3.37538037109375,-0.3041660189628601,0.4141964614391327,0.8665491938591003
1783696637788343300,3.38534326171875,-0.27238303422927856,-0.033878523856401443,0.9833421111106873
1783696637798306300,3.395306396484375,-0.25738564133644104,-0.3739986717700958,0.9908290505409241
1783696637808270300,3.405270263671875,-0.2045631855726242,-0.4775386452674866,0.9333135485649109
1783696637818233300,3.4152333984375,-0.14564761519432068,-0.3193771541118622,0.9051329493522644
1783696637828196400,3.4251962890625,-0.14296501874923706,-0.012083503417670727,0.9112281203269958
1783696637838159000,3.4351591796875,-0.20274095237255096,0.21183320879936218,0.8875436186790466
1783696637848122000,3.4451220703125,-0.23866407573223114,0.24470354616641998,0.8621892929077148
1783696637858084900,3.4550849609375,-0.2409769594669342,0.23459863662719727,0.8593321442604065
1783696637868048000,3.4650478515625,-0.2202053666114807,0.1854095160961151,0.8587489128112793
1783696637878011000,3.475010986328125,-0.1663050353527069,0.06292413175106049,0.8358337879180908
1783696637887974100,3.48497412109375,-0.04784390702843666,-0.0066165984608232975,0.7912389039993286
1783696637897938000,3.49493798828125,0.1201118677854538,0.037120360881090164,0.728640615940094
1783696637907901000,3.50490087890625,0.31785768270492554,0.10517318546772003,0.6015692353248596
1783696637917864200,3.5148642578125,0.5185372829437256,0.04723331704735756,0.39857953786849976
1783696637927827200,3.5248271484375,0.680048942565918,-0.13003414869308472,0.13067564368247986
1783696637937790000,3.5347900390625,0.7641921043395996,-0.26907894015312195,-0.13497458398342133
1783696637947753000,3.5447529296875,0.7482792139053345,-0.09172438085079193,-0.2709055244922638
1783696637957716000,3.554716064453125,0.6955857276916504,0.43358469009399414,-0.23963698744773865
1783696637967679000,3.564678955078125,0.6371639966964722,0.9651029109954834,-0.13824458420276642
1783696637977642000,3.57464208984375,0.619825541973114,1.1599206924438477,-0.10993055999279022
1783696637987606000,3.58460595703125,0.5918657779693604,0.911871612071991,-0.2586981952190399
1783696637997569000,3.594569091796875,0.5123504400253296,0.2900337278842926,-0.5801866054534912
1783696638007532000,3.604531982421875,0.46792784333229065,-0.4314243197441101,-0.9759301543235779
1783696638017495000,3.6144951171875,0.4813353419303894,-0.7986428141593933,-1.2917439937591553
1783696638027458000,3.6244580078125,0.5298349261283875,-0.768409013748169,-1.464044451713562
1783696638037421000,3.634421142578125,0.583440899848938,-0.5136373043060303,-1.4995061159133911
1783696638047384000,3.644384033203125,0.5910729765892029,-0.12609966099262238,-1.4635097980499268
1783696638057347000,3.65434716796875,0.563572883605957,0.249837264418602,-1.4100910425186157
1783696638067310000,3.66431005859375,0.5226353406906128,0.47688746452331543,-1.3693667650222778
1783696638077274000,3.674274169921875,0.47581416368484497,0.5279532074928284,-1.3356633186340332
1783696638087237000,3.684237060546875,0.43610644340515137,0.4299406409263611,-1.2980842590332031
1783696638097199900,3.694199951171875,0.38733312487602234,0.22037550806999207,-1.2755374908447266
1783696638107163000,3.704162841796875,0.3176528513431549,-0.07359645515680313,-1.2953641414642334
1783696638117126000,3.7141259765625,0.25238534808158875,-0.38578903675079346,-1.3306949138641357
1783696638127089000,3.7240888671875,0.1862422674894333,-0.6231759786605835,-1.3556859493255615
1783696638137052200,3.73405224609375,0.10189219564199448,-0.7309437394142151,-1.3418506383895874
1783696638147015200,3.74401513671875,0.026391051709651947,-0.7155682444572449,-1.2758601903915405
1783696638156978200,3.753978271484375,-0.022361015900969505,-0.604820191860199,-1.1698287725448608
1783696638166941000,3.76394091796875,-0.014617610722780228,-0.4171283543109894,-1.0249544382095337
1783696638176905000,3.773905029296875,0.0265180841088295,-0.16550536453723907,-0.8554115891456604
1783696638186868000,3.783867919921875,0.10202455520629883,0.14426714181900024,-0.6424415111541748
1783696638196831000,3.7938310546875,0.17822907865047455,0.472670316696167,-0.3587101101875305
1783696638206794000,3.8037939453125,0.19566266238689423,0.6972754597663879,-0.029455246403813362
1783696638216757000,3.813757080078125,0.19145521521568298,0.6794598698616028,0.3069107234477997
1783696638226720000,3.823719970703125,0.19508643448352814,0.429548054933548,0.6053538918495178
1783696638236683000,3.83368310546875,0.17435014247894287,0.04169878736138344,0.8268640637397766
1783696638246646000,3.84364599609375,0.11228357255458832,-0.3819659352302551,0.9737845063209534
1783696638256609000,3.853609130859375,0.025356367230415344,-0.7627792954444885,1.060746669769287
1783696638266573000,3.863572998046875,0.009273536503314972,-1.0451254844665527,1.1130338907241821
1783696638276536000,3.8735361328125,0.0440782867372036,-1.1547634601593018,1.1351107358932495
1783696638286499000,3.8834990234375,0.037190552800893784,-1.0743764638900757,1.1394891738891602
1783696638296462000,3.893462158203125,-0.007538082543760538,-0.8782088756561279,1.1046421527862549
1783696638306425000,3.903425048828125,-0.06186124309897423,-0.6259963512420654,1.003394603729248
1783696638316388000,3.91338818359375,-0.09770331531763077,-0.37686318159103394,0.8366298675537109
1783696638326350800,3.923350830078125,-0.09056603908538818,-0.19416074454784393,0.6491243839263916
1783696638336313900,3.93331396484375,-0.052374545484781265,-0.0945676788687706,0.4704209566116333
1783696638346277000,3.943277099609375,0.03930370882153511,-0.16111047565937042,0.31584814190864563
1783696638356241000,3.953240966796875,0.13212722539901733,-0.307756245136261,0.17842960357666016
1783696638366204000,3.963203857421875,0.2506283223628998,-0.38378041982650757,0.07476818561553955
1783696638376167200,3.973167236328125,0.42536357045173645,-0.31960830092430115,0.08043599873781204
1783696638386130200,3.983130126953125,0.5930739641189575,-0.16278326511383057,0.21172025799751282
1783696638396093200,3.99309326171875,0.6499937176704407,-0.06666091829538345,0.37340202927589417
1783696638406056000,4.003055908203125,0.511808454990387,-0.08503566682338715,0.41208282113075256
1783696638416019000,4.01301904296875,0.20841817557811737,0.08397649973630905,0.3016737401485443
1783696638425982000,4.02298193359375,-0.162150576710701,0.5686150789260864,0.14639602601528168
1783696638435945000,4.032945068359375,-0.4836789071559906,1.0863444805145264,-0.006927215028554201
1783696638445908000,4.042907958984375,-0.685140073299408,1.3018498420715332,-0.1704849898815155
1783696638455872000,4.0528720703125,-0.766975462436676,1.077070713043213,-0.37054547667503357
1783696638465835000,4.0628349609375,-0.7888363003730774,0.4683181643486023,-0.6800473928451538
1783696638475798000,4.072798095703125,-0.7683730721473694,-0.1230437383055687,-1.075845718383789
1783696638485761000,4.082760986328125,-0.668639063835144,-0.2878766357898712,-1.3943589925765991
1783696638495724000,4.09272412109375,-0.4785920977592468,-0.0967153012752533,-1.5249311923980713
1783696638505687000,4.10268701171875,-0.2749593257904053,0.16302385926246643,-1.50163733959198
1783696638515650000,4.112650146484375,-0.16978707909584045,0.3713548183441162,-1.4115934371948242
1783696638525613000,4.122613037109375,-0.17636241018772125,0.5443260073661804,-1.342900037765503
1783696638535576000,4.132576171875,-0.2236105501651764,0.6926608681678772,-1.3252366781234741
1783696638545540000,4.1425400390625,-0.28862735629081726,0.7083191871643066,-1.3493320941925049
1783696638555503000,4.152503173828125,-0.3541114628314972,0.4436984360218048,-1.3708217144012451
1783696638565465900,4.1624658203125,-0.34295788407325745,-0.0064857834950089455,-1.311587929725647
1783696638575428900,4.172428955078125,-0.26639169454574585,-0.37987858057022095,-1.1406549215316772
1783696638585391900,4.182391845703125,-0.20705032348632812,-0.6271395087242126,-0.9002178311347961
1783696638595355100,4.192355224609375,-0.15947270393371582,-0.7275952696800232,-0.6382602453231812
1783696638605318100,4.202318115234375,-0.11668875068426132,-0.66737961769104,-0.38358402252197266
1783696638615281200,4.21228125,-0.08213577419519424,-0.47976750135421753,-0.15867483615875244
1783696638625244200,4.222244140625,-0.059041641652584076,-0.23152868449687958,0.018245603889226913
1783696638635207000,4.23220703125,-0.054132428020238876,0.0302727110683918,0.14885351061820984
1783696638645171000,4.2421708984375,-0.051224254071712494,0.3135930895805359,0.23459051549434662
1783696638655134000,4.252134033203125,-0.0495721772313118,0.5738170146942139,0.3028532862663269
1783696638665097000,4.262096923828125,-0.07344182580709457,0.7806756496429443,0.37378472089767456
1783696638675060000,4.27206005859375,-0.13330435752868652,0.9087592959403992,0.5024926066398621
1783696638685023000,4.28202294921875,-0.21253685653209686,0.9529731273651123,0.6903794407844543
1783696638694986000,4.291986083984375,-0.2755418121814728,0.9071806073188782,0.9058356285095215
1783696638704949200,4.30194921875,-0.2901686728000641,0.7854270339012146,1.127685546875
1783696638714912000,4.311912109375,-0.26662787795066833,0.6180136799812317,1.366050362586975
1783696638724875000,4.321875,-0.235849991440773,0.42513689398765564,1.6044975519180298
1783696638734839000,4.331839111328125,-0.2116142362356186,0.21198128163814545,1.8530365228652954
1783696638744802000,4.341802001953125,-0.18988735973834991,-0.022814180701971054,2.1068613529205322
1783696638754765000,4.35176513671875,-0.1933603435754776,-0.2567671537399292,2.3213179111480713
1783696638764728000,4.36172802734375,-0.21718178689479828,-0.4764997661113739,2.4814300537109375
1783696638774691000,4.371691162109375,-0.2501707077026367,-0.6893897652626038,2.5750977993011475
1783696638784654000,4.381654052734375,-0.2862621247768402,-0.911959171295166,2.5499727725982666
1783696638794616800,4.391616943359375,-0.2852730453014374,-1.1568306684494019,2.4001338481903076
1783696638804580000,4.401580078125,-0.2477073073387146,-1.4245175123214722,2.135380268096924
1783696638814543000,4.411543212890625,-0.1688280701637268,-1.7250994443893433,1.7997181415557861
1783696638824506000,4.421506103515625,-0.08913802355527878,-1.9985872507095337,1.3947477340698242
1783696638834470400,4.431470458984375,-0.05167980492115021,-1.6196482181549072,0.890868604183197
1783696638844433400,4.441433349609375,0.018144017085433006,-0.9253405332565308,0.6112289428710938
1783696638854396400,4.451396484375,-0.0306071899831295,0.10101862251758575,0.3765711784362793
1783696638864359400,4.461359375,-0.06765149533748627,1.2742140293121338,0.2689323425292969
1783696638874322400,4.471322509765625,-0.017120802775025368,2.0212743282318115,0.14251303672790527
1783696638884285400,4.481285400390625,0.12084798514842987,1.6600570678710938,-0.08353100717067719
1783696638894248400,4.49124853515625,0.28631335496902466,0.7630059123039246,-0.23229579627513885
1783696638904211500,4.50121142578125,0.35784557461738586,0.3796130120754242,-0.142660990357399
1783696638914174200,4.51117431640625,0.3189939260482788,0.3792455196380615,0.08299299329519272
1783696638924138200,4.52113818359375,0.2367461770772934,0.1648852676153183,0.2221231907606125
1783696638934101200,4.531101318359375,0.1521984189748764,-0.31110045313835144,0.15974947810173035
1783696638944064300,4.541064208984375,0.12648533284664154,-0.9254765510559082,-0.09977264702320099
1783696638954027500,4.551027587890625,0.15012307465076447,-1.5353611707687378,-0.5235028266906738
1783696638963990500,4.560990478515625,0.2287750095129013,-1.754721760749817,-1.0008010864257812
1783696638973953500,4.57095361328125,0.3178662061691284,-1.4915846586227417,-1.4078114032745361
1783696638983916500,4.58091650390625,0.37241068482398987,-0.9237292408943176,-1.6534723043441772
1783696638993879300,4.59087939453125,0.382488489151001,-0.28778499364852905,-1.7163496017456055
1783696639003842300,4.60084228515625,0.40769052505493164,0.21938396990299225,-1.6342347860336304
1783696639013806300,4.610806396484375,0.48421457409858704,0.5150678157806396,-1.494105577468872
1783696639023769300,4.620769287109375,0.5678895115852356,0.607543408870697,-1.3539881706237793
1783696639033732400,4.630732421875,0.5628888010978699,0.5231267213821411,-1.2743884325027466
1783696639043695400,4.6406953125,0.4631350636482239,0.32565540075302124,-1.3019713163375854
1783696639053658400,4.650658447265625,0.2907851040363312,0.09323953092098236,-1.455446481704712
1783696639063621600,4.66062158203125,0.06890624016523361,-0.141723170876503,-1.684808611869812
1783696639073584400,4.67058447265625,-0.12646517157554626,-0.3337179124355316,-1.892357349395752
1783696639083547400,4.68054736328125,-0.26599109172821045,-0.3830449879169464,-2.026005983352661
1783696639093510400,4.690510498046875,-0.3909047544002533,-0.31049486994743347,-2.076958179473877
1783696639103473400,4.700473388671875,-0.4371388256549835,-0.1671116203069687,-2.056501865386963
1783696639113437400,4.7104375,-0.42805999517440796,0.05259458348155022,-1.9934812784194946
1783696639123400400,4.720400390625,-0.39191290736198425,0.32630762457847595,-1.8810604810714722
1783696639133363500,4.730363525390625,-0.36740559339523315,0.602466881275177,-1.7091253995895386
1783696639143326500,4.740326416015625,-0.35366740822792053,0.839474081993103,-1.482774019241333
1783696639153289200,4.750289306640625,-0.3604899048805237,0.9997408986091614,-1.25338613986969
1783696639163252500,4.76025244140625,-0.3369470238685608,1.1206737756729126,-1.0092805624008179
1783696639173215500,4.770215576171875,-0.3030591309070587,1.1940631866455078,-0.7637798190116882
1783696639183178500,4.780178466796875,-0.24075902998447418,1.2100650072097778,-0.4930969476699829
1783696639193141500,4.7901416015625,-0.16957814991474152,1.2218589782714844,-0.20327496528625488
1783696639203105500,4.80010546875,-0.08240941911935806,1.2552603483200073,0.11754246056079865
1783696639213068500,4.810068603515625,0.028485165908932686,1.2891477346420288,0.4468892812728882
1783696639223031600,4.820031494140625,0.162624329328537,1.2715498208999634,0.7356638312339783
1783696639232994300,4.829994384765625,0.3051891624927521,1.1985454559326172,0.9832812547683716
1783696639242957300,4.839957275390625,0.4466911852359772,1.0775271654129028,1.1835565567016602
1783696639252920300,4.84992041015625,0.566544234752655,0.8981398344039917,1.341782808303833
1783696639262883300,4.85988330078125,0.6323115229606628,0.6725785732269287,1.4638628959655762
1783696639272846300,4.869846435546875,0.6255559921264648,0.41672641038894653,1.5070130825042725
1783696639282809600,4.8798095703125,0.6104782223701477,0.17443042993545532,1.5072884559631348
1783696639292772400,4.8897724609375,0.6044778823852539,0.04234471172094345,1.5155928134918213
1783696639302736600,4.899736572265625,0.5780001878738403,0.05797107517719269,1.4832990169525146
1783696639312699400,4.909699462890625,0.570402204990387,0.16100448369979858,1.3997060060501099
1783696639322662400,4.919662353515625,0.6159071326255798,0.2533557415008545,1.295974850654602
1783696639332625400,4.92962548828125,0.709621250629425,0.20226538181304932,1.2222704887390137
1783696639342588400,4.93958837890625,0.8173218965530396,-0.06939036399126053,1.2456111907958984
1783696639352551400,4.949551513671875,0.8616984486579895,-0.5054308176040649,1.4003760814666748
1783696639362514400,4.959514404296875,0.7392774224281311,-0.9541138410568237,1.6075268983840942
1783696639372477200,4.969477294921875,0.4449581205844879,-1.119714617729187,1.7326024770736694
1783696639382440400,4.9794404296875,0.14261315762996674,-0.7622933983802795,1.7438887357711792
1783696639392404200,4.989404296875,-0.038117703050374985,-0.2052304446697235,1.5418787002563477
1783696639402367200,4.9993671875,-0.09603399783372879,0.020426658913493156,1.1109685897827148
1783696639412330500,5.00933056640625,-0.06137841194868088,-0.07395768910646439,0.5949727296829224
1783696639422293500,5.01929345703125,0.005302614998072386,-0.34383657574653625,0.082719586789608
1783696639432256500,5.029256591796875,0.02023151144385338,-0.8639034032821655,-0.41703057289123535
1783696639442219500,5.039219482421875,0.060343775898218155,-1.3961734771728516,-0.8317633271217346
1783696639452182300,5.049182373046875,0.19308562576770782,-1.565100073814392,-1.0448975563049316
1783696639462145300,5.059145263671875,0.35381725430488586,-1.3628782033920288,-1.049293041229248
1783696639472108300,5.0691083984375,0.5228782892227173,-0.9587607383728027,-0.8937084674835205
1783696639482071300,5.0790712890625,0.6757895350456238,-0.5299012660980225,-0.6849040985107422
1783696639492035300,5.089035400390625,0.7964213490486145,-0.2850746810436249,-0.5095232129096985
1783696639501998300,5.098998291015625,0.8464171290397644,-0.2240198403596878,-0.40168917179107666
1783696639511961300,5.10896142578125,0.8102065920829773,-0.2148684859275818,-0.37440550327301025
1783696639521924600,5.118924560546875,0.7389113903045654,-0.18862544000148773,-0.43486592173576355
1783696639531887400,5.128887451171875,0.6726692914962769,-0.14573462307453156,-0.5623241066932678
1783696639541850400,5.138850341796875,0.6198974251747131,-0.10699094831943512,-0.7246134281158447
1783696639551813400,5.1488134765625,0.5741753578186035,-0.0828448161482811,-0.8645880222320557
1783696639561776400,5.1587763671875,0.521841287612915,-0.07100813090801239,-0.9517868757247925
1783696639571739400,5.168739501953125,0.45969894528388977,-0.0655432939529419,-0.9577277302742004
1783696639581703400,5.178703369140625,0.4158899486064911,-0.04885460063815117,-0.8598552346229553
1783696639591666400,5.18866650390625,0.39794793725013733,0.017399633303284645,-0.6626697778701782
1783696639601629400,5.19862939453125,0.38436421751976013,0.14717334508895874,-0.39218610525131226
1783696639611592200,5.20859228515625,0.3671802282333374,0.29797300696372986,-0.08062505722045898
1783696639621555500,5.218555419921875,0.33469685912132263,0.43222135305404663,0.22338970005512238
1783696639631518500,5.2285185546875,0.2681542932987213,0.5407342910766602,0.47308066487312317
1783696639641481500,5.2384814453125,0.1710871309041977,0.5921497941017151,0.6608700156211853
1783696639651444500,5.248444580078125,0.039524201303720474,0.6023039221763611,0.7951139807701111
1783696639661407500,5.258407470703125,-0.1037306934595108,0.5665376782417297,0.882607102394104
1783696639671370500,5.26837060546875,-0.23293113708496094,0.4922506511211395,0.9146395325660706
1783696639681334500,5.27833447265625,-0.33281564712524414,0.422837495803833,0.8987601399421692
1783696639691297300,5.28829736328125,-0.3956819474697113,0.4056505560874939,0.8319025635719299
1783696639701260300,5.29826025390625,-0.4235047996044159,0.45300421118736267,0.7525691390037537
1783696639713091300,5.31009130859375,-0.43095406889915466,0.6178865432739258,0.7020523548126221
1783696639723054300,5.320054443359375,-0.44363683462142944,0.8208804130554199,0.7164994478225708
1783696639733017300,5.330017333984375,-0.489806205034256,1.0097781419754028,0.7726551294326782
1783696639742980600,5.339980712890625,-0.5531063079833984,1.1173720359802246,0.8477177023887634
1783696639752943600,5.349943603515625,-0.624727189540863,1.1195141077041626,0.9275773763656616
1783696639762906400,5.35990625,-0.71983402967453,1.0171006917953491,0.9912266731262207
1783696639772869400,5.369869384765625,-0.8107341527938843,0.8822295069694519,1.0595200061798096
1783696639782833400,5.37983349609375,-0.8466284871101379,0.7873956561088562,1.1445616483688354
1783696639792796400,5.38979638671875,-0.8215646743774414,0.6394946575164795,1.209916114807129
1783696639802759400,5.399759521484375,-0.7162126898765564,0.3769165575504303,1.2081197500228882
1783696639812722400,5.409722412109375,-0.5705054998397827,0.1040516197681427,1.0994725227355957
1783696639822685400,5.419685546875,-0.4244782626628876,-0.0724744126200676,0.8658507466316223
1783696639832648400,5.4296484375,-0.2929752767086029,-0.16556166112422943,0.5059821009635925
1783696639842611200,5.439611083984375,-0.20484407246112823,-0.2984856367111206,0.00017268775263801217
1783696639852574500,5.449574462890625,-0.18813897669315338,-0.39390215277671814,-0.5622987151145935
1783696639862537500,5.459537353515625,-0.25158026814460754,-0.09914562106132507,-1.0200889110565186
1783696639872500500,5.46950048828125,-0.3258642256259918,0.5733884572982788,-1.262253761291504
1783696639882464500,5.479464599609375,-0.32597553730010986,1.3085896968841553,-1.2764827013015747
1783696639892427500,5.489427490234375,-0.2231607586145401,1.7278149127960205,-1.1576507091522217
1783696639902390500,5.499390625,-0.1030263677239418,1.4276862144470215,-1.0968821048736572
1783696639912353500,5.509353515625,0.010758076794445515,0.5067092776298523,-1.1078051328659058
1783696639922316300,5.51931640625,0.13010816276073456,-0.48247718811035156,-1.0442512035369873
1783696639932279300,5.529279296875,0.28088003396987915,-1.0783649682998657,-0.7806021571159363
1783696639942242300,5.5392421875,0.4745778739452362,-1.2151025533676147,-0.3459467887878418
1783696639952205300,5.549205322265625,0.6498190760612488,-1.217314600944519,0.09334594756364822
1783696639962168600,5.55916845703125,0.7401050329208374,-1.2685503959655762,0.43069520592689514
1783696639972132400,5.56913232421875,0.7528034448623657,-1.3112729787826538,0.6587503552436829
1783696639982095400,5.579095458984375,0.7073513269424438,-1.4163352251052856,0.7566156983375549
1783696639992058600,5.58905859375,0.662441611289978,-1.6071693897247314,0.7075203061103821
1783696640002021400,5.599021484375,0.6322994232177734,-1.836827039718628,0.5087670087814331
1783696640011984400,5.608984375,0.6447398066520691,-2.014533758163452,0.16911989450454712
1783696640021947400,5.618947509765625,0.6879940629005432,-1.9939061403274536,-0.25566548109054565
1783696640032533500,5.629533447265625,0.7474512457847595,-1.6681123971939087,-0.726237952709198
1783696640042496500,5.63949658203125,0.807276725769043,-1.119641900062561,-1.1077752113342285
1783696640052459500,5.64945947265625,0.8419072031974792,-0.4739907681941986,-1.3823933601379395
1783696640062422500,5.659422607421875,0.7861586809158325,0.1666954904794693,-1.5422977209091187
1783696640072385300,5.66938525390625,0.6515607833862305,0.7452254891395569,-1.5356531143188477
1783696640082348300,5.679348388671875,0.47660601139068604,1.2240008115768433,-1.3609809875488281
1783696640092311300,5.689311279296875,0.3063608705997467,1.5280826091766357,-1.0278490781784058
1783696640102274300,5.6992744140625,0.1287996768951416,1.6282925605773926,-0.5872753262519836
1783696640112238300,5.70923828125,-0.05948800593614578,1.5054370164871216,-0.11025306582450867
1783696640122201300,5.719201416015625,-0.2425379902124405,1.1945449113845825,0.33908611536026
1783696640132164400,5.729164306640625,-0.3984348773956299,0.7847700119018555,0.7410614490509033
1783696640142127600,5.739127685546875,-0.49645838141441345,0.356891393661499,1.059255599975586
1783696640152090400,5.74909033203125,-0.5364659428596497,0.005644436459988356,1.2711158990859985
1783696640162053400,5.759053466796875,-0.5605071187019348,-0.20338547229766846,1.3961564302444458
1783696640172016400,5.769016357421875,-0.6060454249382019,-0.2598855495452881,1.4618149995803833
1783696640181979400,5.7789794921875,-0.6794258952140808,-0.19596730172634125,1.4600399732589722
1783696640191942400,5.7889423828125,-0.7401448488235474,-0.035525236278772354,1.3992719650268555
1783696640201905400,5.798905517578125,-0.776556134223938,0.17782539129257202,1.2877914905548096
1783696640211869400,5.808869384765625,-0.7947167158126831,0.3148036599159241,1.1538642644882202
1783696640221832400,5.81883251953125,-0.7850440740585327,0.3498029112815857,1.0317224264144897
1783696640231795200,5.828795166015625,-0.7490178346633911,0.3062831461429596,0.908151388168335
1783696640241758500,5.838758544921875,-0.6711880564689636,0.20365022122859955,0.8200862407684326
1783696640251721500,5.848721435546875,-0.5526545643806458,0.16809475421905518,0.7925520539283752
1783696640261684500,5.8586845703125,-0.3842669129371643,0.11385096609592438,0.7997063994407654
1783696640271647500,5.8686474609375,-0.15047429502010345,0.023217197507619858,0.8318672776222229
1783696640281610500,5.878610595703125,0.10455959290266037,0.007037163246423006,0.8995842933654785
1783696640291573500,5.888573486328125,0.33775439858436584,0.03178567811846733,0.9635056853294373
1783696640301537500,5.89853759765625,0.5391932129859924,-0.017778942361474037,0.9690820574760437
1783696640311500300,5.908500244140625,0.7051223516464233,-0.18729886412620544,0.8803657293319702
1783696640321463300,5.91846337890625,0.8037146925926208,-0.4717625379562378,0.7126874923706055
1783696640331426300,5.92842626953125,0.8294439315795898,-0.6502454876899719,0.5363674759864807
1783696640341389300,5.938389404296875,0.7947772741317749,-0.44316473603248596,0.4272457957267761
1783696640351352600,5.9483525390625,0.7159194350242615,-0.07312730699777603,0.3903105854988098
1783696640361315600,5.958315673828125,0.5835459232330322,0.19034959375858307,0.3398929536342621
1783696640371278600,5.968278564453125,0.4210089445114136,0.39280766248703003,0.24670913815498352
1783696640381241300,5.978241455078125,0.2862364947795868,0.5147855281829834,0.07596694678068161
1783696640391205400,5.988205322265625,0.1969701051712036,0.37951722741127014,-0.2224758416414261
1783696640401168400,5.99816845703125,0.13608624041080475,0.024339694529771805,-0.6439051032066345
1783696640411131400,6.00813134765625,0.1458037942647934,-0.38159623742103577,-1.0573395490646362
1783696640421094400,6.018094482421875,0.23684795200824738,-0.5944307446479797,-1.3339884281158447
1783696640431057400,6.028057373046875,0.35252949595451355,-0.6091299057006836,-1.4309982061386108
1783696640441020400,6.0380205078125,0.46527761220932007,-0.49484649300575256,-1.3764334917068481
1783696640450983400,6.0479833984375,0.561402440071106,-0.2983105778694153,-1.213821530342102
1783696640460946400,6.057946533203125,0.6176007390022278,-0.02986152097582817,-1.0165969133377075
1783696640470909400,6.067909423828125,0.6506059169769287,0.2919852137565613,-0.8385383486747742
1783696640480872400,6.07787255859375,0.6292625665664673,0.5160806775093079,-0.741263747215271
1783696640490836500,6.08783642578125,0.5456495881080627,0.5271379947662354,-0.7608363032341003
1783696640500799500,6.097799560546875,0.4008871018886566,0.3938361704349518,-0.8725076913833618
1783696640510762500,6.107762451171875,0.216950461268425,0.1830839365720749,-1.0078905820846558
1783696640520725500,6.1177255859375,0.046619199216365814,-0.06304807215929031,-1.1042983531951904
1783696640530688500,6.1276884765625,-0.08605615049600601,-0.224652498960495,-1.1136751174926758
1783696640540651300,6.1376513671875,-0.20196092128753662,-0.28558242321014404,-1.0257319211959839
1783696640550614300,6.1476142578125,-0.2851713299751282,-0.2697976231575012,-0.8478628396987915
1783696640560577300,6.157577392578125,-0.3421837389469147,-0.14239463210105896,-0.5925487875938416
1783696640570540500,6.16754052734375,-0.36828258633613586,0.10766518861055374,-0.2851918637752533
1783696640580504300,6.17750439453125,-0.34141823649406433,0.45663779973983765,0.06353790313005447
1783696640590467300,6.18746728515625,-0.29939204454421997,0.808856725692749,0.4117291569709778
1783696640600430600,6.1974306640625,-0.3323497474193573,1.0001553297042847,0.7099419236183167
1783696640610393600,6.2073935546875,-0.4167846441268921,1.0056487321853638,0.9641797542572021
1783696640620356400,6.2173564453125,-0.48925912380218506,0.8987550735473633,1.1639751195907593
1783696640630319400,6.2273193359375,-0.5465460419654846,0.7319275736808777,1.2783610820770264
1783696640640282400,6.237282470703125,-0.562950849533081,0.5581662058830261,1.3075013160705566
1783696640650245400,6.247245361328125,-0.5528542399406433,0.41220366954803467,1.2371124029159546
1783696640660208400,6.25720849609375,-0.5106881260871887,0.31781619787216187,1.095733404159546
1783696640670172400,6.26717236328125,-0.4596925377845764,0.29791125655174255,0.9301996231079102
1783696640680135400,6.277135498046875,-0.39776578545570374,0.32036063075065613,0.7655337452888489
1783696640690098400,6.287098388671875,-0.3129119575023651,0.3018816113471985,0.596118688583374
1783696640700061400,6.2970615234375,-0.19119322299957275,0.22935760021209717,0.458369642496109
1783696640710024400,6.3070244140625,-0.085453562438488,0.09112482517957687,0.3508088290691376
1783696640719987500,6.316987548828125,-0.026542846113443375,0.010108798742294312,0.27680861949920654
1783696640729950500,6.326950439453125,-0.003489991184324026,0.05631943792104721,0.24996662139892578
1783696640739913500,6.33691357421875,0.031111925840377808,0.21066533029079437,0.28559866547584534
1783696640749876500,6.34687646484375,0.10513322800397873,0.40711653232574463,0.35958120226860046
1783696640759840500,6.356840576171875,0.2741187810897827,0.47276532649993896,0.46944406628608704
1783696640769803500,6.366803466796875,0.5254243016242981,0.3507192134857178,0.620464563369751
1783696640779766300,6.376766357421875,0.7781444191932678,0.10796116292476654,0.8007392287254333
1783696640789729300,6.386729248046875,0.976482629776001,-0.14525774121284485,0.9496674537658691
1783696640799692300,6.3966923828125,1.0907889604568481,-0.36144861578941345,0.999444842338562
1783696640809655600,6.406655517578125,1.127672791481018,-0.4712819457054138,0.9195312857627869
1783696640819618600,6.41661865234375,1.080826759338379,-0.3215872645378113,0.7852866649627686
1783696640829582000,6.42658203125,0.9735328555107117,-0.0011574106756597757,0.71966153383255
1783696640839545000,6.436545166015625,0.8082629442214966,0.2925708591938019,0.7412378787994385
1783696640849508000,6.446508056640625,0.5362585783004761,0.4202771484851837,0.76750248670578
1783696640859472100,6.45647216796875,0.21617217361927032,0.3226912021636963,0.6623576879501343
1783696640869435100,6.46643505859375,-0.08659733831882477,-0.09447763860225677,0.31382566690444946
1783696640879398100,6.476398193359375,-0.30479171872138977,-0.7733206152915955,-0.28780317306518555
1783696640889361200,6.486361083984375,-0.3293721675872803,-1.218225359916687,-0.9392626881599426
1783696640899324000,6.496323974609375,-0.2267102301120758,-1.0501984357833862,-1.369003415107727
1783696640909287000,6.506286865234375,-0.013862564228475094,-0.4781893491744995,-1.4996864795684814
1783696640919250000,6.51625,0.26526838541030884,0.07244370877742767,-1.424612283706665
1783696640929213000,6.526212890625,0.47099730372428894,0.454937219619751,-1.2551238536834717
1783696640939176200,6.53617626953125,0.5141142010688782,0.619070827960968,-1.0601567029953003
1783696640949140000,6.546139892578125,0.42664411664009094,0.5480108261108398,-0.8982850313186646
1783696640959103200,6.556103271484375,0.2249559909105301,0.2210332602262497,-0.8596901893615723
1783696640969066200,6.566066162109375,-0.011218712665140629,-0.38229015469551086,-0.9642816185951233
1783696640979029000,6.576029052734375,-0.13161464035511017,-1.1313745975494385,-1.1648544073104858
1783696640988992000,6.585991943359375,-0.11179418116807938,-1.652119517326355,-1.352285385131836
1783696640998955000,6.595955078125,-0.014858312904834747,-1.829263687133789,-1.4339056015014648
1783696641008918000,6.60591796875,0.1631201207637787,-1.6633379459381104,-1.3890728950500488
1783696641018881000,6.615881103515625,0.3935341238975525,-1.1742979288101196,-1.2306264638900757
1783696641028844000,6.625843994140625,0.6122247576713562,-0.5640695691108704,-1.0216434001922607
1783696641038808000,6.63580810546875,0.7318145632743835,-0.011284959502518177,-0.7965322136878967
1783696641048771000,6.64577099609375,0.6914191246032715,0.39000165462493896,-0.5470529794692993
1783696641058733800,6.65573388671875,0.5334798097610474,0.5632336139678955,-0.270048588514328
1783696641068697000,6.665697021484375,0.3220849931240082,0.5068457126617432,0.023764656856656075
1783696641078660000,6.67566015625,0.09379883855581284,0.30503562092781067,0.3185270428657532
1783696641088623000,6.685623046875,-0.11334127932786942,0.048102255910634995,0.594756007194519
1783696641098586000,6.695586181640625,-0.2758561670780182,-0.1802062839269638,0.8544867038726807
1783696641108549000,6.705549072265625,-0.3877795338630676,-0.3286389410495758,1.0790128707885742
1783696641118511900,6.715511962890625,-0.4546501636505127,-0.3495527505874634,1.2537556886672974
1783696641128475000,6.725474853515625,-0.4709692895412445,-0.20796334743499756,1.3928076028823853
1783696641138439000,6.73543896484375,-0.4505058228969574,0.04487024247646332,1.4748867750167847
1783696641148402000,6.74540185546875,-0.4138755798339844,0.3427741825580597,1.4919723272323608
1783696641158365000,6.755364990234375,-0.3901721239089966,0.6153652667999268,1.456335186958313
1783696641168328000,6.765327880859375,-0.36674970388412476,0.8397285342216492,1.388745665550232
1783696641178291200,6.775291259765625,-0.3487089276313782,1.006588101387024,1.3165537118911743
1783696641188254200,6.785254150390625,-0.33667847514152527,1.1348539590835571,1.2584959268569946
1783696641198217000,6.795217041015625,-0.33178359270095825,1.2072519063949585,1.2269032001495361
1783696641208180000,6.805179931640625,-0.32723963260650635,1.1338504552841187,1.2130677700042725
1783696641218143000,6.81514306640625,-0.30416202545166016,0.8595494031906128,1.195474624633789
1783696641228107000,6.82510693359375,-0.26595622301101685,0.4784821569919586,1.1699421405792236
1783696641238070000,6.835070068359375,-0.23410402238368988,0.19839884340763092,1.1443551778793335
1783696641248033000,6.845032958984375,-0.21719403564929962,0.1189843937754631,1.112119197845459
1783696641257996000,6.85499609375,-0.19642271101474762,0.19937802851200104,1.073705792427063
1783696641267959000,6.864958984375,-0.1682523488998413,0.34312888979911804,1.017099142074585
1783696641277921800,6.874921875,-0.0864887684583664,0.3889818489551544,0.9129716753959656
1783696641287885000,6.884885009765625,0.03726299852132797,0.30525314807891846,0.7867797017097473
1783696641297848000,6.89484814453125,0.08609871566295624,0.28261706233024597,0.6190490126609802
1783696641307811000,6.90481103515625,-0.02908671274781227,0.4996366500854492,0.36585912108421326
1783696641317775000,6.914775146484375,-0.25510120391845703,1.0076042413711548,0.08296990394592285
1783696641327738000,6.924738037109375,-0.48899227380752563,1.3758127689361572,-0.2277102768421173
1783696641337701000,6.934701171875,-0.6476253271102905,1.254769206047058,-0.6147509217262268
1783696641347664100,6.9446640625,-0.7116425037384033,0.7619997262954712,-1.024784803390503
1783696641357627000,6.954626953125,-0.6673176884651184,0.2339121550321579,-1.406259536743164
1783696641367590000,6.96458984375,-0.5404408574104309,-0.10424475371837616,-1.736562728881836
1783696641377553000,6.974552978515625,-0.3536568582057953,-0.201014444231987,-1.9051942825317383
1783696641387516000,6.984515869140625,-0.11833290010690689,-0.19344764947891235,-1.858553409576416
1783696641397479200,6.994479248046875,0.08932415395975113,-0.2514001727104187,-1.64494788646698
1783696641407442200,7.004442138671875,0.15259581804275513,-0.4258957505226135,-1.367236852645874
1783696641417406200,7.01440625,0.04652850329875946,-0.6635134220123291,-1.1505115032196045
1783696641427369200,7.024369140625,-0.14183929562568665,-0.8945475220680237,-1.0302019119262695
1783696641437332000,7.03433203125,-0.3254309594631195,-0.9898726940155029,-0.9557338356971741
1783696641447295000,7.044294921875,-0.4601491093635559,-0.9377899169921875,-0.8850474953651428
1783696641457258000,7.054258056640625,-0.5141135454177856,-0.810589611530304,-0.799171507358551
1783696641467221000,7.064220947265625,-0.4668286144733429,-0.6880864500999451,-0.722551703453064
1783696641477184000,7.07418408203125,-0.34997737407684326,-0.5685046315193176,-0.6577093005180359
1783696641487147000,7.08414697265625,-0.19450493156909943,-0.4223787486553192,-0.6006855368614197
1783696641497110000,7.094110107421875,-0.05333155021071434,-0.25959303975105286,-0.56211256980896
1783696641507074000,7.104073974609375,0.03448772802948952,-0.08220027387142181,-0.535675585269928
1783696641517036800,7.114036865234375,0.06539317965507507,0.08848144859075546,-0.513701319694519
1783696641527000000,7.124,0.04000398889183998,0.22186893224716187,-0.49165359139442444
1783696641536963000,7.133963134765625,-0.017037460580468178,0.32546111941337585,-0.46218547224998474
1783696641546926000,7.143926025390625,-0.07533212751150131,0.41160547733306885,-0.4244280457496643
1783696641556889000,7.15388916015625,-0.09826301038265228,0.47062644362449646,-0.36024826765060425
1783696641566852000,7.16385205078125,-0.05968928337097168,0.4814266860485077,-0.273867130279541
1783696641576815000,7.173815185546875,0.03820106014609337,0.40710851550102234,-0.17790143191814423
1783696641586777900,7.18377783203125,0.16368956863880157,0.2797403037548065,-0.054253533482551575
1783696641596740900,7.193740966796875,0.2518969178199768,0.13878369331359863,0.11266648024320602
1783696641606705000,7.203704833984375,0.3023850619792938,0.008908325806260109,0.3229961097240448
1783696641616668000,7.21366796875,0.3225118815898895,-0.10667233169078827,0.5660436153411865
1783696641626631000,7.223630859375,0.3140404522418976,-0.1989441215991974,0.8255351185798645
1783696641636594200,7.23359423828125,0.27395322918891907,-0.24788182973861694,1.0965138673782349
1783696641646557200,7.24355712890625,0.1893821358680725,-0.23837929964065552,1.3469183444976807
1783696641656520200,7.253520263671875,0.08379899710416794,-0.15530306100845337,1.5277363061904907
1783696641666483000,7.26348291015625,0.0029777688905596733,-0.00009773729834705591,1.6125229597091675
1783696641676446000,7.273446044921875,-0.049941372126340866,0.11131640523672104,1.5783357620239258
1783696641686409000,7.283408935546875,-0.1001863107085228,0.10044703632593155,1.451142430305481
1783696641696372000,7.2933720703125,-0.1313045471906662,-0.015403666533529758,1.2534713745117188
1783696641706336000,7.3033359375,-0.1349058449268341,-0.09820123761892319,1.0178929567337036
1783696641716299000,7.313299072265625,-0.10907158255577087,-0.007966146804392338,0.7698948383331299
1783696641726262000,7.323261962890625,-0.08840330690145493,0.2802588641643524,0.5032102465629578
1783696641736225000,7.33322509765625,-0.0971379429101944,0.7510676383972168,0.20017795264720917
1783696641746188000,7.34318798828125,-0.12637144327163696,1.2524827718734741,-0.1285971999168396
1783696641756151000,7.353151123046875,-0.14789511263370514,1.5006757974624634,-0.4632907509803772
1783696641766114000,7.363114013671875,-0.15672363340854645,1.4070444107055664,-0.7520875334739685
1783696641776077000,7.3730771484375,-0.19652137160301208,1.142356276512146,-0.9694420099258423
1783696641786040000,7.3830400390625,-0.29601579904556274,0.8443284034729004,-1.1239737272262573
1783696641796004000,7.393004150390625,-0.391148179769516,0.5780293941497803,-1.141625165939331
1783696641805967000,7.402967041015625,-0.4282422363758087,0.45859208703041077,-0.9660533666610718
1783696641815930000,7.41293017578125,-0.3900793790817261,0.5108944773674011,-0.6596015691757202
1783696641825892900,7.422892822265625,-0.2660272717475891,0.5099226236343384,-0.3689071536064148
1783696641835855000,7.432855224609375,-0.12293005734682083,0.2961387038230896,-0.2429489642381668
1783696641845818000,7.442818115234375,-0.02974916808307171,-0.03711511939764023,-0.2807150185108185
1783696641855781000,7.452781005859375,0.010687205009162426,-0.49016064405441284,-0.4446600079536438
1783696641865744100,7.462744140625,0.09810327738523483,-1.0746062994003296,-0.599708080291748
1783696641875707100,7.47270703125,0.2883102297782898,-1.7508410215377808,-0.6516008377075195
1783696641885670100,7.482670166015625,0.45879223942756653,-2.294551372528076,-0.5908998847007751
1783696641895634200,7.49263427734375,0.47296637296676636,-2.5727739334106445,-0.434087872505188
1783696641905597000,7.502596923828125,0.4066397547721863,-2.6394267082214355,-0.1835094392299652
1783696641915560000,7.512559814453125,0.32427963614463806,-2.5859715938568115,0.11700059473514557
1783696641925523000,7.52252294921875,0.27307412028312683,-2.455611228942871,0.3897918164730072
1783696641935486000,7.53248583984375,0.2971786558628082,-2.286060333251953,0.5822129249572754
1783696641945449200,7.54244921875,0.37854400277137756,-2.1072745323181152,0.6758409738540649
1783696641955412200,7.552412109375,0.48122671246528625,-1.9336111545562744,0.6767163276672363
1783696641965375200,7.562375244140625,0.5803844928741455,-1.7538518905639648,0.6085398197174072
1783696641975338000,7.572337890625,0.6649038791656494,-1.5840848684310913,0.4777863025665283
1783696641985302000,7.582302001953125,0.7124909162521362,-1.3885176181793213,0.29469913244247437
1783696641995265000,7.59226513671875,0.7040337324142456,-1.0900747776031494,0.06969104707241058
1783696642005228000,7.60222802734375,0.6453405618667603,-0.6387023329734802,-0.1889209747314453
1783696642015191000,7.61219091796875,0.55225670337677,-0.0759708508849144,-0.4680037498474121
1783696642025154000,7.622154052734375,0.4461204707622528,0.5004209876060486,-0.7498807907104492
1783696642035117000,7.632116943359375,0.3531718850135803,1.049187421798706,-1.0056291818618774
1783696642045080000,7.642080078125,0.28909891843795776,1.5773735046386719,-1.195618987083435
1783696642055043000,7.65204296875,0.2600446343421936,2.051806688308716,-1.3065223693847656
1783696642065006000,7.662006103515625,0.2632068991661072,2.400792360305786,-1.3329954147338867
1783696642074969000,7.671968994140625,0.2726968228816986,2.6090610027313232,-1.277300477027893
1783696642084933000,7.68193310546875,0.28422555327415466,2.6785149574279785,-1.13033926486969
1783696642094896000,7.691896240234375,0.2806795537471771,2.592193841934204,-0.9253568649291992
1783696642104859100,7.701859130859375,0.28937068581581116,2.362015724182129,-0.704363226890564
1783696642114822100,7.711822265625,0.30620983242988586,2.0576722621917725,-0.490116149187088
1783696642124785200,7.72178515625,0.31776997447013855,1.7030261754989624,-0.2832414209842682
1783696642134748000,7.731747802734375,0.29810410737991333,1.3016457557678223,-0.0456714928150177
1783696642144711000,7.7417109375,0.23367522656917572,0.8661155104637146,0.22129948437213898
1783696642154674200,7.751674072265625,0.16224844753742218,0.40147995948791504,0.501166820526123
1783696642164637200,7.76163720703125,0.10232128202915192,-0.04963309317827225,0.7538150548934937
1783696642174600200,7.77160009765625,0.05871787667274475,-0.3906838893890381,0.9530695676803589
1783696642184564200,7.781564208984375,0.03478541970252991,-0.568809986114502,1.0716298818588257
1783696642194527200,7.79152734375,0.03790824115276337,-0.5681082010269165,1.101332187652588
1783696642204490200,7.801490234375,0.061124153435230255,-0.4217960238456726,1.0595638751983643
1783696642214453000,7.811452880859375,0.04684961214661598,-0.2257881462574005,0.9651820063591003
1783696642224416000,7.821416015625,0.0023416499607264996,0.011922971345484257,0.8452572226524353
1783696642234379000,7.83137890625,0.01075031515210867,0.3912026286125183,0.7317543625831604
1783696642244342000,7.841342041015625,0.055563654750585556,0.8532037138938904,0.5910019874572754
1783696642254305000,7.851304931640625,0.07205847650766373,1.2694512605667114,0.3352905809879303
1783696642264268000,7.86126806640625,0.054262589663267136,1.648642897605896,-0.0006448987405747175
1783696642274232000,7.871232177734375,0.03649877384305,2.0288848876953125,-0.2755635380744934
1783696642284195000,7.881195068359375,0.057559408247470856,2.22872257232666,-0.42211249470710754
1783696642294158000,7.891157958984375,0.060327500104904175,2.1223514080047607,-0.4918700158596039
1783696642304121000,7.90112109375,0.019461913034319878,1.7665190696716309,-0.5574924349784851
1783696642314084000,7.911083984375,-0.02024102583527565,1.0812722444534302,-0.7088297605514526
1783696642324047000,7.921047119140625,-0.051446299999952316,0.09033726900815964,-0.9488839507102966
1783696642334010000,7.931010009765625,-0.019065991044044495,-0.8812211751937866,-1.1336908340454102
1783696642343973000,7.94097314453125,0.07139644771814346,-1.613774061203003,-1.1656886339187622
1783696642353936000,7.950935791015625,0.19640202820301056,-2.105576276779175,-1.0792800188064575
1783696642363899000,7.96089892578125,0.354894757270813,-2.37184476852417,-0.9634644389152527
1783696642373863000,7.97086279296875,0.4934033751487732,-2.4988365173339844,-0.9544762969017029
1783696642383826000,7.980825927734375,0.5801953673362732,-2.4246575832366943,-1.0504416227340698
1783696642393789000,7.990788818359375,0.6509827375411987,-1.9857287406921387,-1.1364179849624634
1783696642403752200,8.000752197265625,0.7325140237808228,-1.2241591215133667,-1.1572327613830566
1783696642413715200,8.010715087890626,0.7779605984687805,-0.39235296845436096,-1.1357568502426147
1783696642423678200,8.02067822265625,0.6995148658752441,0.2200314998626709,-1.1125277280807495
1783696642433641000,8.030640869140624,0.5625996589660645,0.5927670001983643,-1.064828872680664
1783696642443604000,8.04060400390625,0.41487815976142883,0.838524341583252,-0.9561456441879272
1783696642453567000,8.05056689453125,0.24629981815814972,0.9400696158409119,-0.7909870147705078
1783696642463530000,8.060530029296874,0.0298685971647501,0.9170383214950562,-0.5790432095527649
1783696642473494000,8.070493896484376,-0.21754306554794312,0.815125048160553,-0.3591776490211487
1783696642483457000,8.08045703125,-0.4690680205821991,0.6656999588012695,-0.15108615159988403
1783696642493420000,8.090419921875,-0.6625391840934753,0.5196421146392822,0.06478435546159744
1783696642503383000,8.100383056640625,-0.7748713493347168,0.4641531705856323,0.28588682413101196
1783696642513346000,8.110345947265625,-0.8346648812294006,0.46770793199539185,0.5056777596473694
1783696642523309000,8.12030908203125,-0.8645334243774414,0.4520449936389923,0.7237258553504944
1783696642533272000,8.13027197265625,-0.8635616302490234,0.4017682671546936,0.9405769109725952
1783696642543235000,8.140235107421875,-0.8195585608482361,0.3619050979614258,1.1566376686096191
1783696642553198000,8.150197998046876,-0.742816686630249,0.36319833993911743,1.3667478561401367
1783696642563161000,8.1601611328125,-0.6624423861503601,0.3992934226989746,1.5632920265197754
1783696642573125000,8.170125,-0.5969605445861816,0.43732014298439026,1.7326821088790894
1783696642583088000,8.180088134765626,-0.5515896081924438,0.4627045691013336,1.843828797340393
1783696642593051000,8.19005078125,-0.5095633268356323,0.4707917869091034,1.8851910829544067
1783696642603014000,8.200013916015624,-0.4728846549987793,0.46219754219055176,1.8542922735214233
1783696642612977200,8.20997705078125,-0.4445163905620575,0.41497597098350525,1.797220230102539
1783696642622940200,8.219940185546875,-0.42100444436073303,0.343621164560318,1.7492212057113647
1783696642632903200,8.229903076171874,-0.41746482253074646,0.23685744404792786,1.6843228340148926
1783696642642866200,8.2398662109375,-0.4436361789703369,0.08096084743738174,1.5816411972045898
1783696642652829200,8.2498291015625,-0.48592132329940796,-0.1064700335264206,1.4164890050888062
1783696642662792000,8.2597919921875,-0.5390363335609436,-0.23592695593833923,1.181138038635254
1783696642672756000,8.269755859375,-0.6058254837989807,-0.22598670423030853,0.8953856825828552
1783696642682719000,8.279718994140625,-0.6028369069099426,-0.2143954336643219,0.6167728304862976
1783696642692682000,8.289681884765624,-0.45414456725120544,-0.33979037404060364,0.37823352217674255
1783696642702645000,8.29964501953125,-0.22813627123832703,-0.48513615131378174,0.20797275006771088
1783696642712608000,8.30960791015625,0.008840859867632389,-0.6091310381889343,0.062110885977745056
1783696642722571000,8.319571044921876,0.1767665594816208,-0.7520129084587097,-0.14678461849689484
1783696642732534300,8.3295341796875,0.2546224594116211,-0.8558266758918762,-0.43619590997695923
1783696642742497000,8.3394970703125,0.24813790619373322,-0.6174065470695496,-0.6792960166931152
1783696642752460000,8.3494599609375,0.15303935110569,-0.07410839200019836,-0.7522181272506714
1783696642762423000,8.359423095703125,0.016532907262444496,0.5026039481163025,-0.6743089556694031
1783696642772387000,8.369386962890625,-0.06867226958274841,0.799492359161377,-0.5544850826263428
1783696642782350000,8.37935009765625,-0.06884211301803589,0.5934479832649231,-0.5505879521369934
1783696642792313000,8.38931298828125,-0.029579658061265945,0.006543767638504505,-0.6900457143783569
1783696642802276000,8.399276123046874,0.0281430184841156,-0.6187236309051514,-0.8587207198143005
1783696642812239000,8.409239013671876,0.15890395641326904,-1.1136380434036255,-0.9667521119117737
1783696642822201900,8.419201904296875,0.32167816162109375,-1.389884352684021,-0.9686708450317383
1783696642832165000,8.4291650390625,0.4402309060096741,-1.5441343784332275,-0.9302515387535095
1783696642842128000,8.4391279296875,0.4943235516548157,-1.6926782131195068,-0.9341146945953369
1783696642852091000,8.4490908203125,0.4886459410190582,-1.7243108749389648,-0.9813045859336853
1783696642862055000,8.459054931640624,0.45987528562545776,-1.509339690208435,-1.0127935409545898
1783696642872018000,8.469017822265625,0.45133987069129944,-1.0713740587234497,-0.9843258857727051
1783696642881981000,8.47898095703125,0.461788535118103,-0.5076993107795715,-0.9199979305267334
1783696642891944000,8.48894384765625,0.43363574147224426,-0.01724676601588726,-0.9212618470191956
1783696642901907000,8.498906982421875,0.3836381435394287,0.30584821105003357,-1.0104843378067017
1783696642911870000,8.508869873046875,0.3545880913734436,0.49819260835647583,-1.148510217666626
1783696642921832700,8.518832763671876,0.3299179971218109,0.5546814799308777,-1.2885150909423828
1783696642931795700,8.528795654296875,0.3072180151939392,0.47745537757873535,-1.3919637203216553
1783696642941759000,8.538759033203124,0.25006547570228577,0.35591015219688416,-1.4309709072113037
1783696642951722000,8.548721923828126,0.12480103224515915,0.28208041191101074,-1.3759961128234863
1783696642961686000,8.55868603515625,-0.06938380002975464,0.24102924764156342,-1.2262747287750244
1783696642971649000,8.56864892578125,-0.27429860830307007,0.20217399299144745,-1.0026565790176392
1783696642981612000,8.578612060546876,-0.45822393894195557,0.19299402832984924,-0.7231935262680054
1783696642991575000,8.588574951171875,-0.6079927086830139,0.23178669810295105,-0.4048387110233307
1783696643001537800,8.598537841796874,-0.7095895409584045,0.3054690659046173,-0.058020398020744324
1783696643011500800,8.608500732421875,-0.769100546836853,0.38746219873428345,0.2950229048728943
1783696643021463800,8.6184638671875,-0.812916100025177,0.4454042613506317,0.6219812631607056
1783696643031426800,8.6284267578125,-0.8341804146766663,0.45844948291778564,0.9020261764526367
1783696643041389800,8.638389892578125,-0.826747477054596,0.46787479519844055,1.1183909177780151
1783696643051353000,8.64835302734375,-0.7958186268806458,0.49595409631729126,1.2672812938690186
1783696643061316900,8.65831689453125,-0.7523930668830872,0.5389517545700073,1.3659230470657349
1783696643071280000,8.668280029296875,-0.7232884764671326,0.5819777846336365,1.4283345937728882
1783696643081243000,8.678242919921875,-0.7124581336975098,0.614136278629303,1.4820137023925781
1783696643091206000,8.688205810546876,-0.7280938625335693,0.5978188514709473,1.4981633424758911
1783696643101169000,8.6981689453125,-0.7984300255775452,0.5297654271125793,1.492081642150879
1783696643111132000,8.7081318359375,-0.9123467803001404,0.4510341286659241,1.4732674360275269
1783696643121095000,8.718094970703126,-0.9991008043289185,0.39398711919784546,1.428069829940796
1783696643131058000,8.728057861328125,-1.0556827783584595,0.3719249665737152,1.3641486167907715
1783696643141021000,8.73802099609375,-1.079350233078003,0.37549135088920593,1.2955868244171143
1783696643150984000,8.74798388671875,-1.0714846849441528,0.3979361951351166,1.2027945518493652
1783696643160947700,8.75794775390625,-1.02523934841156,0.36893120408058167,1.1011213064193726
1783696643170910700,8.76791064453125,-0.9316224455833435,0.18170779943466187,0.9587854743003845
1783696643180874000,8.7778740234375,-0.8093745708465576,-0.21291449666023254,0.7022614479064941
1783696643190837000,8.7878369140625,-0.6672565937042236,-0.6850295662879944,0.3027825355529785
1783696643200800000,8.797800048828124,-0.4488535225391388,-0.9195640683174133,-0.19049791991710663
1783696643210763000,8.807762939453125,-0.18138214945793152,-0.7537612318992615,-0.7125381827354431
1783696643220726000,8.81772607421875,0.043443262577056885,-0.28721514344215393,-1.2744723558425903
1783696643230688800,8.827688720703126,0.11197305470705032,0.22396689653396606,-1.7971112728118896
1783696643240651800,8.83765185546875,-0.02093326672911644,0.6933968663215637,-2.153881788253784
1783696643250614800,8.84761474609375,-0.22927476465702057,1.0290203094482422,-2.3651955127716064
1783696643260578800,8.857578857421874,-0.3878040909767151,1.1111094951629639,-2.500173330307007
1783696643270541800,8.867541748046875,-0.4872494637966156,0.7928651571273804,-2.6546006202697754
1783696643280504800,8.8775048828125,-0.4618869721889496,0.21980956196784973,-2.797447919845581
1783696643290468000,8.887468017578126,-0.2789437770843506,-0.34521785378456116,-2.7610316276550293
1783696643300431000,8.89743115234375,-0.046996597200632095,-0.7637729644775391,-2.47932505607605
1783696643310393900,8.907393798828124,0.1117887869477272,-0.9523290395736694,-2.0058281421661377
1783696643320356900,8.91735693359375,0.12415223568677902,-0.9354020953178406,-1.4942781925201416
1783696643330320000,8.92731982421875,0.032645221799612045,-0.8996699452400208,-1.0896281003952026
1783696643340283000,8.937282958984374,-0.041312918066978455,-1.0506011247634888,-0.7987106442451477
1783696643350246000,8.947245849609375,-0.03805507346987724,-1.2531259059906006,-0.5083671808242798
1783696643360210000,8.9572099609375,0.039713919162750244,-1.3570786714553833,-0.18074169754981995
1783696643370173000,8.9671728515625,0.12919506430625916,-1.3236678838729858,0.1212083026766777
1783696643380136000,8.977135986328125,0.22808173298835754,-1.173898458480835,0.313382625579834
1783696643390098700,8.9870986328125,0.3479655385017395,-0.9715080857276917,0.3741293251514435
1783696643400062000,8.99706201171875,0.46773165464401245,-0.7578275799751282,0.3147486448287964
1783696643410025000,9.00702490234375,0.5252377986907959,-0.514340877532959,0.17050759494304657
1783696643419988000,9.016988037109375,0.5276259183883667,-0.23367683589458466,0.0050940364599227905
1783696643429951000,9.026950927734376,0.4935896396636963,0.0516023188829422,-0.12754496932029724
1783696643439914000,9.0369140625,0.43666377663612366,0.27339839935302734,-0.21233148872852325
1783696643449877000,9.046876953125,0.35492658615112305,0.3511731028556824,-0.2672189772129059
1783696643459839700,9.05683984375,0.2853311598300934,0.29412826895713806,-0.2697327435016632
1783696643469803800,9.0668037109375,0.2509167492389679,0.21610936522483826,-0.23217737674713135
1783696643479766800,9.076766845703125,0.25101956725120544,0.17440617084503174,-0.14291131496429443
1783696643489729800,9.086729736328126,0.2815553843975067,0.18407663702964783,-0.016739530488848686
1783696643499692800,9.09669287109375,0.31259843707084656,0.2254728525876999,0.11422496289014816
1783696643509656000,9.106656005859374,0.3367951214313507,0.24889588356018066,0.26384904980659485
1783696643519619000,9.116619140625,0.3652229905128479,0.18774881958961487,0.4456882178783417
1783696643529582000,9.12658203125,0.3870055079460144,0.07081127166748047,0.6618505716323853
1783696643539544800,9.136544921875,0.3932560682296753,-0.06154357269406319,0.8859748244285583
1783696643549507800,9.1465078125,0.36344170570373535,-0.18571746349334717,1.0853351354599
1783696643559471900,9.156471923828125,0.3253806233406067,-0.24736268818378448,1.2271870374679565
1783696643569435000,9.166434814453124,0.304775208234787,-0.2184588611125946,1.3184643983840942
1783696643579398000,9.17639794921875,0.28607702255249023,-0.1724305897951126,1.343445897102356
1783696643589361000,9.18636083984375,0.25982755422592163,-0.16274574398994446,1.3345130681991577
1783696643599324000,9.196323974609374,0.2365814447402954,-0.20524442195892334,1.313127040863037
1783696643609287000,9.206286865234375,0.24959418177604675,-0.25274989008903503,1.2956631183624268
1783696643619250000,9.21625,0.305114209651947,-0.2678278982639313,1.2770706415176392
1783696643629213000,9.226212890625,0.41426944732666016,-0.21969342231750488,1.2115459442138672
1783696643639176000,9.236176025390625,0.570289671421051,-0.05067228525876999,1.1379985809326172
1783696643649139000,9.246138916015624,0.7145488858222961,0.15495304763317108,1.0076311826705933
1783696643659102000,9.25610205078125,0.8115733861923218,0.2922106683254242,0.8129190802574158
1783696643669066000,9.26606591796875,0.8936722874641418,0.33069705963134766,0.6559624671936035
1783696643679029000,9.276029052734375,0.9291526675224304,0.13713352382183075,0.5926689505577087
1783696643688992000,9.285991943359376,0.8392536640167236,-0.12779535353183746,0.5874099731445312
1783696643698954800,9.295954833984375,0.6261908411979675,-0.15568433701992035,0.6225253343582153
1783696643708917800,9.305917724609374,0.3804421126842499,0.2536222040653229,0.708309531211853
1783696643723240000,9.320239990234375,0.1779809594154358,0.9974418878555298,0.9238165020942688
1783696643733203000,9.330202880859375,0.09728983789682388,1.108704924583435,1.0271484851837158
1783696643743166000,9.340166015625,-0.019913753494620323,0.9479227662086487,1.0456126928329468
1783696643753129000,9.35012890625,-0.13854603469371796,0.34590762853622437,0.8728787899017334
1783696643763091700,9.360091796875,-0.21456490457057953,-0.4700753390789032,0.4802563786506653
1783696643773055700,9.3700556640625,-0.2500306963920593,-1.1768121719360352,0.061433739960193634
