time,seconds_elapsed,z,y,x
1783696783160602000,0.06760205078125,-0.5547077655792236,-0.8826884627342224,-1.626451015472412
1783696783170565000,0.077565185546875,-0.4663907289505005,-0.5760284662246704,-1.7788581848144531
1783696783180528000,0.087528076171875,-0.2447108030319214,-0.03677115961909294,-1.7179588079452515
1783696783190491100,0.0974912109375,0.005202184431254864,0.45474857091903687,-1.552708387374878
1783696783200454100,0.1074541015625,0.1626996546983719,0.7047416567802429,-1.3871194124221802
1783696783210417200,0.117417236328125,0.24074316024780273,0.6486063003540039,-1.255377173423767
1783696783220380400,0.12738037109375,0.30315327644348145,0.3166520893573761,-1.1942647695541382
1783696783230343200,0.13734326171875,0.36610686779022217,-0.19589895009994507,-1.2464072704315186
1783696783240306200,0.14730615234375,0.45719683170318604,-0.7362354397773743,-1.452802062034607
1783696783250269200,0.157269287109375,0.5265753269195557,-1.1504991054534912,-1.7684588432312012
1783696783260232200,0.167232177734375,0.48214930295944214,-1.2897039651870728,-2.0967700481414795
1783696783270195200,0.1771953125,0.3857472240924835,-1.0871734619140625,-2.2974932193756104
1783696783280158200,0.187158203125,0.3384702503681183,-0.5878469347953796,-2.278839111328125
1783696783290121200,0.197121337890625,0.31623169779777527,0.03776632621884346,-2.085580348968506
1783696783300084200,0.207084228515625,0.22429218888282776,0.6303848624229431,-1.798363447189331
1783696783310047200,0.217047119140625,0.04863801598548889,1.138434886932373,-1.4429019689559937
1783696783320010200,0.22701025390625,-0.1331656128168106,1.4050841331481934,-1.0559803247451782
1783696783329973200,0.23697314453125,-0.2713218927383423,1.2464886903762817,-0.6805896162986755
1783696783339936300,0.246936279296875,-0.3462246060371399,0.7573917508125305,-0.3146821856498718
1783696783349899300,0.256899169921875,-0.3655656576156616,0.24913083016872406,0.07298550754785538
1783696783359862000,0.266862060546875,-0.3615695834159851,-0.14352908730506897,0.45653796195983887
1783696783369825000,0.276824951171875,-0.33623021841049194,-0.38227978348731995,0.7837066054344177
1783696783379788300,0.286788330078125,-0.2814127504825592,-0.43571826815605164,1.021547555923462
1783696783389751300,0.296751220703125,-0.20794518291950226,-0.3277644217014313,1.172353744506836
1783696783399714300,0.30671435546875,-0.12208593636751175,-0.12388824671506882,1.2577770948410034
1783696783409677300,0.31667724609375,-0.052799925208091736,0.10265094041824341,1.2858914136886597
1783696783419640300,0.326640380859375,0.006113194860517979,0.29633864760398865,1.2676862478256226
1783696783429603000,0.33660302734375,0.0406576469540596,0.4170573651790619,1.2103770971298218
1783696783439566000,0.346566162109375,0.032321151345968246,0.4244753420352936,1.1103568077087402
1783696783449529000,0.356529052734375,-0.014219685457646847,0.3130359351634979,0.9697360992431641
1783696783459492000,0.3664921875,-0.05651494488120079,0.12363458424806595,0.8063399791717529
1783696783469455400,0.376455322265625,-0.0623394250869751,-0.039758652448654175,0.6816663146018982
1783696783479418400,0.38641845703125,-0.04690134897828102,-0.11136332899332047,0.6055052280426025
1783696783489381400,0.39638134765625,-0.010404707863926888,-0.13132746517658234,0.5786759853363037
1783696783499344100,0.40634423828125,0.050629351288080215,-0.13675925135612488,0.6165735125541687
1783696783509307100,0.41630712890625,0.12728029489517212,-0.17522966861724854,0.7215492725372314
1783696783519270100,0.426270263671875,0.20192471146583557,-0.2895708680152893,0.8838897347450256
1783696783529233200,0.436233154296875,0.24773918092250824,-0.44597432017326355,1.0976502895355225
1783696783539196200,0.446196044921875,0.23843543231487274,-0.5954002737998962,1.3293993473052979
1783696783549159200,0.4561591796875,0.19025592505931854,-0.659497857093811,1.5417112112045288
1783696783559122400,0.466122314453125,0.12032104283571243,-0.5747214555740356,1.7194463014602661
1783696783569085200,0.476085205078125,-0.0035921630915254354,-0.3756871521472931,1.8174055814743042
1783696783579048200,0.486048095703125,-0.12961295247077942,-0.11610856652259827,1.8439922332763672
1783696783589011200,0.49601123046875,-0.1843264400959015,0.25102415680885315,1.82258141040802
1783696783598974200,0.50597412109375,-0.1376899629831314,0.7029801607131958,1.7063640356063843
1783696783608937200,0.515937255859375,0.014784476719796658,1.1088069677352905,1.4172495603561401
1783696783618900200,0.525900146484375,0.24130310118198395,1.3460272550582886,0.9002801775932312
1783696783628863000,0.535863037109375,0.4581943154335022,1.3985826969146729,0.1790096014738083
1783696783638826200,0.545826171875,0.5350033640861511,1.1343777179718018,-0.6583529710769653
1783696783648789200,0.555789306640625,0.41555750370025635,0.6298717260360718,-1.4918526411056519
1783696783658752300,0.565752197265625,0.09096904844045639,0.23622851073741913,-2.164069414138794
1783696783668715300,0.57571533203125,-0.28588157892227173,0.2142171412706375,-2.614572048187256
1783696783678678300,0.58567822265625,-0.5142298340797424,0.484417200088501,-2.9123151302337646
1783696783688641300,0.595641357421875,-0.6335777640342712,0.9148858785629272,-3.1164793968200684
1783696783698604000,0.60560400390625,-0.700175940990448,1.4072097539901733,-3.211000442504883
1783696783708567000,0.615567138671875,-0.6755248308181763,1.9292044639587402,-3.2215023040771484
1783696783718530300,0.6255302734375,-0.6017483472824097,2.325286626815796,-3.2287650108337402
1783696783728493300,0.635493408203125,-0.6075949668884277,2.125405788421631,-3.299206018447876
1783696783738456300,0.645456298828125,-0.7181829810142517,1.4287285804748535,-3.293700695037842
1783696783748419300,0.65541943359375,-0.8540037870407104,0.7464766502380371,-3.1242783069610596
1783696783758382300,0.66538232421875,-0.9548220038414001,0.09430017322301865,-2.8686013221740723
1783696783768345000,0.675344970703125,-0.9700160026550293,-0.37841638922691345,-2.5266380310058594
1783696783778308000,0.68530810546875,-0.9017764925956726,-0.5366928577423096,-2.0986881256103516
1783696783788271000,0.69527099609375,-0.7604488730430603,-0.4236820638179779,-1.6313952207565308
1783696783798234000,0.705234130859375,-0.5990093946456909,-0.20609194040298462,-1.2104607820510864
1783696783808197400,0.715197265625,-0.5296710133552551,-0.0685410276055336,-0.8432046175003052
1783696783818160400,0.725160400390625,-0.5130624771118164,0.020366210490465164,-0.4984959363937378
1783696783828123100,0.735123046875,-0.48346009850502014,0.06479618698358536,-0.15827922523021698
1783696783838086100,0.745086181640625,-0.41580089926719666,0.08189527690410614,0.16296032071113586
1783696783848049200,0.755049072265625,-0.3216096758842468,0.07036639004945755,0.46301764249801636
1783696783858012200,0.76501220703125,-0.20244362950325012,0.048124730587005615,0.7380225658416748
1783696783867975200,0.77497509765625,-0.06160661578178406,0.043416865170001984,0.9890867471694946
1783696783877938200,0.784938232421875,0.07138366252183914,0.06831502169370651,1.2063924074172974
1783696783887901200,0.794901123046875,0.17564760148525238,0.11410463601350784,1.359988808631897
1783696783897864200,0.8048642578125,0.2670520842075348,0.18420197069644928,1.466490387916565
1783696783907827200,0.8148271484375,0.3566057085990906,0.29767897725105286,1.5489153861999512
1783696783917790200,0.824790283203125,0.43792614340782166,0.4288591146469116,1.6316827535629272
1783696783927753200,0.834753173828125,0.5030672550201416,0.5300606489181519,1.7121578454971313
1783696783937716200,0.84471630859375,0.5247957110404968,0.5650290250778198,1.7886967658996582
1783696783947679200,0.85467919921875,0.4974367916584015,0.5174795389175415,1.8429296016693115
1783696783957642200,0.864642333984375,0.43137601017951965,0.37758827209472656,1.8748787641525269
1783696783967605000,0.87460498046875,0.3513312041759491,0.18262214958667755,1.8961851596832275
1783696783977568500,0.884568603515625,0.28885984420776367,-0.03203289955854416,1.9072105884552002
1783696783987531500,0.894531494140625,0.25682127475738525,-0.22913657128810883,1.915257215499878
1783696783997494500,0.90449462890625,0.2625787556171417,-0.33579057455062866,1.9351675510406494
1783696784007457500,0.91445751953125,0.3087158799171448,-0.296556293964386,2.000657320022583
1783696784017420500,0.924420654296875,0.353495329618454,-0.08518731594085693,2.1102683544158936
1783696784027383600,0.934383544921875,0.37436553835868835,0.2660549283027649,2.2636146545410156
1783696784037346300,0.94434619140625,0.4224470555782318,0.5930604934692383,2.449080467224121
1783696784047309300,0.954309326171875,0.4329242706298828,0.5463792085647583,2.570007085800171
1783696784057272300,0.964272216796875,0.3815990388393402,-0.053048275411129,2.5814497470855713
1783696784067235600,0.974235595703125,0.2855815291404724,-1.0541526079177856,2.4443559646606445
1783696784077198600,0.984198486328125,0.17992167174816132,-1.8597875833511353,2.167046308517456
1783696784087161600,0.99416162109375,0.12072135508060455,-2.078444004058838,1.814860224723816
1783696784097124400,1.004124267578125,0.1527823507785797,-1.803856372833252,1.452722430229187
1783696784107087400,1.01408740234375,0.2722615599632263,-1.2533842325210571,1.0982155799865723
1783696784117050400,1.02405029296875,0.33958202600479126,-0.6460906267166138,0.723815381526947
1783696784127013400,1.034013427734375,0.28686046600341797,-0.2818169593811035,0.26209756731987
1783696784136976400,1.043976318359375,0.12699170410633087,-0.2647128105163574,-0.33027228713035583
1783696784146939400,1.053939453125,-0.11679219454526901,-0.4305518865585327,-0.982578694820404
1783696784156902700,1.063902587890625,-0.29741308093070984,-0.3316119909286499,-1.4943301677703857
1783696784166865400,1.073865478515625,-0.2566167414188385,0.06995036453008652,-1.7361708879470825
1783696784176828400,1.083828369140625,-0.07862675935029984,0.40535232424736023,-1.7871116399765015
1783696784186791400,1.09379150390625,0.0999131053686142,0.5640601515769958,-1.7150803804397583
1783696784196754400,1.10375439453125,0.23546133935451508,0.5671305060386658,-1.551384687423706
1783696784206717400,1.113717529296875,0.3088221251964569,0.42457854747772217,-1.360187292098999
1783696784216680400,1.123680419921875,0.2966648042201996,0.13897421956062317,-1.1978623867034912
1783696784226643500,1.1336435546875,0.18447396159172058,-0.28925764560699463,-1.0997698307037354
1783696784236606500,1.1436064453125,-0.006762567907571793,-0.8126524090766907,-1.0479580163955688
1783696784246569500,1.153569580078125,-0.21205364167690277,-1.3274911642074585,-1.0251820087432861
1783696784256532500,1.163532470703125,-0.37500476837158203,-1.707845687866211,-1.0183632373809814
1783696784266495500,1.17349560546875,-0.4457399547100067,-1.9526492357254028,-1.0848195552825928
1783696784276458500,1.18345849609375,-0.3766322731971741,-2.0080623626708984,-1.2173831462860107
1783696784286421500,1.19342138671875,-0.16899187862873077,-1.7900265455245972,-1.3897439241409302
1783696784296384500,1.203384521484375,0.1453322470188141,-1.3514169454574585,-1.5276600122451782
1783696784306347300,1.21334716796875,0.48558181524276733,-0.821434497833252,-1.5895096063613892
1783696784316310500,1.223310546875,0.7605068683624268,-0.33195748925209045,-1.5532560348510742
1783696784326273500,1.2332734375,0.8886198997497559,0.01948334462940693,-1.4299036264419556
1783696784336236500,1.243236572265625,0.8595456480979919,0.16170494258403778,-1.2356526851654053
1783696784346199600,1.253199462890625,0.7394643425941467,0.1821029782295227,-0.9649235606193542
1783696784356162600,1.26316259765625,0.5715104937553406,0.15419438481330872,-0.6597092747688293
1783696784366125300,1.273125244140625,0.3838232159614563,0.10716832429170609,-0.3645387291908264
1783696784376088300,1.28308837890625,0.2216705083847046,0.08741725236177444,-0.07769923657178879
1783696784386051300,1.29305126953125,0.09772001951932907,0.11117660999298096,0.20326726138591766
1783696784396014300,1.303014404296875,0.009569917805492878,0.16016732156276703,0.45992833375930786
1783696784405977600,1.3129775390625,-0.06964997947216034,0.18214112520217896,0.6709974408149719
1783696784415940600,1.322940673828125,-0.13447371125221252,0.1910666972398758,0.8288578987121582
1783696784425903600,1.332903564453125,-0.19646108150482178,0.1602802574634552,0.9150389432907104
1783696784435866400,1.342866455078125,-0.25549986958503723,0.06339099258184433,0.9453220367431641
1783696784445829400,1.352829345703125,-0.3079296350479126,-0.04918614774942398,0.9650392532348633
1783696784455792400,1.36279248046875,-0.3374986946582794,-0.14303861558437347,0.9977399706840515
1783696784465756400,1.37275634765625,-0.3529723584651947,-0.18768183887004852,1.050103783607483
1783696784475719400,1.382719482421875,-0.3686799705028534,-0.16786471009254456,1.1230868101119995
1783696784485681400,1.392681396484375,-0.3626761734485626,-0.06379907578229904,1.1880123615264893
1783696784495645400,1.4026455078125,-0.28797343373298645,0.14058496057987213,1.275982141494751
1783696784505608400,1.4126083984375,-0.11401180177927017,0.4352804124355316,1.430066466331482
1783696784515571500,1.422571533203125,0.131206214427948,0.6525112986564636,1.5725045204162598
1783696784525534500,1.432534423828125,0.3743618428707123,0.7301352620124817,1.6096351146697998
1783696784535497500,1.44249755859375,0.5419703125953674,0.6889579892158508,1.4830279350280762
1783696784545460500,1.45246044921875,0.5782730579376221,0.38528159260749817,1.2126591205596924
1783696784555423500,1.462423583984375,0.4827238917350769,-0.1318664699792862,0.8891084790229797
1783696784565386500,1.472386474609375,0.35132932662963867,-0.5266626477241516,0.6613292098045349
1783696784575349500,1.482349609375,0.25768032670021057,-0.5853366255760193,0.6195551156997681
1783696784585312300,1.492312255859375,0.18633122742176056,-0.2708744704723358,0.6903531551361084
1783696784595275500,1.502275634765625,0.14383436739444733,0.30661630630493164,0.7349185347557068
1783696784605238500,1.512238525390625,0.11866269260644913,0.8247984647750854,0.5961542129516602
1783696784615201500,1.522201416015625,0.08656468242406845,1.0620524883270264,0.2158510684967041
1783696784625164500,1.53216455078125,0.06591261178255081,1.0905671119689941,-0.3206966817378998
1783696784635127600,1.54212744140625,0.1424686312675476,1.1385436058044434,-0.8522444367408752
1783696784645090300,1.55209033203125,0.3254401981830597,1.3003178834915161,-1.2752538919448853
1783696784655053300,1.56205322265625,0.483035683631897,1.4658316373825073,-1.5851950645446777
1783696784665016300,1.572016357421875,0.4732462167739868,1.3169026374816895,-1.7749593257904053
1783696784674979300,1.581979248046875,0.3348428010940552,0.9135152101516724,-1.7106821537017822
1783696784684942600,1.591942626953125,0.21670298278331757,0.5036616921424866,-1.3876352310180664
1783696784694905600,1.601905517578125,0.2193259298801422,-0.007910752668976784,-0.9303755760192871
1783696784704868600,1.61186865234375,0.30829524993896484,-0.6465651392936707,-0.44217896461486816
1783696784714831400,1.621831298828125,0.3838842809200287,-1.304711103439331,-0.009398236870765686
1783696784724794400,1.63179443359375,0.4174140989780426,-1.829057216644287,0.2841644287109375
1783696784734757400,1.64175732421875,0.42297160625457764,-2.084834098815918,0.37163010239601135
1783696784744720400,1.651720458984375,0.4522251486778259,-2.0290117263793945,0.24527019262313843
1783696784754683400,1.661683349609375,0.5274306535720825,-1.6685876846313477,-0.02776799537241459
1783696784764646700,1.671646728515625,0.6510524153709412,-1.0416523218154907,-0.3184080719947815
1783696784774609700,1.681609619140625,0.814915120601654,-0.2636190950870514,-0.5404984354972839
1783696784784572400,1.691572509765625,1.0047968626022339,0.505323052406311,-0.6399412155151367
1783696784794535400,1.701535400390625,1.1662161350250244,1.0895087718963623,-0.6359059810638428
1783696784804498400,1.71149853515625,1.1987063884735107,1.4109363555908203,-0.5601633787155151
1783696784814461400,1.72146142578125,1.1351876258850098,1.509684443473816,-0.41162073612213135
1783696784824424400,1.731424560546875,1.01616370677948,1.424058198928833,-0.21823523938655853
1783696784834387500,1.741387451171875,0.848105788230896,1.1987049579620361,-0.002023573499172926
1783696784844350500,1.7513505859375,0.6553596258163452,0.9256635904312134,0.233873188495636
1783696784854313500,1.7613134765625,0.45337241888046265,0.6624327301979065,0.4904261529445648
1783696784864276500,1.7712763671875,0.2828216850757599,0.4378708004951477,0.7412912249565125
1783696784874239500,1.781239501953125,0.16860347986221313,0.2420930564403534,0.960025429725647
1783696784884202500,1.791202392578125,0.08857028186321259,0.12676768004894257,1.1312305927276611
1783696784894165500,1.80116552734375,0.037899117916822433,0.15863719582557678,1.2733416557312012
1783696784904128500,1.81112841796875,-0.007889917120337486,0.2751883268356323,1.3641464710235596
1783696784914091300,1.82109130859375,-0.03903212398290634,0.40063199400901794,1.3920122385025024
1783696784924054300,1.83105419921875,-0.054956402629613876,0.5189481973648071,1.3736541271209717
1783696784934017500,1.841017578125,-0.05102477967739105,0.5971236824989319,1.3358335494995117
1783696784943980500,1.85098046875,-0.050396185368299484,0.5841551423072815,1.3198027610778809
1783696784953943600,1.860943603515625,-0.06718608736991882,0.4524860978126526,1.3303872346878052
1783696784963906600,1.870906494140625,-0.09641658514738083,0.1800241321325302,1.3219404220581055
1783696784973869600,1.88086962890625,-0.0909762755036354,-0.1493535041809082,1.263493299484253
1783696784983832300,1.890832275390625,-0.021200571209192276,-0.43824303150177,1.161728858947754
1783696784993795000,1.900795166015625,0.08186163753271103,-0.6360027194023132,1.039797067642212
1783696785003758000,1.910758056640625,0.1611563116312027,-0.9134228229522705,0.9285620450973511
1783696785013721300,1.920721435546875,0.20567157864570618,-1.2082887887954712,0.8702744841575623
1783696785023684400,1.930684326171875,0.17234556376934052,-1.4525456428527832,0.8818672895431519
1783696785033647400,1.9406474609375,0.025535890832543373,-1.4795430898666382,0.9441250562667847
1783696785043610400,1.9506103515625,-0.17362745106220245,-1.1780726909637451,1.0503371953964233
1783696785053573000,1.960572998046875,-0.3327611982822418,-0.5805823802947998,1.2024497985839844
1783696785063536000,1.9705361328125,-0.38351497054100037,0.14671891927719116,1.3313699960708618
1783696785073499100,1.9804990234375,-0.29312968254089355,0.6604712009429932,1.288038730621338
1783696785083462100,1.990462158203125,-0.15277709066867828,0.8124443292617798,1.0285121202468872
1783696785093425200,2.000425048828125,-0.1393510401248932,0.6546695828437805,0.5560540556907654
1783696785103388400,2.010388427734375,-0.2906174659729004,0.06095655634999275,-0.09786897897720337
1783696785113351400,2.020351318359375,-0.4834473729133606,-0.6752111911773682,-0.7456661462783813
1783696785123314200,2.030314208984375,-0.5822103023529053,-1.0653510093688965,-1.1697262525558472
1783696785133277200,2.040277099609375,-0.5865887999534607,-0.996144711971283,-1.376185655593872
1783696785143240200,2.050240234375,-0.5754187703132629,-0.7682688236236572,-1.488637089729309
1783696785153203200,2.060203125,-0.5559758543968201,-0.6456555724143982,-1.6252878904342651
1783696785163166200,2.070166259765625,-0.5394027829170227,-0.5954318642616272,-1.8250844478607178
1783696785173129200,2.080129150390625,-0.4946313202381134,-0.5766339302062988,-2.0935118198394775
1783696785183092500,2.090092529296875,-0.4582999050617218,-0.6413002610206604,-2.3997812271118164
1783696785193055200,2.10005517578125,-0.4811181128025055,-0.7673369646072388,-2.6767611503601074
1783696785203018200,2.110018310546875,-0.6016602516174316,-0.8943528532981873,-2.827500343322754
1783696785212981200,2.119981201171875,-0.760998547077179,-0.9206643104553223,-2.819119453430176
1783696785222944300,2.1299443359375,-0.8988991975784302,-0.9465209245681763,-2.6821987628936768
1783696785232907300,2.1399072265625,-0.9500644207000732,-0.9609576463699341,-2.4700381755828857
1783696785242870300,2.149870361328125,-0.8773948550224304,-0.9198198914527893,-2.206690549850464
1783696785252833300,2.159833251953125,-0.6873695254325867,-0.8220539093017578,-1.9187291860580444
1783696785262796300,2.16979638671875,-0.44316425919532776,-0.6564540266990662,-1.6246386766433716
1783696785272759300,2.17975927734375,-0.21331562101840973,-0.47374969720840454,-1.3454147577285767
1783696785282722300,2.189722412109375,-0.06241236999630928,-0.3648830056190491,-1.1050424575805664
1783696785292685300,2.199685302734375,0.012082106433808804,-0.3988446891307831,-0.9001391530036926
1783696785302648300,2.2096484375,0.08420121669769287,-0.5199254155158997,-0.7053529024124146
1783696785312611300,2.219611328125,0.17817458510398865,-0.6636146903038025,-0.5136907696723938
1783696785322574000,2.229573974609375,0.28356754779815674,-0.7706915736198425,-0.30819812417030334
1783696785332537000,2.239537109375,0.38591790199279785,-0.7826572060585022,-0.06670960783958435
1783696785342500000,2.2495,0.4562440514564514,-0.7182087302207947,0.21194137632846832
1783696785352463400,2.25946337890625,0.5131105184555054,-0.5430254936218262,0.5894345641136169
1783696785362426400,2.26942626953125,0.5680617690086365,-0.27923721075057983,1.0345114469528198
1783696785372389400,2.279389404296875,0.6193372011184692,-0.060116320848464966,1.4803975820541382
1783696785382352400,2.289352294921875,0.6382277011871338,0.04263269901275635,1.8456934690475464
1783696785392315100,2.299315185546875,0.595080554485321,0.04240499809384346,2.122575521469116
1783696785402278100,2.309278076171875,0.4797956347465515,-0.020120687782764435,2.2915027141571045
1783696785412241200,2.3192412109375,0.3147214651107788,-0.12716005742549896,2.322112798690796
1783696785422204200,2.3292041015625,0.11722148954868317,-0.23248080909252167,2.2417826652526855
1783696785432167200,2.339167236328125,-0.11678940802812576,-0.3406541347503662,2.123236894607544
1783696785442130400,2.34913037109375,-0.35881078243255615,-0.5016982555389404,1.9588568210601807
1783696785452093400,2.359093505859375,-0.5695198178291321,-0.5346298217773438,1.757256269454956
1783696785462056200,2.36905615234375,-0.7104830741882324,-0.30675092339515686,1.549583077430725
1783696785472019200,2.379019287109375,-0.758333146572113,0.17538641393184662,1.3447191715240479
1783696785481982200,2.388982177734375,-0.7197328805923462,0.8429511785507202,1.1319386959075928
1783696785491945200,2.3989453125,-0.6252231597900391,1.3935738801956177,0.9173915386199951
1783696785501908200,2.408908203125,-0.5185661911964417,1.6279627084732056,0.7126160860061646
1783696785511871200,2.418871337890625,-0.434282511472702,1.5585428476333618,0.5474734902381897
1783696785521834200,2.428834228515625,-0.35792046785354614,1.2549470663070679,0.45279809832572937
1783696785531797200,2.43879736328125,-0.2982443571090698,0.7983084917068481,0.4514753222465515
1783696785541760300,2.44876025390625,-0.2905134856700897,0.3831532299518585,0.5581179261207581
1783696785551723300,2.45872314453125,-0.36005768179893494,0.19482913613319397,0.7652722001075745
1783696785561686300,2.468686279296875,-0.4420035779476166,0.18315765261650085,1.0314160585403442
1783696785571649300,2.478649169921875,-0.40758779644966125,0.2589288353919983,1.296227216720581
1783696785581612300,2.4886123046875,-0.27604344487190247,0.22460748255252838,1.457918405532837
1783696785591575000,2.498574951171875,-0.13615719974040985,-0.00715596741065383,1.4283125400543213
1783696785601538300,2.508538330078125,-0.02871246449649334,-0.40649253129959106,1.198143482208252
1783696785611501300,2.518501220703125,0.05726263299584389,-0.8836076855659485,0.8177601099014282
1783696785621464300,2.52846435546875,0.13982614874839783,-1.235735297203064,0.38610491156578064
1783696785631427300,2.53842724609375,0.235019251704216,-1.2426965236663818,0.023688901215791702
1783696785641390300,2.548390380859375,0.2908090651035309,-0.9379563331604004,-0.22101210057735443
1783696785651353300,2.558353271484375,0.3263382911682129,-0.5090883374214172,-0.3823559880256653
1783696785661316000,2.568316162109375,0.3572661876678467,-0.09703325480222702,-0.5067402720451355
1783696785671279000,2.578279052734375,0.3830570578575134,0.24260632693767548,-0.6420419216156006
1783696785681242000,2.5882421875,0.40924686193466187,0.5153844356536865,-0.8035845756530762
1783696785691205400,2.598205322265625,0.4112442135810852,0.6990533471107483,-0.9964610934257507
1783696785701168400,2.60816845703125,0.3754279315471649,0.670890748500824,-1.2090420722961426
1783696785711131400,2.61813134765625,0.3328903019428253,0.4487963914871216,-1.4000394344329834
1783696785721094100,2.62809423828125,0.315682053565979,0.17445814609527588,-1.5283925533294678
1783696785731057200,2.63805712890625,0.31221434473991394,-0.05858469381928444,-1.58769690990448
1783696785741020200,2.648020263671875,0.312296986579895,-0.21711167693138123,-1.5763356685638428
1783696785750983200,2.657983154296875,0.3136988878250122,-0.2643929123878479,-1.5100032091140747
1783696785760946200,2.6679462890625,0.3014238178730011,-0.17785552144050598,-1.3819520473480225
1783696785770909200,2.6779091796875,0.26478803157806396,0.015723535791039467,-1.1773842573165894
1783696785780872400,2.68787255859375,0.17302444577217102,0.2754621207714081,-0.9228482246398926
1783696785790835200,2.697835205078125,0.032174114137887955,0.5332598686218262,-0.6599513292312622
1783696785800798200,2.707798095703125,-0.10160765051841736,0.8090893626213074,-0.4293684959411621
1783696785810761200,2.71776123046875,-0.18826104700565338,1.0756187438964844,-0.2398507446050644
1783696785820724200,2.72772412109375,-0.21540789306163788,1.2336560487747192,-0.10159005969762802
1783696785830688300,2.737688232421875,-0.21312902867794037,1.2166080474853516,0.020111605525016785
1783696785840651300,2.7476513671875,-0.1827733963727951,1.105495572090149,0.18134050071239471
1783696785850614300,2.7576142578125,-0.14386515319347382,0.9229593276977539,0.36312493681907654
1783696785860577300,2.767577392578125,-0.1105208694934845,0.6978984475135803,0.516829252243042
1783696785870540000,2.7775400390625,-0.06908314675092697,0.4965759515762329,0.6422138214111328
1783696785880503300,2.78750341796875,-0.03129490464925766,0.34551018476486206,0.7591288089752197
1783696785890466300,2.79746630859375,0.002921389415860176,0.21695992350578308,0.8641955852508545
1783696785900429300,2.80742919921875,0.02985089085996151,0.04175939783453941,0.9335159659385681
1783696785910392300,2.817392333984375,0.030244240537285805,-0.21132852137088776,0.9646326303482056
1783696785920355300,2.827355224609375,-0.017171386629343033,-0.42169061303138733,0.9540084600448608
1783696785930318300,2.837318359375,-0.09241367876529694,-0.512252151966095,0.8713873624801636
1783696785940281000,2.847281005859375,-0.14538665115833282,-0.5322012305259705,0.7005295753479004
1783696785950244000,2.857244140625,-0.14537413418293,-0.4636581242084503,0.5419756174087524
1783696785960207000,2.86720703125,-0.06688450276851654,-0.34905514121055603,0.4601554870605469
1783696785970170400,2.87717041015625,0.09232112765312195,-0.2650936543941498,0.47475600242614746
1783696785980134000,2.8871337890625,0.24549850821495056,-0.2705841362476349,0.5645595192909241
1783696785990097000,2.897096923828125,0.33304086327552795,-0.35946738719940186,0.6817519068717957
1783696786000060000,2.907059814453125,0.27748554944992065,-0.4082688093185425,0.76182621717453
1783696786010023000,2.91702294921875,0.09641269594430923,-0.4155443012714386,0.7817879319190979
1783696786019986000,2.92698583984375,-0.12568292021751404,-0.3335006833076477,0.7940623164176941
1783696786029949000,2.936948974609375,-0.3144688010215759,-0.16604937613010406,0.7971832752227783
1783696786039911700,2.94691162109375,-0.43355950713157654,-0.02413894608616829,0.7564058899879456
1783696786049874700,2.956874755859375,-0.42842358350753784,0.005924412980675697,0.6567056179046631
1783696786059837700,2.966837646484375,-0.2848362922668457,-0.07535816729068756,0.4770762622356415
1783696786069801000,2.976801025390625,-0.12121008336544037,-0.31200242042541504,0.18461565673351288
1783696786079764000,2.986763916015625,0.019684094935655594,-0.628006100654602,-0.15281029045581818
1783696786089727000,2.99672705078125,0.1504700630903244,-0.7984119653701782,-0.40202492475509644
1783696786099689700,3.006689697265625,0.2770680785179138,-0.7754229307174683,-0.4864973723888397
1783696786109652700,3.01665283203125,0.37089255452156067,-0.5764773488044739,-0.4343652129173279
1783696786119615700,3.02661572265625,0.41123145818710327,-0.30498045682907104,-0.37567588686943054
1783696786129578800,3.036578857421875,0.4061757028102875,-0.04625061899423599,-0.4065469801425934
1783696786139541800,3.046541748046875,0.36548298597335815,0.23969000577926636,-0.5416336059570312
1783696786149505000,3.056505126953125,0.3023974895477295,0.5143340826034546,-0.7647284865379333
1783696786159468000,3.066468017578125,0.21557678282260895,0.6719112396240234,-1.0605340003967285
1783696786169430800,3.0764306640625,0.13211411237716675,0.7201783657073975,-1.4100255966186523
1783696786179393800,3.086393798828125,0.09356598556041718,0.7096809148788452,-1.7837393283843994
1783696786189356800,3.096356689453125,0.09945636242628098,0.683541476726532,-2.1449999809265137
1783696786199319800,3.10631982421875,0.12205823510885239,0.6558593511581421,-2.4720826148986816
1783696786209282800,3.11628271484375,0.13609574735164642,0.6232276558876038,-2.7486767768859863
1783696786219245800,3.126245849609375,0.1348748356103897,0.6227271556854248,-2.927926778793335
1783696786229208800,3.136208740234375,0.1339256912469864,0.6719948053359985,-2.978153944015503
1783696786239171800,3.146171875,0.1592452973127365,0.7187892198562622,-2.9118189811706543
1783696786249134800,3.156134765625,0.20963390171527863,0.7369725108146667,-2.7394626140594482
1783696786259097900,3.166097900390625,0.27526918053627014,0.7340638041496277,-2.469829797744751
1783696786269060900,3.176060791015625,0.3301832675933838,0.7116237878799438,-2.1311421394348145
1783696786279023900,3.18602392578125,0.33256909251213074,0.6470397710800171,-1.7612636089324951
1783696786288987000,3.19598681640625,0.27206793427467346,0.5430098176002502,-1.3678135871887207
1783696786298949600,3.20594970703125,0.1659732460975647,0.3939982056617737,-0.9795680642127991
1783696786308912600,3.21591259765625,0.06785812973976135,0.16779810190200806,-0.6326947808265686
1783696786318876000,3.2258759765625,0.03272775560617447,-0.08281173557043076,-0.32694339752197266
1783696786328839000,3.2358388671875,0.03519650921225548,-0.2732413411140442,-0.06627427041530609
1783696786338802000,3.245802001953125,0.03555704280734062,-0.384464293718338,0.14508837461471558
1783696786348765000,3.255764892578125,0.018203087151050568,-0.4012344777584076,0.3129689693450928
1783696786358728000,3.26572802734375,0.0011119236005470157,-0.36063992977142334,0.42010194063186646
1783696786368690700,3.275690673828125,-0.01641141064465046,-0.32849636673927307,0.46296125650405884
1783696786378653700,3.28565380859375,-0.023078277707099915,-0.33754217624664307,0.4590144455432892
1783696786388616700,3.29561669921875,-0.009639433585107327,-0.30610623955726624,0.4540921151638031
1783696786398579700,3.305579833984375,0.00874587707221508,-0.15957270562648773,0.49273428320884705
1783696786408543000,3.31554296875,0.026112351566553116,0.02113475650548935,0.531779408454895
1783696786418506000,3.325506103515625,0.03168134018778801,0.09770140796899796,0.5419808626174927
1783696786428469000,3.335468994140625,0.03409096971154213,0.043891970068216324,0.5557528734207153
1783696786438431700,3.345431640625,0.07303203642368317,-0.07199930399656296,0.6161620616912842
1783696786448394800,3.355394775390625,0.17587612569332123,-0.17158982157707214,0.7466412782669067
1783696786458357800,3.365357666015625,0.3034090995788574,-0.21878384053707123,0.9011764526367188
1783696786468320800,3.37532080078125,0.4063519835472107,-0.19354958832263947,0.9786126613616943
1783696786478283800,3.38528369140625,0.4728090465068817,-0.16273388266563416,0.8987694978713989
1783696786488247000,3.3952470703125,0.5465757250785828,-0.25360971689224243,0.7121663093566895
1783696786498209800,3.405209716796875,0.6544701457023621,-0.42778196930885315,0.5916096568107605
1783696786508172800,3.4151728515625,0.7773547768592834,-0.5365177989006042,0.6884299516677856
1783696786518135800,3.4251357421875,0.8534672260284424,-0.5465555787086487,0.931770920753479
1783696786528098800,3.435098876953125,0.8260068297386169,-0.6765457987785339,1.1566236019134521
1783696786538061800,3.445061767578125,0.6722587943077087,-1.0140199661254883,1.1688058376312256
1783696786548024800,3.45502490234375,0.3967896103858948,-1.4279286861419678,0.9017787575721741
1783696786557987800,3.46498779296875,0.06404519826173782,-1.8514978885650635,0.444059818983078
1783696786567950800,3.474950927734375,-0.24974974989891052,-2.0845377445220947,-0.02528955414891243
1783696786577913900,3.484913818359375,-0.4603729546070099,-1.9173686504364014,-0.37132295966148376
1783696786587876900,3.494876953125,-0.5814804434776306,-1.3356584310531616,-0.5663118958473206
1783696786597840000,3.50483984375,-0.5924127697944641,-0.6353418231010437,-0.671908974647522
1783696786607803000,3.514802978515625,-0.5064166188240051,-0.14337311685085297,-0.7881594300270081
1783696786617766000,3.524765869140625,-0.4365732669830322,0.08218339085578918,-0.9278978109359741
1783696786627729000,3.53472900390625,-0.4098239541053772,0.0668526440858841,-1.0620436668395996
1783696786637691600,3.544691650390625,-0.40673530101776123,-0.06926379352807999,-1.1514168977737427
1783696786647654700,3.554654541015625,-0.40351712703704834,-0.21239537000656128,-1.2236233949661255
1783696786657618000,3.564617919921875,-0.3926776647567749,-0.3175484240055084,-1.3135672807693481
1783696786667581700,3.574581787109375,-0.3778960704803467,-0.29065367579460144,-1.435650110244751
1783696786677545000,3.584544921875,-0.3740587532520294,-0.05933645740151405,-1.583478569984436
1783696786687508000,3.594508056640625,-0.3924201726913452,0.30400341749191284,-1.726120948791504
1783696786697470000,3.604469970703125,-0.40351176261901855,0.7378963232040405,-1.8235459327697754
1783696786707434000,3.61443408203125,-0.4086175858974457,1.2377601861953735,-1.863987684249878
1783696786717396700,3.624396728515625,-0.4052045941352844,1.7588804960250854,-1.850527048110962
1783696786727359700,3.63435986328125,-0.3648052513599396,2.2433786392211914,-1.8030836582183838
1783696786737322800,3.64432275390625,-0.2896588146686554,2.622283458709717,-1.718059778213501
1783696786747285800,3.65428564453125,-0.18602003157138824,2.8848929405212402,-1.5877782106399536
1783696786757248800,3.664248779296875,-0.06644978374242783,3.0235722064971924,-1.3964765071868896
1783696786767212000,3.6742119140625,0.07720725238323212,3.0432119369506836,-1.1563986539840698
1783696786777175000,3.684175048828125,0.2604732811450958,2.948383092880249,-0.8903253078460693
1783696786787137800,3.6941376953125,0.47603726387023926,2.7871253490448,-0.606941819190979
1783696786797100800,3.704100830078125,0.7055519223213196,2.601062536239624,-0.32503509521484375
1783696786807063800,3.714063720703125,0.9194453358650208,2.38157057762146,-0.056559160351753235
1783696786817026800,3.72402685546875,1.0974847078323364,2.136061668395996,0.21654187142848969
1783696786826989800,3.73398974609375,1.230018973350525,1.8794019222259521,0.4940515160560608
1783696786836952800,3.743952880859375,1.3385661840438843,1.5858449935913086,0.7651568651199341
1783696786846915800,3.753915771484375,1.407941222190857,1.2481223344802856,1.017179250717163
1783696786856878800,3.76387890625,1.4139286279678345,0.8248259425163269,1.2285313606262207
1783696786866841900,3.773841796875,1.358590841293335,0.32826095819473267,1.415071725845337
1783696786876804900,3.783804931640625,1.2473024129867554,-0.170546293258667,1.5792053937911987
1783696786886767900,3.793767822265625,1.0941112041473389,-0.653286874294281,1.7074449062347412
1783696786896731000,3.80373095703125,0.9020182490348816,-1.1190110445022583,1.783138394355774
1783696786906694000,3.81369384765625,0.6888009905815125,-1.5165053606033325,1.8098623752593994
1783696786916656600,3.82365673828125,0.486150324344635,-1.7934304475784302,1.810523509979248
1783696786926619600,3.83361962890625,0.32921475172042847,-1.8889364004135132,1.8253980875015259
1783696786936583000,3.8435830078125,0.25615987181663513,-1.8136634826660156,1.8810858726501465
1783696786946546000,3.8535458984375,0.2706051170825958,-1.7124301195144653,1.940015435218811
1783696786956509000,3.863509033203125,0.3382246494293213,-1.7259130477905273,1.9301406145095825
1783696786966472000,3.873471923828125,0.41567420959472656,-1.8300226926803589,1.8074537515640259
1783696786976435000,3.88343505859375,0.45992937684059143,-1.997814416885376,1.556762933731079
1783696786986397000,3.89339697265625,0.4786186218261719,-2.0975747108459473,1.242140293121338
1783696786996360000,3.90335986328125,0.49312418699264526,-2.041950225830078,0.8564139604568481
1783696787006323200,3.9133232421875,0.3990200459957123,-1.954695701599121,0.2937823235988617
1783696787016286200,3.9232861328125,0.18684498965740204,-1.4423277378082275,-0.3584851324558258
1783696787026249200,3.933249267578125,-0.0026421246584504843,-0.5255769491195679,-1.0051487684249878
1783696787036212000,3.9432119140625,-0.1232738196849823,0.2434016615152359,-1.6815813779830933
1783696787046175000,3.953175048828125,-0.22698530554771423,0.7089504599571228,-2.3003814220428467
1783696787056138000,3.963137939453125,-0.31289035081863403,1.029425859451294,-2.7001709938049316
1783696787066101000,3.97310107421875,-0.28304511308670044,1.1794601678848267,-2.867722749710083
1783696787076064000,3.98306396484375,-0.17132781445980072,1.1748723983764648,-2.8563692569732666
1783696787086027300,3.99302734375,-0.10181238502264023,1.10261070728302,-2.780315637588501
1783696787095990300,4.002990234375,-0.1531173586845398,0.9486421942710876,-2.7238540649414062
1783696787105953000,4.012953125,-0.36435744166374207,0.7352142930030823,-2.7405335903167725
1783696787115916000,4.022916015625,-0.6931335926055908,0.49313753843307495,-2.830843448638916
1783696787125879000,4.032879150390625,-1.0601266622543335,0.18417888879776,-2.9817299842834473
1783696787135842000,4.042842041015625,-1.3998329639434814,-0.2993052005767822,-3.139040470123291
1783696787145805000,4.05280517578125,-1.6576542854309082,-0.8928676247596741,-3.1932153701782227
1783696787155768000,4.06276806640625,-1.8203221559524536,-1.3325220346450806,-3.0731754302978516
1783696787165731000,4.07273095703125,-1.862366795539856,-1.6493961811065674,-2.827496290206909
1783696787175694000,4.082694091796875,-1.741663932800293,-1.754688024520874,-2.498192548751831
1783696787185657000,4.092656982421875,-1.5143295526504517,-1.656088948249817,-2.1174402236938477
1783696787195620000,4.1026201171875,-1.2737842798233032,-1.3325648307800293,-1.7285411357879639
1783696787205583000,4.1125830078125,-1.0650057792663574,-0.8428952097892761,-1.3617719411849976
1783696787215546000,4.122546142578125,-0.9277015328407288,-0.3247409760951996,-1.0601211786270142
1783696787225509000,4.132509033203125,-0.8576005101203918,0.1256275475025177,-0.820155918598175
1783696787235472000,4.142471923828125,-0.7880780100822449,0.4634719789028168,-0.6094470024108887
1783696787245435000,4.152434814453125,-0.7164453268051147,0.6195880770683289,-0.4024810492992401
1783696787255398100,4.162398193359375,-0.6318854689598083,0.6566937565803528,-0.1641657054424286
1783696787265361200,4.172361083984375,-0.5176430344581604,0.6680678725242615,0.12168469280004501
1783696787275324200,4.18232421875,-0.3629773259162903,0.6847084164619446,0.4465421140193939
1783696787285287200,4.192287109375,-0.16893301904201508,0.6910541653633118,0.7949632406234741
1783696787295250200,4.202250244140625,0.048736706376075745,0.6655852198600769,1.1285192966461182
1783696787305213000,4.212212890625,0.28015607595443726,0.5451269745826721,1.4393490552902222
1783696787315176000,4.222176025390625,0.5011221170425415,0.341196209192276,1.6819180250167847
1783696787325139000,4.232138916015625,0.6756182909011841,0.057941604405641556,1.8109588623046875
1783696787335102200,4.242102294921875,0.7930171489715576,-0.2516501247882843,1.825702428817749
1783696787345065200,4.252065185546875,0.8697404265403748,-0.4956830143928528,1.7306759357452393
1783696787355028200,4.2620283203125,0.9274212718009949,-0.6490737199783325,1.5597994327545166
1783696787364991200,4.2719912109375,0.9597741365432739,-0.713211178779602,1.3618532419204712
1783696787374954000,4.2819541015625,0.9823815822601318,-0.7113556265830994,1.2189013957977295
1783696787384917000,4.2919169921875,0.9876970052719116,-0.5922489166259766,1.169853925704956
1783696787394880000,4.3018798828125,0.9616884589195251,-0.35351619124412537,1.2382407188415527
1783696787404843000,4.311843017578125,0.8725244998931885,-0.0014779716730117798,1.4392627477645874
1783696787414806000,4.321805908203125,0.7015106678009033,0.37267574667930603,1.7374472618103027
1783696787424769300,4.331769287109375,0.4860638380050659,0.5973000526428223,2.085916757583618
1783696787434732300,4.341732177734375,0.33840471506118774,0.6264817118644714,2.3996307849884033
1783696787444695000,4.351695068359375,0.2364213466644287,0.3167765736579895,2.544848680496216
1783696787454658000,4.361657958984375,0.12962152063846588,-0.1386062204837799,2.485224962234497
1783696787464621000,4.37162109375,-0.0019407656509429216,-0.17681485414505005,2.3137073516845703
1783696787474584000,4.381583984375,-0.07457061111927032,0.26097676157951355,2.1113791465759277
1783696787484547000,4.391547119140625,-0.06172219291329384,0.712269127368927,1.8453360795974731
1783696787494510000,4.401510009765625,-0.014033854939043522,0.980737566947937,1.4928768873214722
1783696787504473000,4.41147314453125,0.04123685881495476,0.9564814567565918,1.026200771331787
1783696787514436000,4.42143603515625,0.05920511484146118,0.5786360502243042,0.43419045209884644
1783696787524399000,4.431399169921875,-0.02992316149175167,0.03821325674653053,-0.2251506894826889
1783696787534362000,4.441362060546875,-0.22221945226192474,-0.37182530760765076,-0.8540658354759216
1783696787544325000,4.4513251953125,-0.3560691177845001,-0.4058850109577179,-1.2927271127700806
1783696787554288000,4.4612880859375,-0.34479638934135437,-0.06708650290966034,-1.4992209672927856
1783696787564251100,4.471251220703125,-0.21230866014957428,0.37910109758377075,-1.5080927610397339
1783696787574214000,4.4812138671875,-0.013701079413294792,0.7669111490249634,-1.381589651107788
1783696787584177000,4.491177001953125,0.20274733006954193,0.9791306853294373,-1.185041069984436
1783696787594140200,4.50114013671875,0.3912591338157654,0.9367945790290833,-0.9652042984962463
1783696787604103200,4.511103271484375,0.5457903742790222,0.7494233250617981,-0.72218257188797
1783696787614066200,4.521066162109375,0.6531010270118713,0.43187835812568665,-0.478692889213562
1783696787624029200,4.531029296875,0.6985111236572266,0.04130954667925835,-0.28080058097839355
1783696787633992200,4.5409921875,0.6682364344596863,-0.3521007001399994,-0.16838189959526062
1783696787643955000,4.550954833984375,0.5925105214118958,-0.7071799635887146,-0.14913736283779144
1783696787653918000,4.56091796875,0.5267376899719238,-0.9110413193702698,-0.18853938579559326
1783696787663881000,4.570880859375,0.49362611770629883,-0.924460768699646,-0.2543676495552063
1783696787673844200,4.58084423828125,0.505184531211853,-0.8101900815963745,-0.32904842495918274
1783696787683807200,4.59080712890625,0.5695363283157349,-0.5965819358825684,-0.4064558744430542
1783696787693770200,4.600770263671875,0.6640379428863525,-0.3077307641506195,-0.4714099168777466
1783696787703733000,4.61073291015625,0.7493084073066711,0.03985225036740303,-0.5004703402519226
1783696787713696000,4.620696044921875,0.8544933795928955,0.41654276847839355,-0.4903578460216522
1783696787723659000,4.630658935546875,0.9258639812469482,0.7316610813140869,-0.4424305260181427
1783696787733622000,4.6406220703125,0.9067244529724121,0.9721639752388,-0.3470269739627838
1783696787743585000,4.6505849609375,0.8080918788909912,1.136457085609436,-0.17945048213005066
1783696787753548000,4.660548095703125,0.6523839831352234,1.2240127325057983,0.05955967307090759
1783696787763511300,4.67051123046875,0.47566378116607666,1.2597097158432007,0.34727561473846436
1783696787773474000,4.68047412109375,0.3052729666233063,1.276965856552124,0.6535516977310181
1783696787783437000,4.69043701171875,0.1678384244441986,1.2743115425109863,0.9314927458763123
1783696787793400000,4.700400146484375,0.08455607295036316,1.2445229291915894,1.1547857522964478
1783696787803363000,4.710363037109375,0.051062557846307755,1.2071424722671509,1.3317121267318726
1783696787813326000,4.720326171875,0.02756720595061779,1.171924114227295,1.478696584701538
1783696787823289000,4.7302890625,0.0006999060860835016,1.111642599105835,1.6112396717071533
1783696787833252000,4.740252197265625,-0.023101238533854485,1.015297532081604,1.732021450996399
1783696787843215000,4.750215087890625,-0.04676315560936928,0.8789466023445129,1.8412015438079834
1783696787853178000,4.76017822265625,-0.08289914578199387,0.6753377318382263,1.9219834804534912
1783696787863141000,4.77014111328125,-0.137144535779953,0.4132952392101288,1.9659367799758911
1783696787873104100,4.780104248046875,-0.1958598792552948,0.11873091757297516,1.967890977859497
1783696787883067100,4.790067138671875,-0.23197126388549805,-0.1857277899980545,1.9358587265014648
1783696787893030100,4.800030029296875,-0.21098847687244415,-0.41103237867355347,1.8993184566497803
1783696787902993000,4.809992919921875,-0.1303199976682663,-0.4597778022289276,1.8750159740447998
1783696787912956000,4.819955810546875,-0.022509897127747536,-0.3410869836807251,1.843612551689148
1783696787922919000,4.8299189453125,0.08290866762399673,-0.11430229991674423,1.7526359558105469
1783696787932882200,4.839882080078125,0.18721133470535278,-0.060290951281785965,1.5426619052886963
1783696787942845200,4.84984521484375,0.2809399664402008,-0.43637192249298096,1.2171664237976074
1783696787952808200,4.85980810546875,0.31857016682624817,-1.1391215324401855,0.8365652561187744
1783696787962771200,4.869771240234375,0.28122225403785706,-1.691397786140442,0.5653291940689087
1783696787972734000,4.87973388671875,0.1801345944404602,-1.8144545555114746,0.471529096364975
1783696787982697000,4.889697021484375,0.018861807882785797,-1.6823593378067017,0.45122382044792175
1783696787992660000,4.899659912109375,-0.1913471817970276,-1.5168647766113281,0.3938617408275604
1783696788002623000,4.909623046875,-0.41232696175575256,-1.5211893320083618,0.17349474132061005
1783696788012586200,4.919586181640625,-0.6401494145393372,-1.9054396152496338,-0.3345264494419098
1783696788022549200,4.92954931640625,-0.8476101756095886,-2.3360841274261475,-1.0420212745666504
1783696788032512300,4.93951220703125,-0.9663603901863098,-2.3572840690612793,-1.7497988939285278
1783696788042475300,4.949475341796875,-1.0428569316864014,-1.9368550777435303,-2.346065044403076
1783696788052438000,4.95943798828125,-1.1417306661605835,-1.2208958864212036,-2.795250415802002
1783696788062401000,4.969401123046875,-1.222465991973877,-0.3947508931159973,-3.0780742168426514
1783696788072364000,4.979364013671875,-1.2183680534362793,0.3573206663131714,-3.1812572479248047
1783696788082327000,4.9893271484375,-1.0890915393829346,0.9142382144927979,-3.134796142578125
1783696788092290000,4.9992900390625,-0.8797827363014221,1.246504783630371,-2.99176025390625
1783696788102253300,5.00925341796875,-0.6856470704078674,1.3769288063049316,-2.8248636722564697
1783696788112216300,5.01921630859375,-0.6068951487541199,1.2820148468017578,-2.6747050285339355
1783696788122179000,5.029178955078125,-0.6719872951507568,0.9037730693817139,-2.5545175075531006
1783696788132142000,5.03914208984375,-0.8250656723976135,0.21605440974235535,-2.4375412464141846
1783696788142105000,5.04910498046875,-0.8710017800331116,-0.5043429136276245,-2.2199816703796387
1783696788152068000,5.059068115234375,-0.771679699420929,-1.0591392517089844,-1.8888463973999023
1783696788162031000,5.069031005859375,-0.5749282836914062,-1.5052649974822998,-1.4560670852661133
1783696788171994000,5.078994140625,-0.330392986536026,-1.8714758157730103,-0.9668971300125122
1783696788181957000,5.08895703125,-0.11580400913953781,-2.0093367099761963,-0.4430125653743744
1783696788191920000,5.098920166015625,0.02678050845861435,-1.898424506187439,0.08227822184562683
1783696788201883100,5.108883056640625,0.08216201514005661,-1.575053095817566,0.5733262300491333
1783696788211846100,5.11884619140625,0.05572137609124184,-1.102476954460144,1.0054963827133179
1783696788221809200,5.12880908203125,-0.042976703494787216,-0.5685965418815613,1.3499946594238281
1783696788231772200,5.138772216796875,-0.17124344408512115,-0.10794875025749207,1.5623276233673096
1783696788241735200,5.148735107421875,-0.2746172547340393,0.23608824610710144,1.6504580974578857
1783696788251698000,5.158697998046875,-0.32663947343826294,0.4635133445262909,1.6248509883880615
1783696788261661000,5.168660888671875,-0.3605292737483978,0.5359576940536499,1.5581295490264893
1783696788271624200,5.178624267578125,-0.4586922526359558,0.41269761323928833,1.5223994255065918
1783696788281587200,5.188587158203125,-0.6088370084762573,0.18586204946041107,1.4801931381225586
1783696788291550200,5.19855029296875,-0.7488466501235962,-0.1683019995689392,1.4035029411315918
1783696788301513200,5.20851318359375,-0.7684938311576843,-0.411933571100235,1.3520914316177368
1783696788311476200,5.218476318359375,-0.6560533046722412,-0.3035658299922943,1.3372927904129028
1783696788321439000,5.22843896484375,-0.46866559982299805,0.020964039489626884,1.321670413017273
1783696788331402000,5.238402099609375,-0.27305108308792114,0.3578644096851349,1.2678848505020142
1783696788341365000,5.248364990234375,-0.1312670260667801,0.4574171006679535,1.18173348903656
1783696788351328300,5.258328369140625,-0.04815714806318283,0.4508334696292877,1.1207118034362793
1783696788361291300,5.268291259765625,0.0075860111974179745,0.5348149538040161,1.1119191646575928
1783696788371254300,5.278254150390625,0.09418691694736481,0.6531387567520142,1.1478040218353271
1783696788381217300,5.28821728515625,0.1944163292646408,0.7782977223396301,1.1502867937088013
1783696788391180000,5.298179931640625,0.2857659161090851,0.8570793271064758,1.063615322113037
1783696788401143000,5.30814306640625,0.36833295226097107,0.7538855671882629,0.8859435319900513
1783696788411106000,5.31810595703125,0.4870516061782837,0.39553046226501465,0.7072140574455261
1783696788421692200,5.328692138671875,0.7116663455963135,-0.11959042400121689,0.6684679985046387
1783696788431655200,5.3386552734375,0.9333497285842896,-0.6046969294548035,0.8613037467002869
1783696788441618200,5.3486181640625,0.9999551177024841,-0.9082200527191162,1.2710366249084473
1783696788451581200,5.358581298828125,0.786675214767456,-0.9429976344108582,1.750036358833313
1783696788461544000,5.3685439453125,0.3486376404762268,-0.7262251377105713,2.079908609390259
1783696788471507200,5.378507080078125,-0.04832305759191513,-0.30207616090774536,2.1707141399383545
1783696788481470200,5.38847021484375,-0.24219132959842682,0.020189493894577026,1.961320161819458
1783696788491433200,5.39843310546875,-0.3013935685157776,0.14777208864688873,1.4560670852661133
1783696788501396200,5.408396240234375,-0.3176018297672272,0.2860167920589447,0.7555577158927917
1783696788511359200,5.418359130859375,-0.2887619137763977,0.5741894245147705,0.007923993282020092
1783696788521322000,5.428322021484375,-0.17823010683059692,1.0413886308670044,-0.6654525399208069
1783696788531285000,5.438284912109375,-0.04164545238018036,1.6372358798980713,-1.1760321855545044
1783696788541248000,5.448248046875,0.03803233429789543,2.194627046585083,-1.5054676532745361
1783696788551211000,5.4582109375,0.05509210005402565,2.5429985523223877,-1.6777805089950562
1783696788561174300,5.46817431640625,0.07686637341976166,2.600365161895752,-1.7229112386703491
1783696788571137300,5.47813720703125,0.10858991742134094,2.368635416030884,-1.7106868028640747
1783696788581100300,5.488100341796875,0.09467969834804535,1.9331928491592407,-1.687848687171936
1783696788591063000,5.49806298828125,0.02628643438220024,1.3865995407104492,-1.6718770265579224
1783696788601026000,5.508026123046875,-0.06636014580726624,0.6930356621742249,-1.6761292219161987
1783696788610989000,5.517989013671875,-0.12065001577138901,-0.1916818916797638,-1.6662299633026123
1783696788620952000,5.5279521484375,-0.08632906526327133,-0.9813687801361084,-1.577791690826416
1783696788630915000,5.5379150390625,-0.004564452916383743,-1.5175062417984009,-1.407169222831726
1783696788640878000,5.547878173828125,0.04763590171933174,-1.8079445362091064,-1.2158005237579346
1783696788650841300,5.55784130859375,0.10070879012346268,-1.8050965070724487,-1.0278385877609253
1783696788660804000,5.56780419921875,0.21445320546627045,-1.5484074354171753,-0.8606482744216919
1783696788670767000,5.57776708984375,0.36394330859184265,-1.0958364009857178,-0.7275748252868652
1783696788680730000,5.587730224609375,0.4946177005767822,-0.5186071991920471,-0.6214569211006165
1783696788690693000,5.597693115234375,0.5622679591178894,0.08253245055675507,-0.5459528565406799
1783696788700656000,5.60765625,0.5622493028640747,0.6309505701065063,-0.4796707332134247
1783696788710619100,5.617619140625,0.5118213891983032,1.077965259552002,-0.3979770541191101
1783696788720582000,5.627581787109375,0.4588189125061035,1.420041561126709,-0.27570655941963196
1783696788730545200,5.637545166015625,0.44930750131607056,1.6907927989959717,-0.09149710088968277
1783696788740508200,5.647508056640625,0.4847126305103302,1.9155209064483643,0.13161881268024445
1783696788750471200,5.65747119140625,0.5507060289382935,2.071338176727295,0.38637208938598633
1783696788761056300,5.66805615234375,0.5832211375236511,2.121654510498047,0.6660947799682617
1783696788771019300,5.678019287109375,0.5747146606445312,2.0093212127685547,0.9025450348854065
1783696788780982000,5.68798193359375,0.5535989999771118,1.7142362594604492,1.094303011894226
1783696788790946000,5.697946044921875,0.5478167533874512,1.3666893243789673,1.2572689056396484
1783696788800908000,5.707907958984375,0.5645448565483093,1.0778279304504395,1.390014886856079
1783696788810871000,5.71787109375,0.5887587070465088,0.8678013682365417,1.484594464302063
1783696788820834000,5.727833984375,0.584261417388916,0.6950636506080627,1.5390452146530151
1783696788830797300,5.73779736328125,0.5231477618217468,0.4878680408000946,1.5456995964050293
1783696788840760300,5.74776025390625,0.42786967754364014,0.1710629165172577,1.5038487911224365
1783696788850724000,5.75772412109375,0.34555697441101074,-0.16248635947704315,1.4322811365127563
1783696788860687000,5.76768701171875,0.3030380308628082,-0.38258036971092224,1.3595781326293945
1783696788870650000,5.777650146484375,0.332231342792511,-0.40117913484573364,1.3215901851654053
1783696788880613000,5.787613037109375,0.41609641909599304,-0.2358655482530594,1.317417860031128
1783696788890576100,5.797576171875,0.5248098969459534,0.06189807131886482,1.3211568593978882
1783696788900539100,5.8075390625,0.6041952967643738,0.3793782889842987,1.2989921569824219
1783696788910502100,5.817502197265625,0.6492591500282288,0.6286298036575317,1.209201693534851
1783696788920465200,5.827465087890625,0.6780087351799011,0.7656260132789612,1.005838394165039
1783696788930428000,5.837427978515625,0.6911170482635498,0.6629502773284912,0.6943398118019104
1783696788940391200,5.84739111328125,0.6965488195419312,0.33432474732398987,0.36866044998168945
1783696788950354200,5.857354248046875,0.7202910780906677,-0.07486705482006073,0.15114936232566833
1783696788960317200,5.867317138671875,0.7754965424537659,-0.6812618970870972,0.038983143866062164
1783696788970280200,5.8772802734375,0.8431310653686523,-1.2738945484161377,0.024791250005364418
1783696788980243700,5.88724365234375,0.825519323348999,-1.6844736337661743,0.035677719861269
1783696788990206500,5.89720654296875,0.6677395105361938,-1.998307466506958,-0.06416400521993637
1783696789000169500,5.90716943359375,0.3819948434829712,-2.1554341316223145,-0.33414676785469055
1783696789010132500,5.917132568359375,0.05672334134578705,-1.9360591173171997,-0.6984595656394958
1783696789020095500,5.927095458984375,-0.15841105580329895,-1.3039263486862183,-1.0169352293014526
1783696789030058500,5.93705859375,-0.2520306706428528,-0.40800902247428894,-1.2037723064422607
1783696789040021800,5.947021728515625,-0.2773488163948059,0.48880675435066223,-1.289379358291626
1783696789049984800,5.95698486328125,-0.3082311153411865,1.1906054019927979,-1.3673298358917236
1783696789059947500,5.966947509765625,-0.34691566228866577,1.6688545942306519,-1.469379186630249
1783696789069910500,5.97691064453125,-0.38541629910469055,1.8166855573654175,-1.5931470394134521
1783696789079873500,5.98687353515625,-0.4367932081222534,1.6312049627304077,-1.7050604820251465
1783696789089836500,5.99683642578125,-0.535767674446106,1.1696724891662598,-1.773498773574829
1783696789099799600,6.006799560546875,-0.6339653134346008,0.44092056155204773,-1.7645606994628906
1783696789109762600,6.016762451171875,-0.6884638667106628,-0.3952276110649109,-1.656243920326233
1783696789119725600,6.0267255859375,-0.7764430046081543,-1.1329528093338013,-1.4991682767868042
1783696789129688600,6.0366884765625,-0.9454032778739929,-1.7095566987991333,-1.3549785614013672
1783696789139651600,6.046651611328125,-1.1402567625045776,-1.9953069686889648,-1.2186161279678345
1783696789149614600,6.056614501953125,-1.2745158672332764,-1.8832972049713135,-1.048547387123108
1783696789159577600,6.06657763671875,-1.2680531740188599,-1.403342604637146,-0.8532013893127441
1783696789169540600,6.07654052734375,-1.1608986854553223,-0.7386522889137268,-0.6646873354911804
1783696789179503600,6.086503662109375,-1.068104863166809,-0.07098927348852158,-0.5023641586303711
1783696789189466400,6.09646630859375,-1.045773983001709,0.41979336738586426,-0.34562912583351135
1783696789199429600,6.1064296875,-1.0243136882781982,0.7397010326385498,-0.1987377107143402
1783696789209392600,6.116392578125,-0.9794560074806213,0.8711838722229004,-0.07654336839914322
1783696789219355600,6.126355712890625,-0.9292037487030029,0.8113157153129578,0.04117501154541969
1783696789229318700,6.136318603515625,-0.8792333602905273,0.6605862379074097,0.19681647419929504
1783696789239281700,6.14628173828125,-0.8054507970809937,0.5154005289077759,0.4022948145866394
1783696789249244700,6.15624462890625,-0.6742578148841858,0.37493202090263367,0.6462833881378174
1783696789259207400,6.16620751953125,-0.4858846962451935,0.18965832889080048,0.920680582523346
1783696789269170400,6.17617041015625,-0.28932371735572815,-0.03129430487751961,1.1981345415115356
1783696789279133400,6.186133544921875,-0.1354239135980606,-0.26829034090042114,1.4242331981658936
1783696789289096700,6.1960966796875,-0.05176525563001633,-0.5574589371681213,1.568996787071228
1783696789299059700,6.206059814453125,-0.02404148317873478,-0.8762925863265991,1.655534267425537
1783696789309022700,6.216022705078125,-0.015795834362506866,-1.0839130878448486,1.7145849466323853
1783696789318985700,6.22598583984375,0.011759359389543533,-1.1445610523223877,1.7720597982406616
1783696789328948500,6.235948486328125,0.056524671614170074,-1.0990939140319824,1.8317337036132812
1783696789338911500,6.245911376953125,0.08331634104251862,-1.0156123638153076,1.904755711555481
1783696789348874500,6.25587451171875,0.07824719697237015,-0.9736244678497314,1.969713807106018
1783696789358837500,6.26583740234375,0.05806761980056763,-0.9682714939117432,2.009950637817383
1783696789368800800,6.27580078125,0.05968413129448891,-0.9223684668540955,2.0183496475219727
1783696789378763800,6.285763671875,0.11954666674137115,-0.7631098628044128,2.046841859817505
1783696789388726500,6.2957265625,0.2067428082227707,-0.5307387709617615,2.098097562789917
1783696789398689500,6.305689453125,0.2977187931537628,-0.359637051820755,2.112461805343628
1783696789408652500,6.315652587890625,0.37800705432891846,-0.37200435996055603,2.056227445602417
1783696789418615600,6.325615478515625,0.41206541657447815,-0.6799749732017517,1.8814866542816162
1783696789428578600,6.33557861328125,0.3737868070602417,-1.0602883100509644,1.6321672201156616
1783696789438541600,6.34554150390625,0.2545677423477173,-1.1064517498016357,1.3990471363067627
1783696789448504600,6.355504638671875,0.06467480957508087,-0.8026981353759766,1.2112228870391846
1783696789458467600,6.365467529296875,-0.16003075242042542,-0.382483571767807,1.0054864883422852
1783696789468430600,6.3754306640625,-0.35129356384277344,0.1320463865995407,0.8099046349525452
1783696789478393600,6.3853935546875,-0.4381147623062134,0.603137195110321,0.6417713165283203
1783696789488356600,6.395356689453125,-0.41869956254959106,0.7043352723121643,0.44391563534736633
1783696789498319600,6.405319580078125,-0.33453434705734253,0.431220144033432,0.23242177069187164
1783696789508282600,6.41528271484375,-0.23230354487895966,0.01289988961070776,0.06554894894361496
1783696789518245600,6.42524560546875,-0.14032940566539764,-0.33320823311805725,-0.019416537135839462
1783696789528208400,6.43520849609375,-0.06936555355787277,-0.5480138659477234,-0.016848107799887657
1783696789538171600,6.445171630859375,-0.0309009850025177,-0.7028444409370422,0.020644405856728554
1783696789548134700,6.455134765625,-0.02954818867146969,-0.8477509021759033,0.040978722274303436
1783696789558097700,6.46509765625,-0.0716269314289093,-0.9298348426818848,-0.005856960546225309
1783696789568060700,6.475060791015625,-0.1597568243741989,-0.867640495300293,-0.12866176664829254
1783696789578023700,6.485023681640625,-0.2846723794937134,-0.691243588924408,-0.32487738132476807
1783696789587986400,6.494986328125,-0.3898071050643921,-0.5022420287132263,-0.5725892186164856
1783696789597949400,6.504949462890625,-0.42093226313591003,-0.3589516580104828,-0.8514573574066162
1783696789607912400,6.514912353515625,-0.361845999956131,-0.2514919340610504,-1.1320405006408691
1783696789617875500,6.52487548828125,-0.24946832656860352,-0.16079986095428467,-1.3804458379745483
1783696789627838700,6.534838623046875,-0.13257431983947754,-0.09367384016513824,-1.5944290161132812
1783696789637801700,6.5448017578125,-0.06858042627573013,-0.04125377535820007,-1.7604033946990967
1783696789647764700,6.5547646484375,-0.057024672627449036,0.01587343029677868,-1.8970822095870972
1783696789657727500,6.5647275390625,-0.04634806141257286,0.09100652486085892,-2.0012176036834717
1783696789667690500,6.5746904296875,-0.00585084967315197,0.19842521846294403,-2.032970666885376
1783696789677653500,6.584653564453125,0.06944417208433151,0.30908381938934326,-1.9546394348144531
1783696789687616500,6.594616455078125,0.1634511798620224,0.4219074547290802,-1.7676362991333008
1783696789697579500,6.60457958984375,0.28167474269866943,0.5025421380996704,-1.469120979309082
1783696789707542800,6.614542724609375,0.38684821128845215,0.5315068960189819,-1.0978214740753174
1783696789717505800,6.624505859375,0.44124966859817505,0.5238409638404846,-0.6872645616531372
1783696789727468500,6.634468505859375,0.41854822635650635,0.4605977535247803,-0.2784290015697479
1783696789737431600,6.644431640625,0.31459012627601624,0.3299103081226349,0.08762437105178833
1783696789747394600,6.65439453125,0.16486768424510956,0.16259630024433136,0.3918178975582123
1783696789757357600,6.664357666015625,0.023467684164643288,0.04395274072885513,0.6564908623695374
1783696789767320600,6.674320556640625,-0.09689819812774658,0.03673246502876282,0.8727015256881714
1783696789777283600,6.68428369140625,-0.20998427271842957,0.12208730727434158,1.0124428272247314
1783696789787246600,6.69424658203125,-0.3319985866546631,0.22993837296962738,1.069165587425232
1783696789797209600,6.704209716796875,-0.4428721070289612,0.32257509231567383,1.06373131275177
1783696789807172600,6.714172607421875,-0.5079651474952698,0.37390536069869995,1.0275119543075562
1783696789817135600,6.724135498046875,-0.5129881501197815,0.3991015553474426,0.992616593837738
1783696789827098600,6.7340986328125,-0.4761678874492645,0.3630008399486542,0.9664621353149414
1783696789837061600,6.7440615234375,-0.41356176137924194,0.2565321922302246,0.9602572321891785
1783696789847024600,6.754024658203125,-0.3574114441871643,0.0931646078824997,0.9544873833656311
1783696789856987400,6.7639873046875,-0.3156629502773285,-0.15933901071548462,0.9385808706283569
1783696789866950400,6.773950439453125,-0.2609274089336395,-0.38441359996795654,0.9163585901260376
1783696789876913700,6.78391357421875,-0.1580660045146942,-0.48240116238594055,0.8810218572616577
1783696789886876700,6.793876708984375,-0.020295212045311928,-0.43528512120246887,0.7649022936820984
1783696789896839700,6.803839599609375,0.10816742479801178,-0.22579500079154968,0.5541301369667053
1783696789906802700,6.813802734375,0.17900289595127106,-0.04137025400996208,0.18837669491767883
1783696789916765700,6.823765625,0.20826677978038788,-0.22104999423027039,-0.3488084673881531
1783696789926728400,6.833728515625,0.27145302295684814,-0.49568796157836914,-0.8245893716812134
1783696789936691500,6.84369140625,0.36751589179039,-0.43161097168922424,-1.0336428880691528
1783696789946654500,6.853654541015625,0.4028609097003937,-0.1390756368637085,-0.9764714241027832
1783696789956617500,6.863617431640625,0.3683846890926361,0.16899164021015167,-0.7048665881156921
1783696789966580700,6.873580810546875,0.3303617537021637,0.23305971920490265,-0.36745765805244446
1783696789976543700,6.883543701171875,0.3104066848754883,-0.1270526498556137,-0.15773984789848328
1783696789986506800,6.8935068359375,0.2865360677242279,-0.6770567893981934,-0.0813044086098671
1783696789996469800,6.9034697265625,0.30777743458747864,-1.1220155954360962,-0.04306088760495186
1783696790006432500,6.9134326171875,0.39934077858924866,-1.3981873989105225,0.01565496064722538
1783696790016395500,6.9233955078125,0.5200186967849731,-1.568033218383789,0.10611774772405624
1783696790026358500,6.933358642578125,0.6179113388061523,-1.6762638092041016,0.20798783004283905
1783696790036321500,6.943321533203125,0.6666240096092224,-1.7120065689086914,0.2680615484714508
1783696790046284800,6.953284912109375,0.6649562120437622,-1.6493290662765503,0.23169708251953125
1783696790056247800,6.963247802734375,0.6210904717445374,-1.4838926792144775,0.08692125231027603
1783696790066210600,6.97321044921875,0.5619843602180481,-1.1678558588027954,-0.11456343531608582
1783696790076173600,6.983173583984375,0.502582848072052,-0.7213161587715149,-0.32653480768203735
1783696790086136600,6.993136474609375,0.4342343211174011,-0.22469650208950043,-0.5332813262939453
1783696790096099600,7.003099609375,0.3636173903942108,0.2354138344526291,-0.7357190847396851
1783696790106062600,7.0130625,0.28969162702560425,0.5971216559410095,-0.9267930388450623
1783696790116025600,7.023025634765625,0.2437313348054886,0.8294939398765564,-1.0800611972808838
1783696790125988600,7.032988525390625,0.23181390762329102,0.969627320766449,-1.1708990335464478
1783696790135951600,7.04295166015625,0.24438881874084473,1.0615357160568237,-1.1943644285202026
1783696790145914600,7.05291455078125,0.26461443305015564,1.1554847955703735,-1.1557167768478394
1783696790155877600,7.062877685546875,0.2882542312145233,1.2918658256530762,-1.0583734512329102
1783696790165840600,7.072840576171875,0.3069908618927002,1.4801074266433716,-0.9114010334014893
1783696790175803600,7.0828037109375,0.31627675890922546,1.6519787311553955,-0.7349335551261902
1783696790185766700,7.0927666015625,0.3195647895336151,1.745705485343933,-0.554177463054657
1783696790195729700,7.102729736328125,0.33334237337112427,1.7500724792480469,-0.40895581245422363
1783696790205692400,7.1126923828125,0.3620152473449707,1.694048523902893,-0.3042953610420227
1783696790215655700,7.12265576171875,0.37777024507522583,1.6009020805358887,-0.2256506085395813
1783696790225618700,7.13261865234375,0.35598674416542053,1.4909453392028809,-0.16144976019859314
1783696790235581700,7.142581787109375,0.2965095639228821,1.3700705766677856,-0.11019138246774673
1783696790245544700,7.152544677734375,0.21198348701000214,1.2618389129638672,-0.06057409569621086
1783696790255507700,7.1625078125,0.13076026737689972,1.2162069082260132,0.02053779922425747
1783696790265470700,7.172470703125,0.0473722480237484,1.2352404594421387,0.1517384648323059
1783696790275433500,7.18243359375,-0.06033583730459213,1.2532778978347778,0.32936862111091614
1783696790285396500,7.192396484375,-0.19268138706684113,1.2130540609359741,0.5197755098342896
1783696790295359500,7.202359375,-0.325222909450531,1.0959293842315674,0.7246775031089783
1783696790305322800,7.21232275390625,-0.4523913562297821,0.8987506628036499,0.9500992298126221
1783696790315285800,7.22228564453125,-0.5812843441963196,0.5899959802627563,1.1423341035842896
1783696790325248800,7.232248779296875,-0.6964446902275085,0.1573380082845688,1.2461512088775635
1783696790335211500,7.24221142578125,-0.7324039936065674,-0.341991662979126,1.2700704336166382
1783696790345174500,7.252174560546875,-0.6211894750595093,-0.7675982713699341,1.24557626247406
1783696790355137500,7.262137451171875,-0.41152065992355347,-1.053995132446289,1.1950126886367798
1783696790365100500,7.2721005859375,-0.1543670892715454,-1.2379329204559326,1.1671230792999268
1783696790375063600,7.2820634765625,0.06168292462825775,-1.2491546869277954,1.1265462636947632
1783696790385026800,7.29202685546875,0.16853944957256317,-1.1336685419082642,1.0173884630203247
1783696790394989800,7.30198974609375,0.17329105734825134,-0.9156174659729004,0.8319299221038818
1783696790404952600,7.31195263671875,0.06373514980077744,-0.6059888601303101,0.5080388784408569
1783696790414915600,7.32191552734375,-0.10391909629106522,-0.21087779104709625,0.142394557595253
1783696790424878600,7.331878662109375,-0.2446126937866211,0.20430679619312286,-0.12803713977336884
1783696790434841600,7.341841552734375,-0.3228158950805664,0.5364498496055603,-0.20776580274105072
1783696790444804600,7.3518046875,-0.3274550437927246,0.6547762155532837,-0.15382030606269836
1783696790454767600,7.361767578125,-0.29753950238227844,0.3980943262577057,-0.16105425357818604
1783696790464730600,7.371730712890625,-0.2672072947025299,-0.1972871720790863,-0.34134167432785034
1783696790474693600,7.381693603515625,-0.12471618503332138,-0.8435482382774353,-0.519792377948761
1783696790484656600,7.39165673828125,0.1520194560289383,-1.1776058673858643,-0.5039001703262329
1783696790494619600,7.40161962890625,0.3987405598163605,-1.2309529781341553,-0.2984772324562073
1783696790504582700,7.411582763671875,0.5384812355041504,-1.0596073865890503,-0.042670320719480515
1783696790514545700,7.421545654296875,0.5427311062812805,-0.7646995186805725,0.10778682678937912
1783696790524508700,7.4315087890625,0.3998376727104187,-0.5611525774002075,0.059952277690172195
1783696790534471400,7.441471435546875,0.1677115112543106,-0.5553380846977234,-0.16608379781246185
1783696790544434400,7.451434326171875,-0.03558329492807388,-0.7434508204460144,-0.5024121999740601
1783696790554397700,7.461397705078125,-0.13631923496723175,-1.04595947265625,-0.857012927532196
1783696790564360700,7.471360595703125,-0.12178411334753036,-1.3681682348251343,-1.1660521030426025
1783696790574323700,7.48132373046875,-0.03715204447507858,-1.5739061832427979,-1.4254066944122314
1783696790584286700,7.49128662109375,0.06588145345449448,-1.5268146991729736,-1.643180251121521
1783696790594249700,7.501249755859375,0.18721240758895874,-1.1886484622955322,-1.8014194965362549
1783696790604212500,7.51121240234375,0.33073854446411133,-0.6567137837409973,-1.8923066854476929
1783696790614175500,7.521175537109375,0.449384480714798,-0.053900331258773804,-1.9124492406845093
1783696790624138500,7.531138427734375,0.4875096082687378,0.534806489944458,-1.8382762670516968
1783696790634101500,7.5411015625,0.43237605690956116,1.0447660684585571,-1.6443935632705688
1783696790644064800,7.551064697265625,0.3060527443885803,1.4175691604614258,-1.3318305015563965
1783696790654027800,7.56102783203125,0.16932792961597443,1.6378690004348755,-0.9383995532989502
1783696790663990800,7.57099072265625,0.038248226046562195,1.6975529193878174,-0.5320010185241699
1783696790673953500,7.58095361328125,-0.08883914351463318,1.6113972663879395,-0.16461235284805298
1783696790683916500,7.59091650390625,-0.20033419132232666,1.4390594959259033,0.13468070328235626
1783696790693879600,7.600879638671875,-0.3118889629840851,1.1898008584976196,0.36364254355430603
1783696790703842600,7.610842529296875,-0.4019908905029297,0.8789957761764526,0.5418151617050171
1783696790713804800,7.6208046875,-0.4579090178012848,0.5839974284172058,0.6915891766548157
1783696790723768800,7.630768798828125,-0.4865254759788513,0.39608749747276306,0.7907723188400269
1783696790733731600,7.640731689453125,-0.4774875044822693,0.33440521359443665,0.8463183641433716
1783696790743693600,7.650693603515625,-0.4406161308288574,0.3942832946777344,0.8615508079528809
1783696790753656600,7.660656494140625,-0.3995067775249481,0.5248559713363647,0.8342611193656921
1783696790763619600,7.67061962890625,-0.37669146060943604,0.6520290374755859,0.7791489958763123
1783696790773582600,7.68058251953125,-0.35299357771873474,0.7154820561408997,0.7209802269935608
1783696790783545900,7.6905458984375,-0.29221659898757935,0.7434244751930237,0.7148950099945068
1783696790793508600,7.700508544921875,-0.20427289605140686,0.7539889216423035,0.7495301961898804
1783696790803471600,7.7104716796875,-0.12918627262115479,0.675348699092865,0.7618377804756165
1783696790813434600,7.7204345703125,-0.08646464347839355,0.4921802580356598,0.6988188624382019
1783696790823397600,7.730397705078125,-0.03746236488223076,0.35236722230911255,0.5922614336013794
1783696790833360600,7.740360595703125,0.02427263744175434,0.2726809084415436,0.5082389712333679
1783696790843323600,7.75032373046875,0.09480477124452591,0.15416666865348816,0.4994232952594757
1783696790853286700,7.76028662109375,0.17019140720367432,0.03261307254433632,0.592011570930481
1783696790863249700,7.770249755859375,0.26390340924263,-0.01296794693917036,0.7711421847343445
1783696790873212700,7.780212646484375,0.3696383833885193,-0.052008822560310364,0.9664943814277649
1783696790883175700,7.79017578125,0.4317973554134369,-0.2448010891675949,1.043601393699646
1783696790893138700,7.800138671875,0.4040376543998718,-0.5632792115211487,0.9688405990600586
1783696790903101700,7.810101806640625,0.3001560866832733,-0.6647074222564697,0.8817596435546875
1783696790913064700,7.820064697265625,0.11984570324420929,-0.43969401717185974,0.8408598899841309
1783696790923027500,7.83002734375,-0.056056730449199677,-0.05469435453414917,0.7816747426986694
1783696790932990500,7.839990478515625,-0.13438881933689117,0.2512352168560028,0.6492424011230469
1783696790942953500,7.849953369140625,-0.15709525346755981,0.24420808255672455,0.3764974772930145
1783696790952916700,7.859916748046875,-0.19865867495536804,0.056690387427806854,-0.0071220677345991135
1783696790962879700,7.869879638671875,-0.18416652083396912,-0.287858247756958,-0.37882310152053833
1783696790972842800,7.8798427734375,-0.049498192965984344,-0.6291412711143494,-0.5623969435691833
1783696790982805500,7.889805419921875,0.14652347564697266,-0.7781472206115723,-0.5486735105514526
1783696790992768500,7.8997685546875,0.28583425283432007,-0.7967798113822937,-0.47602033615112305
1783696791002731500,7.9097314453125,0.297715425491333,-0.8060451745986938,-0.4803928732872009
1783696791012694500,7.919694580078125,0.21120662987232208,-0.8192137479782104,-0.5852250456809998
1783696791022657500,7.929657470703125,0.08806857466697693,-0.8169880509376526,-0.7826815247535706
1783696791032620500,7.93962060546875,-0.03840041905641556,-0.8128625154495239,-1.0232499837875366
1783696791042583600,7.94958349609375,-0.13785117864608765,-0.8087359070777893,-1.2423027753829956
1783696791052546600,7.959546630859375,-0.20315241813659668,-0.7909084558486938,-1.4163720607757568
1783696791062509600,7.969509521484375,-0.20917093753814697,-0.7713519930839539,-1.5437153577804565
1783696791072472600,7.97947265625,-0.1467464417219162,-0.7226436138153076,-1.6258230209350586
1783696791082435600,7.989435546875,-0.04604241997003555,-0.637478232383728,-1.6663942337036133
1783696791092398600,7.999398681640625,0.061967138200998306,-0.5131075382232666,-1.65050208568573
1783696791102361600,8.009361572265625,0.15980884432792664,-0.3518335819244385,-1.5817642211914062
1783696791112324400,8.019324462890625,0.23681680858135223,-0.18437589704990387,-1.464028000831604
1783696791122287600,8.02928759765625,0.27424755692481995,-0.009446392767131329,-1.306382417678833
1783696791132250600,8.039250732421875,0.25363868474960327,0.16943547129631042,-1.1101937294006348
1783696791142213600,8.049213623046874,0.17599041759967804,0.3239612579345703,-0.8979687690734863
1783696791152176600,8.0591767578125,0.05110040679574013,0.43928438425064087,-0.679814338684082
1783696791162139600,8.0691396484375,-0.08669145405292511,0.4832470118999481,-0.46811172366142273
1783696791172102700,8.0791025390625,-0.20171470940113068,0.4646807909011841,-0.24151667952537537
1783696791182065400,8.0890654296875,-0.2808578610420227,0.38011443614959717,-0.013847447000443935
1783696791192028400,8.0990283203125,-0.31553915143013,0.2604202628135681,0.204916849732399
1783696791201991700,8.10899169921875,-0.32996368408203125,0.18664847314357758,0.39820703864097595
1783696791211954700,8.11895458984375,-0.3381742238998413,0.16742657124996185,0.5615370869636536
1783696791221917700,8.128917724609375,-0.3621833622455597,0.1729775071144104,0.6862203478813171
1783696791231880700,8.138880615234376,-0.39633840322494507,0.15464137494564056,0.7904272079467773
1783696791241843700,8.14884375,-0.44651710987091064,0.05830204486846924,0.8777022957801819
1783696791251806500,8.158806396484374,-0.5123382210731506,-0.17961359024047852,0.9641711711883545
1783696791261769500,8.16876953125,-0.579496443271637,-0.4943268895149231,1.0410341024398804
1783696791271732500,8.178732421875,-0.6251030564308167,-0.8049068450927734,1.0805550813674927
1783696791281695500,8.188695556640624,-0.6176599860191345,-1.0746933221817017,1.0552902221679688
1783696791291658800,8.19865869140625,-0.5424345135688782,-1.2495713233947754,1.0029702186584473
1783696791301621800,8.208621826171875,-0.3968065679073334,-1.2635095119476318,0.9483001828193665
1783696791311584500,8.21858447265625,-0.20439773797988892,-1.0396811962127686,0.9218350052833557
1783696791321547500,8.228547607421875,-0.004644111264497042,-0.6466333866119385,0.9127194285392761
1783696791331510500,8.238510498046875,0.18733838200569153,-0.2180154174566269,0.867454469203949
1783696791341473500,8.2484736328125,0.3522765338420868,0.11380413174629211,0.7529062628746033
1783696791351436500,8.2584365234375,0.4815988540649414,0.20668108761310577,0.614173412322998
1783696791361399600,8.268399658203125,0.5185905694961548,0.032415591180324554,0.46910589933395386
1783696791371362600,8.278362548828126,0.41487377882003784,-0.2102138251066208,0.42558103799819946
1783696791381325600,8.28832568359375,0.23400545120239258,-0.17743536829948425,0.5881526470184326
1783696791391288600,8.29828857421875,0.056837063282728195,-0.016575388610363007,0.9134125113487244
1783696791401251600,8.30825146484375,-0.06887985020875931,0.09448463469743729,1.2695645093917847
1783696791411214600,8.318214599609375,-0.09539321810007095,0.11665118485689163,1.5486009120941162
1783696791421177600,8.328177490234374,-0.0479220449924469,0.14320087432861328,1.6585925817489624
1783696791431140600,8.338140625,-0.02264545112848282,0.045800819993019104,1.4678444862365723
1783696791441103600,8.348103515625,-0.07397187501192093,-0.15677855908870697,1.0002654790878296
1783696791451066400,8.35806640625,-0.10744967311620712,-0.40890267491340637,0.40115252137184143
1783696791461029600,8.368029541015625,-0.02742612175643444,-0.592578649520874,-0.20391981303691864
1783696791470992600,8.37799267578125,0.1505630612373352,-0.6008416414260864,-0.7212947607040405
1783696791480955600,8.38795556640625,0.33362850546836853,-0.4913729727268219,-1.1736483573913574
1783696791490918700,8.397918701171875,0.43525925278663635,-0.32210829854011536,-1.5774011611938477
1783696791500881700,8.407881591796874,0.43743643164634705,-0.08483705669641495,-1.90321946144104
1783696791510844400,8.417844482421875,0.3721437156200409,0.14814692735671997,-2.128485679626465
1783696791520807400,8.427807373046875,0.2547624111175537,0.2566344738006592,-2.271104574203491
1783696791530770400,8.4377705078125,0.11757421493530273,0.197251558303833,-2.3133997917175293
1783696791540733700,8.447733642578125,0.0012814518995583057,-0.05999263748526573,-2.2585031986236572
1783696791550696700,8.45769677734375,-0.04587141424417496,-0.4372464418411255,-2.086246967315674
1783696791560659700,8.46765966796875,-0.03607044741511345,-0.8363222479820251,-1.8208940029144287
1783696791570622700,8.477622802734375,0.0063766115345060825,-1.1368157863616943,-1.515587329864502
1783696791580585500,8.48758544921875,0.08419888466596603,-1.239335536956787,-1.2203236818313599
1783696791590548500,8.497548583984376,0.15208739042282104,-1.0981824398040771,-0.9779701232910156
1783696791600511500,8.507511474609375,0.17921185493469238,-0.7542347311973572,-0.8086570501327515
1783696791610474500,8.517474609375,0.16118891537189484,-0.2808900773525238,-0.683986485004425
1783696791620437500,8.5274375,0.11729561537504196,0.24355633556842804,-0.5800547003746033
1783696791630400800,8.53740087890625,0.061761513352394104,0.741005003452301,-0.47366058826446533
1783696791640363800,8.54736376953125,-0.008768015541136265,1.121901035308838,-0.36812078952789307
1783696791650326500,8.557326416015625,-0.09816979616880417,1.2840137481689453,-0.2644293010234833
1783696791660289500,8.56728955078125,-0.18414130806922913,1.2387264966964722,-0.10833651572465897
1783696791670252500,8.57725244140625,-0.24422968924045563,1.0886259078979492,0.1291319578886032
1783696791680215600,8.587215576171875,-0.2455986738204956,0.9153251647949219,0.43747904896736145
1783696791690178600,8.597178466796874,-0.19883835315704346,0.7570081949234009,0.7366215586662292
1783696791700141600,8.6071416015625,-0.12412185966968536,0.6150468587875366,0.9717919826507568
1783696791710104600,8.6171044921875,-0.014971139840781689,0.5146555304527283,1.1477915048599243
1783696791720067600,8.627067626953124,0.08568936586380005,0.44201594591140747,1.2527374029159546
1783696791730030600,8.637030517578125,0.14191508293151855,0.3253447413444519,1.2894070148468018
1783696791739993600,8.64699365234375,0.12801618874073029,0.09557241201400757,1.2732888460159302
1783696791749956600,8.65695654296875,0.05998947471380234,-0.1940237134695053,1.231328010559082
1783696791759919600,8.666919677734375,-0.02686147205531597,-0.4028322100639343,1.1786465644836426
1783696791769882600,8.676882568359375,-0.1020430400967598,-0.4868861138820648,1.1150028705596924
1783696791779845400,8.686845458984376,-0.13924643397331238,-0.4960775375366211,1.0245193243026733
1783696791789808400,8.696808349609375,-0.0970931127667427,-0.42599084973335266,0.9205529689788818
1783696791799771600,8.706771728515625,-0.017762694507837296,-0.21962904930114746,0.8670375347137451
1783696791809734700,8.716734619140626,0.046510569751262665,0.02638578787446022,0.9068888425827026
1783696791819697700,8.72669775390625,0.0969872996211052,0.16436417400836945,0.9929194450378418
1783696791829660700,8.73666064453125,0.13685747981071472,0.14527863264083862,1.0472403764724731
1783696791839623700,8.746623779296876,0.13253852725028992,0.08535275608301163,0.9828953742980957
1783696791849586400,8.75658642578125,0.07579909265041351,0.0701836571097374,0.7796540856361389
1783696791859549400,8.766549560546874,-0.023735927417874336,-0.03419826179742813,0.4711947739124298
1783696791869512400,8.776512451171875,-0.16884544491767883,-0.25518256425857544,0.15855322778224945
1783696791879475700,8.786475830078125,-0.27101796865463257,-0.2722543776035309,0.056825824081897736
1783696791889438700,8.796438720703126,-0.20018722116947174,-0.06494859606027603,0.2493598610162735
1783696791899401700,8.806401611328125,-0.07764443010091782,0.2261645346879959,0.5051173567771912
1783696791909364700,8.81636474609375,0.033669840544462204,0.6275774836540222,0.5950691103935242
1783696791919327500,8.826327392578126,0.1619911789894104,0.8939884901046753,0.39037299156188965
1783696791929290500,8.83629052734375,0.2182786911725998,0.8325283527374268,-0.0740082859992981
1783696791939253500,8.84625341796875,0.22656606137752533,0.570716917514801,-0.5667429566383362
1783696791949216500,8.856216552734375,0.2882249057292938,0.22423622012138367,-0.8762795329093933
1783696791959179500,8.866179443359375,0.3923884630203247,-0.11218461394309998,-0.9390106797218323
1783696791969142800,8.876142822265624,0.47336986660957336,-0.3269115686416626,-0.8389440178871155
1783696791979105500,8.88610546875,0.4927756190299988,-0.39648106694221497,-0.7461671233177185
1783696791989068300,8.896068359375,0.4706290364265442,-0.3531929850578308,-0.7587715983390808
1783696791999031300,8.90603125,0.4242776334285736,-0.23033015429973602,-0.8612342476844788
1783696792008994300,8.915994384765625,0.35770073533058167,-0.15394669771194458,-0.984796404838562
1783696792018957000,8.92595703125,0.3190845251083374,-0.15851400792598724,-1.039004921913147
1783696792028920000,8.935920166015626,0.29867538809776306,-0.18246035277843475,-1.0008388757705688
1783696792038883300,8.94588330078125,0.2630760967731476,-0.2896655201911926,-0.9300539493560791
1783696792048846300,8.955846435546874,0.21280761063098907,-0.4937582015991211,-0.8786885142326355
1783696792058809300,8.965809326171875,0.17042194306850433,-0.7493311762809753,-0.8431305885314941
1783696792068772400,8.9757724609375,0.1476103663444519,-0.971180260181427,-0.8102035522460938
1783696792078735400,8.9857353515625,0.14757086336612701,-1.0572786331176758,-0.7693034410476685
1783696792088698000,8.995697998046875,0.16405875980854034,-0.9719368815422058,-0.7095447778701782
1783696792098661000,9.0056611328125,0.20291553437709808,-0.7447108030319214,-0.6195850968360901
1783696792108624100,9.0156240234375,0.25912633538246155,-0.40095028281211853,-0.5064641237258911
1783696792118587100,9.025587158203125,0.28918981552124023,0.01670406572520733,-0.38188669085502625
1783696792128550400,9.03555029296875,0.2612955868244171,0.4433930814266205,-0.24023981392383575
1783696792138513400,9.045513427734376,0.15848328173160553,0.7900195121765137,-0.07509718835353851
1783696792148476400,9.055476318359375,0.025509530678391457,0.9654526114463806,0.09044650197029114
1783696792158439200,9.065439208984374,-0.07541850209236145,0.9607288837432861,0.21972085535526276
1783696792168402200,9.075402099609375,-0.13695909082889557,0.8751308917999268,0.31225454807281494
1783696792178365200,9.085365234375,-0.18058079481124878,0.7785106897354126,0.37258365750312805
1783696792188328200,9.095328125,-0.21495421230793,0.7374284863471985,0.40556129813194275
1783696792198291200,9.105291259765625,-0.24370330572128296,0.7494185566902161,0.42738619446754456
1783696792208254500,9.11525439453125,-0.24859926104545593,0.8079274296760559,0.4485471248626709
1783696792218217200,9.12521728515625,-0.23462150990962982,0.9028113484382629,0.45620042085647583
1783696792228180200,9.13518017578125,-0.2387869656085968,0.990239679813385,0.4605320692062378
1783696792238143200,9.145143310546874,-0.2888694107532501,1.0004432201385498,0.452138751745224
1783696792248106200,9.155106201171876,-0.34746161103248596,0.9153929948806763,0.4250469505786896
1783696792258069200,9.1650693359375,-0.35553228855133057,0.8315545916557312,0.39347317814826965
1783696792268032300,9.1750322265625,-0.32541272044181824,0.8036326766014099,0.38423946499824524
1783696792277995300,9.184995361328125,-0.26980921626091003,0.746947705745697,0.43898770213127136
1783696792287958300,9.194958251953125,-0.17460572719573975,0.5759360194206238,0.5575335025787354
1783696792297921300,9.20492138671875,-0.055786244571208954,0.29221680760383606,0.6793122887611389
1783696792307884300,9.21488427734375,0.06616362929344177,-0.028450146317481995,0.7180135846138
1783696792317847300,9.224847412109375,0.1464577317237854,-0.2817223370075226,0.6347285509109497
1783696792327810300,9.234810302734376,0.20827636122703552,-0.47596052289009094,0.5135555267333984
1783696792337773300,9.244773193359375,0.24056380987167358,-0.5103304386138916,0.45368659496307373
1783696792347736300,9.254736328125,0.17906315624713898,-0.3218976557254791,0.5203007459640503
1783696792357699000,9.264698974609376,0.027508588507771492,-0.02386782132089138,0.7295674085617065
1783696792367662000,9.274662109375,-0.16142776608467102,0.23261508345603943,1.0220069885253906
1783696792377625300,9.284625244140624,-0.33186399936676025,0.47996729612350464,1.2460551261901855
1783696792387588400,9.29458837890625,-0.40235042572021484,0.5732293725013733,1.2250092029571533
1783696792397551400,9.30455126953125,-0.40894147753715515,0.5691844820976257,0.945042073726654
1783696792407514400,9.314514404296874,-0.3960440456867218,0.41997820138931274,0.5005573034286499
1783696792419345200,9.32634521484375,-0.298156201839447,-0.12770165503025055,-0.12751655280590057
1783696792429308200,9.33630810546875,-0.17043553292751312,-0.780881941318512,-0.6171121001243591
1783696792439271200,9.346271240234374,-0.043904222548007965,-1.326636552810669,-0.975598931312561
1783696792449234200,9.356234130859375,-0.0004664106818381697,-1.5081148147583008,-1.1684086322784424
1783696792459197200,9.366197265625,0.0032364483922719955,-1.348646879196167,-1.2247196435928345
1783696792469160200,9.37616015625,-0.012741245329380035,-0.8995991945266724,-1.203999400138855
1783696792479123500,9.38612353515625,-0.053723033517599106,-0.36017611622810364,-1.195279598236084
1783696792489086200,9.396086181640625,-0.11923055350780487,0.08192016184329987,-1.2183427810668945
1783696792499049200,9.40604931640625,-0.15476909279823303,0.3484003245830536,-1.231070637702942
1783696792509011200,9.41601123046875,-0.1133953258395195,0.4199735224246979,-1.2160712480545044
1783696792518974200,9.42597412109375,-0.002728470368310809,0.2614448666572571,-1.1863967180252075
1783696792528937200,9.435937255859375,0.164234921336174,-0.03439021483063698,-1.1469718217849731
1783696792538900200,9.445900146484375,0.3761375844478607,-0.3107786774635315,-1.0809885263442993
1783696792548863200,9.45586328125,0.593328595161438,-0.4436449110507965,-0.980881929397583
1783696792558826200,9.465826171875,0.7629048824310303,-0.3888591527938843,-0.8477838039398193
1783696792568789200,9.475789306640625,0.8416382074356079,-0.18791213631629944,-0.6922709345817566
1783696792578752300,9.485752197265626,0.8170644044876099,0.10155616700649261,-0.5213140845298767
1783696792588715300,9.49571533203125,0.6970853209495544,0.4010190963745117,-0.35273486375808716
1783696792598678300,9.50567822265625,0.5050660371780396,0.628299355506897,-0.19554045796394348
1783696792608641000,9.51564111328125,0.2833560109138489,0.7488619685173035,-0.050580866634845734
1783696792618604300,9.525604248046875,0.08422572165727615,0.7391201853752136,0.08067478984594345
1783696792628567300,9.5355673828125,-0.09330379217863083,0.6463205218315125,0.18379558622837067
1783696792638530300,9.5455302734375,-0.2290496975183487,0.5064220428466797,0.25090113282203674
1783696792648493300,9.555493408203125,-0.3186933100223541,0.3496271073818207,0.2801910936832428
1783696792658456300,9.565456298828124,-0.34201833605766296,0.20228789746761322,0.27321258187294006
1783696792668419300,9.57541943359375,-0.3118596374988556,0.11458467692136765,0.24508722126483917
1783696792678382000,9.585382080078125,-0.24570749700069427,0.12972164154052734,0.21614369750022888
1783696792688345000,9.595344970703126,-0.16403473913669586,0.2744532525539398,0.21439027786254883
1783696792698308400,9.605308349609375,-0.08418877422809601,0.47805872559547424,0.2730492651462555
1783696792708271400,9.615271240234375,-0.014225395396351814,0.6144586801528931,0.417218416929245
1783696792718234400,9.625234375,0.022205818444490433,0.5747805237770081,0.6233052015304565
1783696792728197400,9.635197265625,0.006356016732752323,0.3490097224712372,0.8465020656585693
1783696792738783200,9.645783203125,-0.051770612597465515,0.023317640647292137,1.0473437309265137
1783696792748746200,9.655746337890625,-0.1106024980545044,-0.2151031792163849,1.1949347257614136
1783696792758709200,9.665709228515626,-0.11066517233848572,-0.29751867055892944,1.3001525402069092
1783696792768671200,9.675671142578125,-0.07614794373512268,-0.31337299942970276,1.3055576086044312
1783696792778634200,9.68563427734375,0.007169375196099281,-0.2723153829574585,1.2364975214004517
1783696792788597200,9.69559716796875,0.11133598536252975,-0.14356912672519684,1.1709198951721191
1783696792798560300,9.705560302734375,0.21241426467895508,-0.05858461931347847,1.050095796585083
1783696792808523300,9.715523193359376,0.23444366455078125,-0.11953878402709961,0.783424437046051
1783696792818486300,9.725486328125,0.18399678170681,-0.15853552520275116,0.4075343906879425
1783696792828449300,9.73544921875,0.1490774154663086,0.01610446535050869,0.09240015596151352
1783696792838412300,9.745412353515626,0.21574895083904266,0.4286235272884369,-0.010541979223489761
1783696792848375300,9.755375244140625,0.33398744463920593,0.9609596133232117,0.08715128898620605
1783696792858338300,9.76533837890625,0.42517462372779846,1.4325908422470093,0.21320953965187073
1783696792868301000,9.775301025390625,0.450763076543808,1.5143240690231323,0.22347895801067352
1783696792878264000,9.78526416015625,0.21511586010456085,1.044817566871643,0.17451320588588715
1783696792888227300,9.795227294921874,-0.10917939990758896,-0.24862676858901978,-0.19995974004268646
1783696792898190300,9.8051904296875,-0.2767021656036377,-1.2063617706298828,-0.576887845993042
1783696792908153300,9.8151533203125,-0.3088582456111908,-1.5378576517105103,-0.7205297350883484
1783696792918116400,9.825116455078126,-0.21469132602214813,-1.6222211122512817,-0.741055428981781
1783696792928079400,9.835079345703125,-0.06641903519630432,-1.6213960647583008,-0.7607100605964661
1783696792938042000,9.8450419921875,0.08536989986896515,-1.4877190589904785,-0.8263004422187805
1783696792948005000,9.855005126953126,0.2143947333097458,-1.2264010906219482,-0.9412840604782104
1783696792957968100,9.864968017578125,0.28631591796875,-0.9326443076133728,-1.0538829565048218
1783696792967931400,9.874931396484374,0.3297930657863617,-0.8425785899162292,-1.1789145469665527
