time,seconds_elapsed,z,y,x
1783696700174484700,0.067484619140625,0.13155408203601837,-0.31585371494293213,0.06282646954059601
1783696700184446700,0.07744677734375,0.07509879767894745,-0.1084928959608078,-0.08461681008338928
1783696700194409700,0.08740966796875,-0.0006393734365701675,0.022557800635695457,-0.2132331132888794
1783696700204373000,0.097373046875,-0.07832204550504684,0.026783687993884087,-0.3257765471935272
1783696700214335700,0.107335693359375,-0.1536034792661667,-0.055849406868219376,-0.43046459555625916
1783696700224298800,0.117298828125,-0.2136106640100479,-0.1348690539598465,-0.5129700303077698
1783696700234261800,0.12726171875,-0.25115111470222473,-0.16895511746406555,-0.5512484312057495
1783696700244224800,0.137224853515625,-0.26940953731536865,-0.12138447910547256,-0.5146409273147583
1783696700254187800,0.147187744140625,-0.25394296646118164,0.009879535995423794,-0.4294418394565582
1783696700264150800,0.15715087890625,-0.19777624309062958,0.2576900124549866,-0.30404528975486755
1783696700274113800,0.16711376953125,-0.114740751683712,0.5666193962097168,-0.08078847080469131
1783696700284076800,0.177076904296875,-0.07515346258878708,0.8630596995353699,0.17910748720169067
1783696700294039800,0.187039794921875,-0.07005936652421951,1.0177192687988281,0.4479365348815918
1783696700304002800,0.1970029296875,-0.07341257482767105,0.9336978197097778,0.6461798548698425
1783696700313965800,0.2069658203125,-0.04885263741016388,0.5311482548713684,0.788842499256134
1783696700323928800,0.2169287109375,0.05768314376473427,-0.13693496584892273,0.9258856177330017
1783696700333890600,0.226890625,0.2596604824066162,-0.8194488286972046,1.1032084226608276
1783696700343853800,0.236853759765625,0.5053161382675171,-1.3390499353408813,1.2862744331359863
1783696700353816800,0.24681689453125,0.7156765460968018,-1.5379334688186646,1.4423561096191406
1783696700363779800,0.25677978515625,0.8468860983848572,-1.335984468460083,1.5445493459701538
1783696700373742800,0.266742919921875,0.8516891002655029,-0.8920853137969971,1.5565593242645264
1783696700383705900,0.276705810546875,0.6877146363258362,-0.331124871969223,1.4599205255508423
1783696700393668900,0.2866689453125,0.4271629750728607,0.2813859283924103,1.2713520526885986
1783696700403631600,0.296631591796875,0.19441567361354828,0.7789750099182129,1.0039217472076416
1783696700413594600,0.3065947265625,0.038736868649721146,0.9424094557762146,0.6367490291595459
1783696700423557600,0.3165576171875,-0.06705544143915176,0.7816157341003418,0.15631236135959625
1783696700433521000,0.32652099609375,-0.1322658658027649,0.5068797469139099,-0.3780232071876526
1783696700443484000,0.33648388671875,-0.13141082227230072,0.24966630339622498,-0.8562235832214355
1783696700453447000,0.346447021484375,-0.05199509486556053,0.08536524325609207,-1.1812046766281128
1783696700463410000,0.356409912109375,0.050631050020456314,-0.027501974254846573,-1.3178505897521973
1783696700473371600,0.36637158203125,0.13195547461509705,-0.13745376467704773,-1.2638119459152222
1783696700483334700,0.376334716796875,0.1725357621908188,-0.24370352923870087,-1.0267562866210938
1783696700493298000,0.3862978515625,0.15647689998149872,-0.3830640912055969,-0.684240460395813
1783696700503261000,0.396260986328125,0.08650852739810944,-0.5611525774002075,-0.31240591406822205
1783696700513224000,0.406223876953125,-0.01998089626431465,-0.7311853170394897,0.02869364246726036
1783696700523186700,0.416186767578125,-0.12228715419769287,-0.8709694743156433,0.3072436451911926
1783696700533149700,0.426149658203125,-0.17946361005306244,-0.9639760851860046,0.5026938319206238
1783696700543112700,0.43611279296875,-0.17001104354858398,-0.9953964352607727,0.6115738749504089
1783696700553075700,0.44607568359375,-0.09488912671804428,-0.9383028149604797,0.6425866484642029
1783696700563038700,0.456038818359375,0.01769351027905941,-0.7999311089515686,0.6205023527145386
1783696700573002000,0.466001953125,0.13036732375621796,-0.5867983102798462,0.5356532335281372
1783696700582965000,0.475965087890625,0.21896624565124512,-0.32468557357788086,0.39524826407432556
1783696700592927700,0.485927734375,0.2729179263114929,-0.05257626622915268,0.19998185336589813
1783696700602890800,0.495890869140625,0.278166800737381,0.2074079066514969,-0.021024394780397415
1783696700612853800,0.505853759765625,0.24271933734416962,0.44237035512924194,-0.24172747135162354
1783696700622815700,0.515815673828125,0.1494615375995636,0.6436805725097656,-0.425654798746109
1783696700632779000,0.525779052734375,-0.005043347366154194,0.8021370768547058,-0.5313942432403564
1783696700642741800,0.53574169921875,-0.1976049244403839,0.8986274003982544,-0.5684357285499573
1783696700652704800,0.545704833984375,-0.3832924962043762,0.9222118258476257,-0.5697358846664429
1783696700662667800,0.555667724609375,-0.5381289720535278,0.8898921012878418,-0.5380557775497437
1783696700672630800,0.565630859375,-0.656550407409668,0.8218989372253418,-0.4530961215496063
1783696700682593800,0.57559375,-0.7339759469032288,0.7341623306274414,-0.317229688167572
1783696700692556800,0.585556884765625,-0.7760741114616394,0.6698760390281677,-0.15112698078155518
1783696700702519800,0.595519775390625,-0.8028557300567627,0.6655447483062744,0.020044445991516113
1783696700712482800,0.60548291015625,-0.8244225382804871,0.7925165295600891,0.18829630315303802
1783696700722445800,0.61544580078125,-0.8297886252403259,1.0542502403259277,0.3581223785877228
1783696700732408800,0.625408935546875,-0.7776349186897278,1.2885085344314575,0.5168041586875916
1783696700742371800,0.635371826171875,-0.6852731108665466,1.4002082347869873,0.6390849351882935
1783696700752334800,0.6453349609375,-0.5839504599571228,1.3434985876083374,0.7016271352767944
1783696700762296600,0.655296630859375,-0.4734841287136078,1.1096768379211426,0.652289628982544
1783696700772259800,0.665259765625,-0.3554709255695343,0.7841067314147949,0.4577004015445709
1783696700782222800,0.675222900390625,-0.1917089819908142,0.4341725707054138,0.18641506135463715
1783696700792185900,0.685185791015625,0.05054333806037903,0.026370448991656303,-0.08432375639677048
1783696700802148900,0.69514892578125,0.29145750403404236,-0.5269517302513123,-0.33002161979675293
1783696700812112000,0.70511181640625,0.3939551115036011,-1.030191421508789,-0.5039409399032593
1783696700822075000,0.715074951171875,0.29114964604377747,-1.034059762954712,-0.5125190615653992
1783696700832037600,0.72503759765625,0.02828100696206093,-0.5052723288536072,-0.3699057102203369
1783696700842000600,0.735000732421875,-0.1878245323896408,0.22093422710895538,-0.16545574367046356
1783696700851963600,0.744963623046875,-0.20584800839424133,0.7976894378662109,0.013247150927782059
1783696700861927000,0.754927001953125,-0.11370480060577393,0.9893755912780762,0.08710534870624542
1783696700871890000,0.764889892578125,-0.012648489326238632,0.7872938513755798,0.04587322473526001
1783696700881853000,0.77485302734375,0.06518977880477905,0.3951971232891083,-0.06760694086551666
1783696700891815400,0.7848154296875,0.13045799732208252,-0.05809924751520157,-0.22238080203533173
1783696700901778400,0.7947783203125,0.18132498860359192,-0.4867585301399231,-0.40816357731819153
1783696700911740400,0.804740478515625,0.1514701545238495,-0.8239296674728394,-0.592346727848053
1783696700921703400,0.814703369140625,0.03476926311850548,-1.0793464183807373,-0.7444506883621216
1783696700931666400,0.82466650390625,-0.10123465210199356,-1.1621731519699097,-0.8176106810569763
1783696700941629400,0.83462939453125,-0.20066003501415253,-1.0275088548660278,-0.8240725994110107
1783696700951592400,0.844592529296875,-0.25123852491378784,-0.7430289387702942,-0.7983821630477905
1783696700961555500,0.854555419921875,-0.23392149806022644,-0.4357598125934601,-0.748087465763092
1783696700971518500,0.8645185546875,-0.14755411446094513,-0.26481977105140686,-0.6798141598701477
1783696700981481200,0.874481201171875,-0.01052558608353138,-0.2586385905742645,-0.5934135317802429
1783696700991444200,0.8844443359375,0.11837300658226013,-0.36336421966552734,-0.49919968843460083
1783696701001407500,0.894407470703125,0.1468518078327179,-0.4893198609352112,-0.41279470920562744
1783696701011370500,0.90437060546875,0.0041990578174591064,-0.6119911670684814,-0.34326913952827454
1783696701021333500,0.91433349609375,-0.27319371700286865,-0.7561181783676147,-0.2727562487125397
1783696701031296500,0.924296630859375,-0.6129443645477295,-0.9105908274650574,-0.17932669818401337
1783696701041259500,0.934259521484375,-0.9388390183448792,-1.116207242012024,-0.07906796038150787
1783696701051222300,0.94422216796875,-1.1228528022766113,-1.2806049585342407,0.03707675263285637
1783696701061184500,0.9541845703125,-1.1378720998764038,-1.2687264680862427,0.16066138446331024
1783696701071147500,0.9641474609375,-1.0177725553512573,-1.0674381256103516,0.2846432328224182
1783696701081110500,0.974110595703125,-0.8342345356941223,-0.6738981008529663,0.3809523284435272
1783696701091073500,0.984073486328125,-0.6429745554924011,-0.13799501955509186,0.4581137001514435
1783696701101036300,0.994036376953125,-0.5351729393005371,0.37207329273223877,0.5037447810173035
1783696701110999300,1.003999267578125,-0.5231889486312866,0.7247499227523804,0.4978772699832916
1783696701120962300,1.01396240234375,-0.5892606377601624,0.8657838106155396,0.43923628330230713
1783696701130925300,1.02392529296875,-0.6843429207801819,0.8573900461196899,0.3729725778102875
1783696701140888600,1.033888671875,-0.7640466690063477,0.7931486964225769,0.30896270275115967
1783696701150851600,1.0438515625,-0.7954716682434082,0.7165274024009705,0.21268780529499054
1783696701160814600,1.053814697265625,-0.7416077852249146,0.6741564273834229,0.12458597123622894
1783696701170777300,1.06377734375,-0.6196520328521729,0.7132135033607483,0.0919521301984787
1783696701180740400,1.073740234375,-0.44557681679725647,0.8975353837013245,0.14314161241054535
1783696701190702300,1.083702392578125,-0.24069130420684814,1.163926601409912,0.24685442447662354
1783696701200665600,1.09366552734375,-0.0005652463296428323,1.2893497943878174,0.37372419238090515
1783696701210628600,1.103628662109375,0.2532936632633209,1.1406759023666382,0.46913567185401917
1783696701220591400,1.11359130859375,0.4677714407444,0.8530450463294983,0.5092930793762207
1783696701230554400,1.123554443359375,0.5644327402114868,0.43694987893104553,0.4727638065814972
1783696701240517400,1.133517333984375,0.5334627628326416,0.024532398208975792,0.38018473982810974
1783696701250480400,1.14348046875,0.41856491565704346,-0.3483857810497284,0.3104402720928192
1783696701260443400,1.153443359375,0.35270723700523376,-0.4743155241012573,0.383681982755661
1783696701270406400,1.163406494140625,0.36600813269615173,-0.23861858248710632,0.6000622510910034
1783696701280369400,1.173369384765625,0.36697080731391907,0.03661198168992996,0.8648292422294617
1783696701290332400,1.18333251953125,0.3142513930797577,0.16975219547748566,1.0914469957351685
1783696701300295400,1.19329541015625,0.23784992098808289,0.21759165823459625,1.2167906761169434
1783696701310258400,1.203258544921875,0.15765920281410217,0.2588607966899872,1.210106372833252
1783696701320221400,1.213221435546875,0.07038826495409012,0.27012893557548523,1.0815050601959229
1783696701330183400,1.223183349609375,-0.045330874621868134,0.2470172494649887,0.8783600926399231
1783696701340146200,1.233146240234375,-0.18026942014694214,0.15656284987926483,0.6444398164749146
1783696701350109400,1.243109375,-0.33023467659950256,0.0028795513790100813,0.35157331824302673
1783696701360072400,1.253072509765625,-0.4794248640537262,-0.23888863623142242,-0.05529271438717842
1783696701370035500,1.263035400390625,-0.5890887975692749,-0.45918530225753784,-0.5312749743461609
1783696701379998500,1.27299853515625,-0.6374548673629761,-0.4457853436470032,-0.963259756565094
1783696701389961500,1.28296142578125,-0.5980009436607361,-0.16515742242336273,-1.2926874160766602
1783696701399924500,1.292924560546875,-0.4988158941268921,0.17148378491401672,-1.5160324573516846
1783696701409887200,1.30288720703125,-0.4181439280509949,0.3448132574558258,-1.6561214923858643
1783696701419850200,1.312850341796875,-0.40300223231315613,0.22950737178325653,-1.7077914476394653
1783696701429813500,1.3228134765625,-0.4471622109413147,-0.092941515147686,-1.651082158088684
1783696701439776500,1.332776611328125,-0.5204739570617676,-0.4857226610183716,-1.5234286785125732
1783696701449739500,1.342739501953125,-0.6065939664840698,-0.8266200423240662,-1.36496901512146
1783696701459701200,1.352701171875,-0.6838046908378601,-1.0024703741073608,-1.1864192485809326
1783696701469664300,1.362664306640625,-0.7297796010971069,-0.9741232395172119,-1.0007647275924683
1783696701479627300,1.372627197265625,-0.7185739278793335,-0.7755771279335022,-0.8312908411026001
1783696701489590500,1.382590576171875,-0.6448342204093933,-0.50645911693573,-0.6912972331047058
1783696701499553500,1.392553466796875,-0.5278218388557434,-0.19630323350429535,-0.5876652598381042
1783696701509516500,1.4025166015625,-0.40270355343818665,0.10042963176965714,-0.5190816521644592
1783696701519479600,1.4124794921875,-0.294266939163208,0.4234335422515869,-0.46525388956069946
1783696701529442300,1.4224423828125,-0.19608496129512787,0.7771788835525513,-0.41604480147361755
1783696701539405300,1.4324052734375,-0.09943122416734695,1.103837013244629,-0.3706744313240051
1783696701549368300,1.442368408203125,0.01127344835549593,1.3038725852966309,-0.2964151203632355
1783696701559331300,1.452331298828125,0.15641112625598907,1.3301730155944824,-0.1448546051979065
1783696701569294300,1.46229443359375,0.32580652832984924,1.230900764465332,0.1082165390253067
1783696701579256600,1.472256591796875,0.47248727083206177,1.0538609027862549,0.38911351561546326
1783696701589219300,1.48221923828125,0.5431526899337769,0.7295368909835815,0.6135735511779785
1783696701599182300,1.492182373046875,0.5486657023429871,0.38104313611984253,0.7794806361198425
1783696701609145300,1.502145263671875,0.46434417366981506,0.1319238543510437,0.891363799571991
1783696701619108400,1.5121083984375,0.3198874592781067,-0.05251245200634003,0.9762265682220459
1783696701629071400,1.5220712890625,0.17486552894115448,-0.22046098113059998,1.081580638885498
1783696701639034600,1.53203466796875,0.08781071752309799,-0.2592196464538574,1.2432764768600464
1783696701648997400,1.541997314453125,0.057059723883867264,-0.06544191390275955,1.4612616300582886
1783696701658960400,1.55196044921875,0.062439002096652985,0.3873599171638489,1.709456205368042
1783696701668923400,1.56192333984375,0.11601780354976654,0.923673152923584,1.906024694442749
1783696701678886400,1.571886474609375,0.274189293384552,1.1842529773712158,1.9580572843551636
1783696701688849400,1.581849365234375,0.49479544162750244,1.03270423412323,1.8648335933685303
1783696701698812400,1.5918125,0.6659834980964661,0.5350561738014221,1.7025772333145142
1783696701708774400,1.6017744140625,0.6950505971908569,-0.11017103493213654,1.4992166757583618
1783696701718737400,1.6117373046875,0.5832131505012512,-0.7263849973678589,1.277390956878662
1783696701728700400,1.621700439453125,0.38256019353866577,-1.0970453023910522,1.1229958534240723
1783696701738663400,1.631663330078125,0.12086739391088486,-1.0469125509262085,1.0958534479141235
1783696701748626400,1.64162646484375,-0.14705194532871246,-0.5784571766853333,1.1537729501724243
1783696701758589400,1.65158935546875,-0.3181084394454956,0.13179852068424225,1.1990684270858765
1783696701768552200,1.66155224609375,-0.31887009739875793,0.8205356001853943,1.1252485513687134
1783696701778515500,1.671515380859375,-0.1977340430021286,1.3169821500778198,0.8410584330558777
1783696701788478500,1.681478515625,-0.002412218600511551,1.5732131004333496,0.37102219462394714
1783696701798441500,1.69144140625,0.19476787745952606,1.5881708860397339,-0.18597252666950226
1783696701808404500,1.701404541015625,0.3579687774181366,1.5097463130950928,-0.7044767141342163
1783696701818367500,1.711367431640625,0.443964421749115,1.3194057941436768,-1.1437402963638306
1783696701828329200,1.7213291015625,0.41678231954574585,0.9060190916061401,-1.5179213285446167
1783696701838292500,1.73129248046875,0.2650170624256134,0.3268521726131439,-1.8365082740783691
1783696701848255500,1.74125537109375,0.030254611745476723,-0.19008179008960724,-2.069063425064087
1783696701858218500,1.751218505859375,-0.20377768576145172,-0.4354577660560608,-2.1927475929260254
1783696701868181500,1.761181396484375,-0.3761880695819855,-0.42492255568504333,-2.2091007232666016
1783696701878144500,1.77114453125,-0.4782470166683197,-0.24732819199562073,-2.1346731185913086
1783696701888107300,1.781107177734375,-0.5183084011077881,-0.024808835238218307,-1.9835554361343384
1783696701898071600,1.791071533203125,-0.5081154108047485,0.14836321771144867,-1.764823317527771
1783696701908034600,1.80103466796875,-0.4624510109424591,0.20731282234191895,-1.4971448183059692
1783696701917997600,1.81099755859375,-0.4101155698299408,0.1367710828781128,-1.2246145009994507
1783696701927960600,1.820960693359375,-0.36069023609161377,0.004619976505637169,-0.9759336709976196
1783696701937923600,1.830923583984375,-0.32831379771232605,-0.1138915941119194,-0.7896530032157898
1783696701947885600,1.840885498046875,-0.312847763299942,-0.20432882010936737,-0.6744251847267151
1783696701957848600,1.8508486328125,-0.30376431345939636,-0.2707594931125641,-0.6103208661079407
1783696701967811600,1.8608115234375,-0.2866164743900299,-0.2686004638671875,-0.5684295892715454
1783696701977774600,1.870774658203125,-0.25891488790512085,-0.14286455512046814,-0.526856005191803
1783696701987737600,1.880737548828125,-0.22005030512809753,0.08626663684844971,-0.48830217123031616
1783696701997700600,1.89070068359375,-0.15813694894313812,0.38180503249168396,-0.4590095579624176
1783696702007663600,1.90066357421875,-0.06348555535078049,0.6542749404907227,-0.43598493933677673
1783696702017626600,1.910626708984375,0.06393799930810928,0.8545442223548889,-0.3966183066368103
1783696702027589600,1.920589599609375,0.22057421505451202,1.0097583532333374,-0.33098629117012024
1783696702037552600,1.930552734375,0.38859570026397705,1.1508278846740723,-0.23850589990615845
1783696702047515600,1.940515625,0.5180408358573914,1.2433186769485474,-0.1297362744808197
1783696702057478700,1.950478759765625,0.5807344317436218,1.2018412351608276,-0.02914520353078842
1783696702067440400,1.9604404296875,0.599696934223175,0.9990074038505554,0.03162014111876488
1783696702077403600,1.970403564453125,0.5955997109413147,0.6387766599655151,0.07188887149095535
1783696702087366700,1.98036669921875,0.5916459560394287,0.15130873024463654,0.15984030067920685
1783696702097329700,1.99032958984375,0.628947377204895,-0.31436458230018616,0.35066869854927063
1783696702107292700,2.000292724609375,0.7250667214393616,-0.6872063279151917,0.6469360589981079
1783696702117255700,2.010255615234375,0.8412829637527466,-0.8574103116989136,1.0204719305038452
1783696702127218400,2.020218505859375,0.9292327761650085,-0.9494422078132629,1.3906422853469849
1783696702137181400,2.030181396484375,0.9672080874443054,-1.062725305557251,1.7119412422180176
1783696702147144400,2.04014453125,0.9874670505523682,-1.1039601564407349,1.9655332565307617
1783696702157107700,2.050107666015625,0.9959219694137573,-1.0641002655029297,2.0608012676239014
1783696702167070700,2.06007080078125,1.024713158607483,-0.9078028202056885,1.958527684211731
1783696702177032400,2.070032470703125,1.0401768684387207,-0.7648414373397827,1.663416862487793
1783696702186995500,2.079995361328125,0.9611911773681641,-0.7369682788848877,1.228212833404541
1783696702196958500,2.08995849609375,0.7793298959732056,-0.7487883567810059,0.7723245620727539
1783696702206921500,2.09992138671875,0.5441194772720337,-0.6436667442321777,0.4400171637535095
1783696702216884700,2.109884765625,0.18798601627349854,-0.43269264698028564,0.29083186388015747
1783696702226847700,2.11984765625,-0.30196985602378845,-0.30596238374710083,0.3149726092815399
1783696702236810800,2.129810791015625,-0.7030707597732544,-0.17167380452156067,0.49894192814826965
1783696702246773500,2.1397734375,-0.8550267219543457,0.023977715522050858,0.7417346239089966
1783696702256736500,2.149736572265625,-0.7710801959037781,0.18285773694515228,0.8849658370018005
1783696702266699500,2.159699462890625,-0.5156619548797607,0.25810402631759644,0.8617784976959229
1783696702276662500,2.16966259765625,-0.23642343282699585,0.25440335273742676,0.6967918276786804
1783696702286625500,2.17962548828125,-0.07058599591255188,0.16508838534355164,0.4516392648220062
1783696702296587500,2.18958740234375,-0.04571298137307167,-0.051859207451343536,0.16757094860076904
1783696702306550500,2.199550537109375,-0.11319481581449509,-0.3700965642929077,-0.16509008407592773
1783696702316513500,2.209513427734375,-0.2057039737701416,-0.693981409072876,-0.5351501703262329
1783696702326476500,2.2194765625,-0.2782652676105499,-0.8889674544334412,-0.8861004710197449
1783696702336439600,2.229439453125,-0.3311622440814972,-0.9191215634346008,-1.1512012481689453
1783696702346402600,2.239402587890625,-0.369991660118103,-0.8202682137489319,-1.2809897661209106
1783696702356365600,2.249365478515625,-0.39330950379371643,-0.6711886525154114,-1.2529562711715698
1783696702366328600,2.25932861328125,-0.3942141830921173,-0.5605151057243347,-1.1221623420715332
1783696702376291600,2.26929150390625,-0.374544620513916,-0.5206137299537659,-0.9629855751991272
1783696702386254600,2.279254638671875,-0.3147057890892029,-0.5304293632507324,-0.8129396438598633
1783696702396217600,2.289217529296875,-0.2059367448091507,-0.545163094997406,-0.6742292046546936
1783696702406179600,2.2991796875,-0.04835404455661774,-0.5111263394355774,-0.5678090453147888
1783696702416142600,2.309142578125,0.11808305233716965,-0.4121904969215393,-0.4865740239620209
1783696702426105600,2.319105712890625,0.2280612289905548,-0.26495710015296936,-0.4223993122577667
1783696702436068600,2.329068603515625,0.2462264597415924,-0.10453105717897415,-0.3850438892841339
1783696702446031600,2.339031494140625,0.19968639314174652,0.059726323932409286,-0.3794645667076111
1783696702455994600,2.34899462890625,0.12721389532089233,0.2288554161787033,-0.40322110056877136
1783696702465957600,2.35895751953125,0.05422542244195938,0.4166010916233063,-0.4420507848262787
1783696702475920600,2.368920654296875,-0.0017511368496343493,0.6032994985580444,-0.49176523089408875
1783696702485883400,2.37888330078125,-0.02758912555873394,0.7707228660583496,-0.553280770778656
1783696702495846400,2.388846435546875,-0.027437802404165268,0.8942045569419861,-0.6197620630264282
1783696702505809700,2.3988095703125,-0.028318509459495544,0.9413270354270935,-0.6722753643989563
1783696702515771600,2.408771728515625,-0.04741779342293739,0.8992182016372681,-0.699942946434021
1783696702525734700,2.418734619140625,-0.10000643134117126,0.7907212972640991,-0.69502192735672
1783696702535697700,2.42869775390625,-0.19815495610237122,0.622026264667511,-0.6624351143836975
1783696702545660400,2.438660400390625,-0.2938399314880371,0.4541861116886139,-0.5855440497398376
1783696702555623400,2.44862353515625,-0.33782508969306946,0.3546760082244873,-0.4546487033367157
1783696702565586700,2.458586669921875,-0.3053632974624634,0.22141969203948975,-0.3002660572528839
1783696702575549700,2.4685498046875,-0.21346242725849152,0.039070505648851395,-0.14595694839954376
1783696702585512700,2.4785126953125,-0.06563675403594971,-0.11090008914470673,-0.009275528602302074
1783696702595475700,2.488475830078125,0.11326782405376434,-0.17451146245002747,0.11194111406803131
1783696702605438500,2.4984384765625,0.2790410816669464,-0.15031611919403076,0.20712968707084656
1783696702615401500,2.5084013671875,0.4010189175605774,-0.14088426530361176,0.26546943187713623
1783696702625363700,2.51836376953125,0.44104862213134766,-0.2050001323223114,0.24181097745895386
1783696702635326700,2.52832666015625,0.4373660981655121,-0.4339272379875183,0.05697154998779297
1783696702645289700,2.538289794921875,0.4905107915401459,-0.6459031105041504,-0.2868047058582306
1783696702655252700,2.548252685546875,0.618996798992157,-0.6487694382667542,-0.715680718421936
1783696702665215500,2.558215576171875,0.7453978657722473,-0.3270801305770874,-1.1476749181747437
1783696702675178500,2.568178466796875,0.7888543009757996,0.3559808135032654,-1.393056035041809
1783696702685141500,2.5781416015625,0.6250914931297302,1.0850800275802612,-1.391955852508545
1783696702695104500,2.5881044921875,0.29718145728111267,1.6634079217910767,-1.1961467266082764
1783696702705067500,2.598067626953125,0.02487935498356819,1.801604151725769,-0.9085854291915894
1783696702715030800,2.60803076171875,-0.11445857584476471,1.328348994255066,-0.6394204497337341
1783696702724993500,2.61799365234375,-0.21965904533863068,0.453879177570343,-0.4459356665611267
1783696702734955500,2.62795556640625,-0.32300394773483276,-0.4588586986064911,-0.31286323070526123
1783696702744918500,2.63791845703125,-0.3888753652572632,-1.2207787036895752,-0.19265106320381165
1783696702754881500,2.647881591796875,-0.3898288607597351,-1.7530781030654907,-0.07455091923475266
1783696702764844500,2.657844482421875,-0.3654952645301819,-2.0805821418762207,0.009901911951601505
1783696702774807800,2.667807861328125,-0.3487551212310791,-2.2352254390716553,0.051881447434425354
1783696702784770600,2.6777705078125,-0.330492228269577,-2.1525564193725586,0.10075871646404266
1783696702794733600,2.687733642578125,-0.2961929142475128,-1.8621206283569336,0.17436864972114563
1783696702804696600,2.697696533203125,-0.2486690729856491,-1.4518263339996338,0.2544775903224945
1783696702814659600,2.70765966796875,-0.1998363882303238,-1.0614792108535767,0.305694043636322
1783696702824622600,2.71762255859375,-0.17336483299732208,-0.7689424157142639,0.315963476896286
1783696702834584600,2.72758447265625,-0.16405506432056427,-0.5847798585891724,0.2789909541606903
1783696702844547600,2.737547607421875,-0.14847424626350403,-0.46643537282943726,0.19738423824310303
1783696702854510600,2.747510498046875,-0.09891438484191895,-0.38696447014808655,0.06832017749547958
1783696702864473600,2.7574736328125,-0.02925354614853859,-0.3308261036872864,-0.09929225593805313
1783696702874436600,2.7674365234375,0.033104050904512405,-0.2737255394458771,-0.3013284504413605
1783696702884399600,2.777399658203125,0.05468204617500305,-0.18317459523677826,-0.5172585844993591
1783696702894361900,2.78736181640625,0.03142184019088745,-0.04542061313986778,-0.7121919989585876
1783696702904325000,2.7973251953125,-0.030126208439469337,0.10012459754943848,-0.8532937169075012
1783696702914288000,2.8072880859375,-0.10746064782142639,0.2424282431602478,-0.910068690776825
1783696702924251100,2.817251220703125,-0.17686955630779266,0.34220677614212036,-0.8878685832023621
1783696702934214100,2.827214111328125,-0.21242262423038483,0.37343060970306396,-0.8119144439697266
1783696702944176000,2.837176025390625,-0.2100154012441635,0.35056522488594055,-0.6862640976905823
1783696702954139000,2.847138916015625,-0.181937113404274,0.27554911375045776,-0.5248203873634338
1783696702964102100,2.85710205078125,-0.1442837417125702,0.17095108330249786,-0.3400803506374359
1783696702974065200,2.867065185546875,-0.12092047184705734,0.03627998009324074,-0.16329717636108398
1783696702984028200,2.877028076171875,-0.12647715210914612,-0.10990705341100693,-0.005590891465544701
1783696702993991200,2.8869912109375,-0.1721327155828476,-0.21459069848060608,0.13839153945446014
1783696703003954200,2.8969541015625,-0.25187602639198303,-0.2744138240814209,0.2750346064567566
1783696703013917000,2.9069169921875,-0.34147998690605164,-0.26116424798965454,0.36551588773727417
1783696703023880000,2.9168798828125,-0.41935214400291443,-0.20959345996379852,0.38584592938423157
1783696703033843000,2.926843017578125,-0.4742160737514496,-0.1971074491739273,0.36877772212028503
1783696703043805200,2.93680517578125,-0.49631446599960327,-0.2963387072086334,0.4109869599342346
1783696703053768200,2.946768310546875,-0.45896726846694946,-0.41983574628829956,0.567227303981781
1783696703063731200,2.956731201171875,-0.3565088212490082,-0.43421441316604614,0.8094412684440613
1783696703073694000,2.96669384765625,-0.20108774304389954,-0.3192903995513916,1.0490707159042358
1783696703083657000,2.976656982421875,0.0004746661288663745,-0.16131672263145447,1.1889897584915161
1783696703093620000,2.986619873046875,0.22402514517307281,-0.051777489483356476,1.1849358081817627
1783696703103583000,2.9965830078125,0.4278552234172821,0.05313614383339882,1.0964086055755615
1783696703113546200,3.006546142578125,0.5204177498817444,0.20918038487434387,0.9918444156646729
1783696703123509200,3.01650927734375,0.4538635313510895,0.34094905853271484,0.8382591009140015
1783696703133472000,3.026471923828125,0.2813698351383209,0.41629499197006226,0.614714503288269
1783696703143435000,3.03643505859375,0.08216749876737595,0.37577953934669495,0.3689819276332855
1783696703153397000,3.04639697265625,-0.12097971886396408,0.4178515672683716,0.16149254143238068
1783696703163360000,3.056360107421875,-0.26559656858444214,0.5931676626205444,-0.03007236123085022
1783696703173323300,3.0663232421875,-0.3054474890232086,0.680986762046814,-0.281280517578125
1783696703183286300,3.076286376953125,-0.3024634122848511,0.48631399869918823,-0.5868260264396667
1783696703193249000,3.0862490234375,-0.31236812472343445,0.08836465328931808,-0.8481999039649963
1783696703203212000,3.0962119140625,-0.27787619829177856,-0.2666245996952057,-0.9749277234077454
1783696703213175000,3.106175048828125,-0.18742339313030243,-0.5106197595596313,-0.9434602856636047
1783696703223138000,3.116137939453125,-0.11262878775596619,-0.6481358408927917,-0.8194544315338135
1783696703233101000,3.12610107421875,-0.09905749559402466,-0.7283782958984375,-0.6687264442443848
1783696703243064000,3.13606396484375,-0.13457420468330383,-0.7902379631996155,-0.5244086980819702
1783696703253026000,3.146026123046875,-0.15879791975021362,-0.8437790274620056,-0.3921445906162262
1783696703262989000,3.155989013671875,-0.11238434910774231,-0.8776469826698303,-0.2802622616291046
1783696703272952000,3.1659521484375,-0.007365776225924492,-0.8362097144126892,-0.18676964938640594
1783696703282915000,3.1759150390625,0.1101941466331482,-0.7417675852775574,-0.11158674955368042
1783696703292878000,3.185878173828125,0.18533742427825928,-0.6224272847175598,-0.07073728740215302
1783696703302841000,3.195841064453125,0.1900152564048767,-0.529029130935669,-0.08031241595745087
1783696703312804000,3.20580419921875,0.13450051844120026,-0.532270610332489,-0.13870243728160858
1783696703322767000,3.21576708984375,0.025276830419898033,-0.6125774383544922,-0.2026720941066742
1783696703332730000,3.225730224609375,-0.10598863661289215,-0.6622248888015747,-0.24064326286315918
1783696703342693000,3.235693115234375,-0.22616004943847656,-0.6440383791923523,-0.22814984619617462
1783696703352656100,3.24565625,-0.32541772723197937,-0.5565412044525146,-0.17388364672660828
1783696703362617900,3.255617919921875,-0.40000486373901367,-0.425462007522583,-0.09274298697710037
1783696703372581000,3.2655810546875,-0.4340875744819641,-0.27604714035987854,-0.003257282543927431
1783696703382544100,3.275544189453125,-0.4226871132850647,-0.13029925525188446,0.07537787407636642
1783696703392507100,3.285507080078125,-0.3805728554725647,0.0004067912232130766,0.141265869140625
1783696703402470100,3.29547021484375,-0.33429113030433655,0.09258732199668884,0.19579969346523285
1783696703412433200,3.30543310546875,-0.31283512711524963,0.1316717267036438,0.24989137053489685
1783696703422396200,3.315396240234375,-0.31821951270103455,0.1284351944923401,0.3078872859477997
1783696703432359000,3.32535888671875,-0.34011003375053406,0.15419860184192657,0.38574206829071045
1783696703442322000,3.335322021484375,-0.3717462420463562,0.2096346914768219,0.48253118991851807
1783696703452284200,3.3452841796875,-0.40752968192100525,0.22314707934856415,0.5864717364311218
1783696703462247200,3.3552470703125,-0.44178351759910583,0.16856878995895386,0.688149094581604
1783696703472210200,3.365210205078125,-0.4433984160423279,0.09193717688322067,0.7938472628593445
1783696703482173000,3.3751728515625,-0.4051993787288666,0.09606561064720154,0.9013633728027344
1783696703492136000,3.385135986328125,-0.32618269324302673,0.19224151968955994,1.0013742446899414
1783696703502099000,3.395098876953125,-0.20376011729240417,0.2860468327999115,1.041689157485962
1783696703512062000,3.40506201171875,-0.044002715498209,0.34377411007881165,1.0153542757034302
1783696703522025200,3.415025146484375,0.11783038824796677,0.26718372106552124,0.9582257866859436
1783696703531988200,3.42498828125,0.27805033326148987,0.11559513211250305,0.9291906952857971
1783696703541951200,3.434951171875,0.413284569978714,0.0051527791656553745,0.9611446261405945
1783696703551913000,3.444912841796875,0.5158761739730835,-0.10132723301649094,1.0321849584579468
1783696703561876000,3.4548759765625,0.5931078195571899,-0.20354627072811127,1.049351692199707
1783696703571839000,3.4648388671875,0.617871880531311,-0.26176342368125916,0.9420126080513
1783696703581802200,3.47480224609375,0.54778653383255,-0.1333516389131546,0.706519365310669
1783696703591765200,3.48476513671875,0.3951018154621124,0.26325470209121704,0.40622690320014954
1783696703601728300,3.494728271484375,0.21631687879562378,0.7583211660385132,0.1530364453792572
1783696703611691000,3.50469091796875,0.05574662983417511,1.1915464401245117,0.025531135499477386
1783696703621654000,3.514654052734375,-0.08532047271728516,1.4938743114471436,-0.02330431528389454
1783696703631617000,3.524616943359375,-0.1413026750087738,1.6768110990524292,-0.042669374495744705
1783696703641580000,3.534580078125,-0.1159920021891594,1.67816162109375,-0.06371287256479263
1783696703651542300,3.544542236328125,-0.08309835195541382,1.5329316854476929,-0.04793277382850647
1783696703661505000,3.554505126953125,-0.06900543719530106,1.2833434343338013,0.02174697071313858
1783696703671468000,3.564468017578125,-0.04369991645216942,1.0048415660858154,0.14213444292545319
1783696703681431000,3.57443115234375,-0.004286197945475578,0.752556324005127,0.28993403911590576
1783696703691394000,3.58439404296875,0.04415002465248108,0.5411838889122009,0.4335387945175171
1783696703701357000,3.594357177734375,0.10498087853193283,0.3285967707633972,0.5603808760643005
1783696703711320000,3.604320068359375,0.16252662241458893,0.18997588753700256,0.650277316570282
1783696703721283000,3.614282958984375,0.22750508785247803,0.1703459918498993,0.6970410943031311
1783696703731246000,3.62424609375,0.3459504544734955,0.20134231448173523,0.7091557383537292
1783696703741209000,3.634208984375,0.5143820643424988,0.25537917017936707,0.6915900707244873
1783696703751172000,3.644172119140625,0.6996585130691528,0.31917309761047363,0.6468448042869568
1783696703761134000,3.654134033203125,0.8447229862213135,0.34863191843032837,0.5647978782653809
1783696703771097000,3.66409716796875,0.9085150361061096,0.30869466066360474,0.4596239924430847
1783696703781060000,3.67406005859375,0.8822922110557556,0.22506926953792572,0.3382333815097809
1783696703791023000,3.684023193359375,0.7855878472328186,0.13223479688167572,0.2051672488451004
1783696703800986000,3.693986083984375,0.6489914059638977,0.03788725659251213,0.055403854697942734
1783696703810949000,3.70394921875,0.5011433362960815,-0.0006345678120851517,-0.11127275228500366
1783696703820912000,3.713912109375,0.34282803535461426,0.0515572614967823,-0.2784571945667267
1783696703830875100,3.723875244140625,0.1691657155752182,0.17186686396598816,-0.42068806290626526
1783696703840838100,3.733838134765625,0.013150008395314217,0.42219308018684387,-0.4944472312927246
1783696703850800000,3.743800048828125,-0.09687349200248718,0.7831207513809204,-0.49827679991722107
1783696703860763100,3.75376318359375,-0.13904544711112976,1.172804594039917,-0.4719647765159607
1783696703870726100,3.76372607421875,-0.11028294265270233,1.5216679573059082,-0.4395635724067688
1783696703880689200,3.773689208984375,-0.022267863154411316,1.7621707916259766,-0.41538605093955994
1783696703890652200,3.783652099609375,0.08464636653661728,1.8968919515609741,-0.37896230816841125
1783696703900614400,3.793614501953125,0.17762479186058044,1.9573153257369995,-0.3204161822795868
1783696703910577400,3.803577392578125,0.24096553027629852,2.009024143218994,-0.23817279934883118
1783696703920540400,3.81354052734375,0.29739177227020264,2.0747504234313965,-0.15985135734081268
1783696703930503400,3.82350341796875,0.3703223466873169,2.1647677421569824,-0.11993511766195297
1783696703940466400,3.833466552734375,0.4682116210460663,2.2025909423828125,-0.1586654633283615
1783696703950428400,3.843428466796875,0.5743459463119507,2.0733492374420166,-0.3275073170661926
1783696703960391400,3.853391357421875,0.6755301356315613,1.7523213624954224,-0.6049791574478149
1783696703970354400,3.8633544921875,0.8579279184341431,1.1049216985702515,-0.8795102834701538
1783696703980317400,3.8733173828125,1.1243090629577637,0.22018973529338837,-1.0513837337493896
1783696703990280400,3.883280517578125,1.360472321510315,-0.43858593702316284,-1.0478575229644775
1783696704000243500,3.893243408203125,1.5023645162582397,-0.7256755232810974,-0.7951456308364868
1783696704010206500,3.90320654296875,1.5134843587875366,-1.1043188571929932,-0.3674914240837097
1783696704020169500,3.91316943359375,1.4055135250091553,-1.591620683670044,0.219707652926445
1783696704030132500,3.923132568359375,1.1467512845993042,-1.8251959085464478,0.9175183773040771
1783696704040095200,3.93309521484375,0.7525736093521118,-2.0028939247131348,1.5398650169372559
1783696704050057500,3.943057373046875,0.3074676990509033,-2.304055690765381,1.8835879564285278
1783696704060020500,3.9530205078125,-0.06929875910282135,-2.4933035373687744,1.9211417436599731
1783696704069983500,3.9629833984375,-0.3177244961261749,-2.3700356483459473,1.7750195264816284
1783696704079946500,3.972946533203125,-0.41768544912338257,-1.7707029581069946,1.6319255828857422
1783696704089909200,3.9829091796875,-0.3817797303199768,-0.7653575539588928,1.506955623626709
1783696704099872300,3.992872314453125,-0.16671721637248993,0.2912140190601349,1.296007513999939
1783696704109835300,4.002835205078125,0.20052261650562286,1.0632416009902954,0.9397721886634827
1783696704119798500,4.012798583984375,0.5618411302566528,1.318426489830017,0.45184195041656494
1783696704129761500,4.022761474609375,0.7842181324958801,1.0863347053527832,-0.06297308951616287
1783696704139724500,4.032724609375,0.8281688094139099,0.6057478785514832,-0.4914384186267853
1783696704149686300,4.042686279296875,0.7166810035705566,0.10785267502069473,-0.7700679898262024
1783696704159649300,4.052649169921875,0.5009756088256836,-0.3177066445350647,-0.8967872858047485
1783696704169612300,4.0626123046875,0.23563385009765625,-0.6338967680931091,-0.9166160821914673
1783696704179575600,4.072575439453125,-0.034236516803503036,-0.8367204666137695,-0.8495190739631653
1783696704189538600,4.08253857421875,-0.27408888936042786,-0.9203212857246399,-0.6645218729972839
1783696704199501600,4.09250146484375,-0.45752981305122375,-0.9272111654281616,-0.3534201979637146
1783696704209464300,4.10246435546875,-0.5779072046279907,-0.92384272813797,0.030247289687395096
1783696704219427300,4.11242724609375,-0.6041838526725769,-0.9573463797569275,0.39723992347717285
1783696704229390300,4.122390380859375,-0.5590766668319702,-1.0874587297439575,0.6605755090713501
1783696704239353300,4.132353271484375,-0.503493070602417,-1.2998031377792358,0.7922168970108032
1783696704249315600,4.142315673828125,-0.4759688079357147,-1.4950292110443115,0.7985315918922424
1783696704259278600,4.152278564453125,-0.4668661057949066,-1.6020506620407104,0.7117953896522522
1783696704269241300,4.162241455078125,-0.4706403613090515,-1.6023989915847778,0.5719841718673706
1783696704279204400,4.172204345703125,-0.48524460196495056,-1.470823884010315,0.3974611163139343
1783696704289167400,4.18216748046875,-0.4898661673069,-1.2146562337875366,0.20403152704238892
1783696704299130400,4.19213037109375,-0.47146347165107727,-0.8587062358856201,0.007023118901997805
1783696704309093400,4.20209326171875,-0.43159571290016174,-0.45512762665748596,-0.1840132176876068
1783696704319056400,4.212056396484375,-0.3688969016075134,-0.04101327434182167,-0.37873929738998413
1783696704329019400,4.222019287109375,-0.2879527807235718,0.38524332642555237,-0.5738531351089478
1783696704338981400,4.2319814453125,-0.17488589882850647,0.7840748429298401,-0.7732897996902466
1783696704348944400,4.2419443359375,-0.03167982026934624,1.0475196838378906,-0.9569706916809082
1783696704358907400,4.251907470703125,0.09378089755773544,1.1458640098571777,-1.0756568908691406
1783696704368870400,4.261870361328125,0.16672275960445404,1.10442054271698,-1.1008334159851074
1783696704378833400,4.27183349609375,0.17102296650409698,0.9697480201721191,-1.0348857641220093
1783696704388796400,4.28179638671875,0.09942198544740677,0.8006014227867126,-0.8822684288024902
1783696704398759400,4.291759521484375,-0.051104675978422165,0.6197727918624878,-0.6819701790809631
1783696704408722400,4.301722412109375,-0.24270206689834595,0.4073631763458252,-0.46375203132629395
1783696704418685400,4.311685546875,-0.4209490418434143,0.1456194519996643,-0.24323083460330963
1783696704428647400,4.3216474609375,-0.5302200317382812,-0.1648925393819809,-0.011641074903309345
1783696704438610400,4.3316103515625,-0.5708361864089966,-0.4806545078754425,0.23980340361595154
1783696704448573400,4.341573486328125,-0.5593791604042053,-0.8415201306343079,0.4584549069404602
1783696704458536400,4.351536376953125,-0.4922797679901123,-1.2843718528747559,0.5706967711448669
1783696704468499500,4.36149951171875,-0.3426625728607178,-1.6064846515655518,0.5535818338394165
1783696704478462500,4.37146240234375,-0.16747772693634033,-1.653475046157837,0.3728739023208618
1783696704488425500,4.381425537109375,-0.00644510006532073,-1.353498935699463,0.025893688201904297
1783696704498388500,4.391388427734375,0.08405178040266037,-0.8874603509902954,-0.4056800901889801
1783696704508351200,4.401351318359375,0.10330325365066528,-0.3831953704357147,-0.7578654885292053
1783696704518314200,4.411314208984375,0.13670700788497925,0.31162816286087036,-0.8844758868217468
1783696704528276500,4.4212763671875,0.24006760120391846,1.1109602451324463,-0.7745367884635925
1783696704538239500,4.431239501953125,0.4707269072532654,1.8746262788772583,-0.46573737263679504
1783696704548202500,4.441202392578125,0.7642480134963989,2.4685516357421875,-0.12093621492385864
1783696704558165200,4.451165283203125,1.0569679737091064,2.7184643745422363,-0.004111596383154392
1783696704568128300,4.461128173828125,1.3341768980026245,2.504779577255249,-0.19353632628917694
1783696704578091300,4.47109130859375,1.489179015159607,2.0304112434387207,-0.6037291884422302
1783696704588054500,4.481054443359375,1.458233118057251,1.5305923223495483,-1.1010810136795044
1783696704598017500,4.491017578125,1.2802809476852417,1.1231025457382202,-1.5772815942764282
1783696704607980500,4.50098046875,1.0360915660858154,0.7972406148910522,-1.9375503063201904
1783696704617942300,4.5109423828125,0.758039653301239,0.48140621185302734,-2.1485793590545654
1783696704627905300,4.5209052734375,0.4572523832321167,0.2074517011642456,-2.220263957977295
1783696704637868300,4.530868408203125,0.17367981374263763,-0.006205196026712656,-2.199432611465454
1783696704647831600,4.54083154296875,-0.06089324504137039,-0.16725918650627136,-2.145904302597046
1783696704657794600,4.550794677734375,-0.21698057651519775,-0.4481041729450226,-2.022639513015747
1783696704667757600,4.560757568359375,-0.26224586367607117,-0.7459161877632141,-1.7384368181228638
1783696704677720300,4.57072021484375,-0.25602179765701294,-0.8929506540298462,-1.320205569267273
1783696704687683300,4.580683349609375,-0.23823899030685425,-0.8846534490585327,-0.8647600412368774
1783696704697646300,4.590646240234375,-0.23023992776870728,-0.8089088797569275,-0.47535231709480286
1783696704707608600,4.600608642578125,-0.26567408442497253,-0.718507707118988,-0.2116234004497528
1783696704717571600,4.610571533203125,-0.36260756850242615,-0.6107631325721741,-0.10535581409931183
1783696704727534600,4.62053466796875,-0.49512597918510437,-0.5011494159698486,-0.15410101413726807
1783696704737497300,4.630497314453125,-0.6444550156593323,-0.3799803555011749,-0.31615862250328064
1783696704747460400,4.64046044921875,-0.8031299710273743,-0.23049764335155487,-0.5204115509986877
1783696704757423400,4.65042333984375,-0.9636895656585693,-0.0791989266872406,-0.699208676815033
1783696704767386400,4.660386474609375,-1.1093188524246216,-0.0011804522946476936,-0.8079183101654053
1783696704777349400,4.670349365234375,-1.207253098487854,-0.007342740893363953,-0.8293687105178833
1783696704787312400,4.6803125,-1.2556564807891846,-0.0639481320977211,-0.7545410990715027
1783696704797275400,4.690275390625,-1.2497828006744385,-0.14258888363838196,-0.6093186736106873
1783696704807237400,4.7002373046875,-1.2026638984680176,-0.22480693459510803,-0.4221018850803375
1783696704817200400,4.710200439453125,-1.1108263731002808,-0.2945151627063751,-0.2116442620754242
1783696704827163400,4.720163330078125,-0.975584089756012,-0.3190285563468933,0.01360259111970663
1783696704837126400,4.73012646484375,-0.8085290193557739,-0.3663356304168701,0.22655907273292542
1783696704847089400,4.74008935546875,-0.602453351020813,-0.4112468659877777,0.4016076922416687
1783696704857052400,4.750052490234375,-0.38234657049179077,-0.39192935824394226,0.5518086552619934
1783696704867015400,4.760015380859375,-0.18565906584262848,-0.27382490038871765,0.6704843640327454
1783696704876978400,4.769978515625,-0.03432120382785797,-0.05745398625731468,0.764504075050354
1783696704886941400,4.77994140625,0.08294234424829483,0.3321661651134491,0.8513113260269165
1783696704896904000,4.789904052734375,0.1297314167022705,0.8187211751937866,0.9023030996322632
1783696704906867000,4.799866943359375,0.09617087990045547,1.0716538429260254,0.9001006484031677
1783696704916830000,4.809829833984375,0.05143057554960251,0.7833541631698608,0.8383038640022278
1783696704926793000,4.81979296875,0.08150210976600647,0.16278591752052307,0.7677794098854065
1783696704936756000,4.829755859375,0.1948547661304474,-0.2731405198574066,0.7264942526817322
1783696704946719000,4.839718994140625,0.32902881503105164,-0.31392285227775574,0.6692379117012024
1783696704956682000,4.849681884765625,0.4045720398426056,-0.12256993353366852,0.47604769468307495
1783696704966645000,4.85964501953125,0.38977381587028503,-0.00799167063087225,0.11387543380260468
1783696704976608000,4.86960791015625,0.32466965913772583,-0.1907987743616104,-0.3314194679260254
1783696704986570000,4.879570068359375,0.255002498626709,-0.5337479114532471,-0.6693705320358276
1783696704996533000,4.889532958984375,0.22175346314907074,-0.6766368746757507,-0.7140125632286072
1783696705006496000,4.89949609375,0.23340725898742676,-0.4083487391471863,-0.42572832107543945
1783696705016459000,4.909458984375,0.2744031548500061,0.19113971292972565,0.06576205044984818
1783696705026422000,4.919422119140625,0.3072910010814667,0.7989803552627563,0.5140456557273865
1783696705036385000,4.929385009765625,0.345449298620224,1.0813390016555786,0.6928204298019409
1783696705046347800,4.93934765625,0.39538848400115967,0.9806073904037476,0.5568733215332031
1783696705056310800,4.949310791015625,0.4166000187397003,0.5981058478355408,0.15430325269699097
1783696705066274000,4.959274169921875,0.4037330448627472,0.015828045085072517,-0.4122929573059082
1783696705076237000,4.969237060546875,0.3972093462944031,-0.5531416535377502,-0.9928956031799316
1783696705086199000,4.979198974609375,0.4183608293533325,-0.8665164113044739,-1.4141592979431152
1783696705096161800,4.989161865234375,0.4461330771446228,-1.0071630477905273,-1.6151713132858276
1783696705106124800,4.999124755859375,0.44182851910591125,-1.0959566831588745,-1.5812880992889404
1783696705116087800,5.009087890625,0.39166441559791565,-1.1721720695495605,-1.3449549674987793
1783696705126051000,5.019051025390625,0.2980900704860687,-1.2669609785079956,-0.9727424383163452
1783696705136014000,5.02901416015625,0.17074459791183472,-1.3650035858154297,-0.537592351436615
1783696705145977000,5.03897705078125,0.03545365482568741,-1.4311779737472534,-0.09881071001291275
1783696705155940000,5.048940185546875,-0.08580965548753738,-1.467458724975586,0.2912300229072571
1783696705165902800,5.05890283203125,-0.1753917783498764,-1.4743129014968872,0.5931058526039124
1783696705175864800,5.06886474609375,-0.2320856750011444,-1.4240542650222778,0.7860345244407654
1783696705185828000,5.078828125,-0.27698326110839844,-1.2829874753952026,0.8816854953765869
1783696705195791000,5.088791015625,-0.31360092759132385,-1.0435926914215088,0.9081442356109619
1783696705205754000,5.098754150390625,-0.347342848777771,-0.7183493971824646,0.8783193826675415
1783696705215717000,5.108717041015625,-0.37331345677375793,-0.3359442949295044,0.801104724407196
1783696705225680000,5.118679931640625,-0.39899182319641113,0.0794980376958847,0.6911594867706299
1783696705235643000,5.128642822265625,-0.4259869456291199,0.4732421338558197,0.5373039245605469
1783696705245606000,5.13860595703125,-0.4479984641075134,0.7857712507247925,0.35870561003685
1783696705255569000,5.14856884765625,-0.46000343561172485,1.0405749082565308,0.1882486492395401
1783696705265531100,5.15853125,-0.4700217843055725,1.3386601209640503,0.06823703646659851
1783696705275494000,5.168493896484375,-0.4643218219280243,1.6645724773406982,0.026932738721370697
1783696705285457000,5.178456787109375,-0.4241297245025635,1.9645322561264038,0.08936759829521179
1783696705295420000,5.188419921875,-0.36445868015289307,2.1624040603637695,0.18950192630290985
1783696705305383000,5.1983828125,-0.34871742129325867,2.1898868083953857,0.23653779923915863
1783696705315346000,5.208345947265625,-0.33000391721725464,2.0640106201171875,0.20709174871444702
1783696705325309000,5.218308837890625,-0.31101056933403015,1.9037452936172485,0.1110905110836029
1783696705335272200,5.228272216796875,-0.2819688022136688,1.6719895601272583,-0.010653764940798283
1783696705345235000,5.23823486328125,-0.21118846535682678,1.3075112104415894,-0.07908203452825546
1783696705355197000,5.248197021484375,-0.12033633887767792,0.926685631275177,-0.08484777808189392
1783696705365160000,5.258159912109375,-0.05772920325398445,0.46020016074180603,-0.056983694434165955
1783696705375123000,5.268123046875,-0.04103171452879906,-0.09053196012973785,0.03324446827173233
1783696705385086000,5.2780859375,-0.0755661353468895,-0.5386452078819275,0.20889157056808472
1783696705395049000,5.288049072265625,-0.12040258198976517,-0.7978274822235107,0.44001665711402893
1783696705405012000,5.298011962890625,-0.1442967802286148,-0.8826295137405396,0.6807981133460999
1783696705414975000,5.30797509765625,-0.10192348062992096,-0.8427428007125854,0.8950507640838623
1783696705426806000,5.319805908203125,0.06133177503943443,-0.5851501226425171,1.064738392829895
1783696705436768000,5.32976806640625,0.25542721152305603,-0.23720206320285797,1.0693893432617188
1783696705446730800,5.339730712890625,0.4249427616596222,-0.0574500672519207,0.8479359149932861
1783696705456693800,5.34969384765625,0.5569931864738464,-0.18622854351997375,0.3932048976421356
1783696705466657000,5.359656982421875,0.6619501709938049,-0.42444443702697754,-0.16035927832126617
1783696705476620000,5.3696201171875,0.7086519002914429,-0.583024799823761,-0.670299232006073
1783696705486583000,5.3795830078125,0.6455584168434143,-0.6554495692253113,-1.0657243728637695
1783696705496546000,5.389546142578125,0.47460904717445374,-0.6179189682006836,-1.3326632976531982
1783696705506509000,5.399509033203125,0.2457716315984726,-0.48496752977371216,-1.4988808631896973
1783696705516471800,5.409471923828125,-0.02989109978079796,-0.3430708646774292,-1.6603238582611084
1783696705526434000,5.41943408203125,-0.3086588382720947,-0.20382575690746307,-1.8063089847564697
1783696705536397000,5.42939697265625,-0.4893561899662018,0.04939159005880356,-1.799720048904419
1783696705546360000,5.439360107421875,-0.49850988388061523,0.3694921135902405,-1.5628550052642822
1783696705556323000,5.449322998046875,-0.3535103499889374,0.5596407651901245,-1.1647531986236572
1783696705566285800,5.459285888671875,-0.15104687213897705,0.558294415473938,-0.7300640940666199
1783696705576248800,5.469248779296875,0.007004805840551853,0.41920068860054016,-0.3499055802822113
1783696705586211800,5.4792119140625,0.0890495702624321,0.13025636970996857,-0.07174753397703171
1783696705596174800,5.4891748046875,0.10816919803619385,-0.26171326637268066,0.10764352977275848
1783696705606138000,5.49913818359375,0.056058529764413834,-0.5839776396751404,0.16386733949184418
1783696705616101000,5.50910107421875,-0.04650779440999031,-0.7503005862236023,0.07172542810440063
1783696705626062800,5.519062744140625,-0.14702337980270386,-0.7277481555938721,-0.1563757210969925
1783696705636025900,5.52902587890625,-0.24409879744052887,-0.5356146693229675,-0.4487963914871216
1783696705645988900,5.53898876953125,-0.3263587951660156,-0.24605228006839752,-0.7206137180328369
1783696705655952000,5.548951904296875,-0.38864532113075256,0.0797300860285759,-0.9435770511627197
1783696705665915100,5.5589150390625,-0.43182218074798584,0.35442647337913513,-1.1120257377624512
1783696705675878100,5.568878173828125,-0.4585871994495392,0.5369393229484558,-1.224104881286621
1783696705685841000,5.5788408203125,-0.47421643137931824,0.6704033613204956,-1.2761319875717163
1783696705695804000,5.588803955078125,-0.47420790791511536,0.8156452775001526,-1.2787659168243408
1783696705705766000,5.598765869140625,-0.4646967053413391,1.0165376663208008,-1.2238402366638184
1783696705715729000,5.60872900390625,-0.47063687443733215,1.262931227684021,-1.074150800704956
1783696705725692200,5.618692138671875,-0.5011811256408691,1.4588494300842285,-0.8696545362472534
1783696705735655200,5.6286552734375,-0.5205729603767395,1.534734845161438,-0.6556256413459778
1783696705746240800,5.63924072265625,-0.4883383512496948,1.502263069152832,-0.44020336866378784
1783696705756203800,5.649203857421875,-0.3800089359283447,1.3886324167251587,-0.2322392463684082
1783696705766167000,5.6591669921875,-0.21538342535495758,1.2418968677520752,-0.010380410589277744
1783696705776129000,5.66912890625,-0.05080459639430046,1.082627296447754,0.23241333663463593
1783696705786092000,5.679092041015625,0.06835108995437622,0.9171088337898254,0.48574119806289673
1783696705796054800,5.6890546875,0.11989656835794449,0.761509120464325,0.7291746139526367
1783696705806017800,5.699017822265625,0.12192115187644958,0.5884876847267151,0.9504117369651794
1783696705815980800,5.708980712890625,0.10527931898832321,0.3696640133857727,1.1634154319763184
1783696705825944000,5.718944091796875,0.10309731215238571,0.110942043364048,1.3745863437652588
1783696705835907000,5.728906982421875,0.12383455038070679,-0.17815634608268738,1.5581927299499512
1783696705845870000,5.7388701171875,0.17881277203559875,-0.4974959194660187,1.7064263820648193
1783696705855831800,5.748831787109375,0.2626892626285553,-0.8744615316390991,1.826082706451416
1783696705865794800,5.758794921875,0.37108999490737915,-1.2842237949371338,1.894108772277832
1783696705875757800,5.7687578125,0.4796513319015503,-1.6344377994537354,1.9230916500091553
1783696705885721000,5.77872119140625,0.5935060381889343,-1.8451180458068848,1.9227067232131958
1783696705895683300,5.788683349609375,0.7216480374336243,-1.9031273126602173,1.8354123830795288
1783696705905646300,5.798646240234375,0.8852235078811646,-1.8577070236206055,1.6071542501449585
1783696705915609300,5.808609375,1.0677275657653809,-1.7700203657150269,1.2790024280548096
1783696705925572400,5.818572265625,1.1995962858200073,-1.6899830102920532,0.9492255449295044
1783696705935535400,5.828535400390625,1.1744225025177002,-1.4391318559646606,0.7125698328018188
1783696705945498000,5.838498046875,0.9289438128471375,-0.9167631268501282,0.5697693824768066
1783696705955460400,5.84846044921875,0.5286027789115906,-0.2106989324092865,0.5115748047828674
1783696705965423400,5.85842333984375,0.14060024917125702,0.46045076847076416,0.5134143829345703
1783696705975386400,5.868386474609375,-0.058477163314819336,0.6879137754440308,0.4969501793384552
1783696705985349400,5.878349365234375,-0.06862790882587433,0.29834190011024475,0.3608742654323578
1783696705995312400,5.8883125,0.0016063121147453785,-0.42514708638191223,0.1557234823703766
1783696706005275100,5.898275146484375,0.08682815730571747,-1.0658588409423828,0.01099727675318718
1783696706015238400,5.90823828125,0.15696623921394348,-1.4271669387817383,0.009754380211234093
1783696706025201400,5.918201416015625,0.1881333738565445,-1.4752649068832397,0.1476370394229889
1783696706035164400,5.928164306640625,0.14520907402038574,-1.2713769674301147,0.29052841663360596
1783696706045126400,5.93812646484375,0.05777408182621002,-0.9551770091056824,0.33056068420410156
1783696706055089200,5.948089111328125,-0.006134861148893833,-0.6350719332695007,0.24822504818439484
1783696706065052200,5.95805224609375,-0.01683189906179905,-0.3815173804759979,0.07136952131986618
1783696706075015400,5.968015380859375,0.009319811128079891,-0.2184714525938034,-0.14762380719184875
1783696706084978400,5.977978515625,0.056333739310503006,-0.13872142136096954,-0.36557668447494507
1783696706094941400,5.98794140625,0.10928217321634293,-0.12269292026758194,-0.5567495822906494
1783696706104904400,5.997904541015625,0.15488575398921967,-0.14377765357494354,-0.6864044666290283
1783696706114867500,6.007867431640625,0.19631095230579376,-0.16474206745624542,-0.7652953267097473
1783696706124830200,6.017830322265625,0.23350109159946442,-0.18921123445034027,-0.8245336413383484
1783696706134792400,6.02779248046875,0.2806161344051361,-0.2038106769323349,-0.8738180994987488
1783696706144755500,6.03775537109375,0.3279697000980377,-0.20132899284362793,-0.917638897895813
1783696706154718500,6.047718505859375,0.3576365113258362,-0.1802562028169632,-0.936754584312439
1783696706164681500,6.057681396484375,0.3541930913925171,-0.08244767040014267,-0.9112184643745422
1783696706174644200,6.067644287109375,0.3255574703216553,0.07778727263212204,-0.8359277248382568
1783696706184607200,6.077607177734375,0.27969369292259216,0.27079471945762634,-0.7107399106025696
1783696706194570200,6.0875703125,0.22617189586162567,0.45427802205085754,-0.5444380044937134
1783696706204533200,6.097533203125,0.1689620167016983,0.5988858342170715,-0.3540099859237671
1783696706214496300,6.107496337890625,0.10693806409835815,0.6727153062820435,-0.15260069072246552
1783696706224458200,6.117458251953125,0.05025939643383026,0.682479739189148,0.04911667853593826
1783696706234421200,6.127421142578125,-0.0026110089384019375,0.670001745223999,0.24578766524791718
1783696706244384300,6.13738427734375,-0.05496611073613167,0.6605552434921265,0.42531490325927734
1783696706254347300,6.14734716796875,-0.10690601170063019,0.6821321249008179,0.5813436508178711
1783696706264310300,6.157310302734375,-0.15882164239883423,0.7675621509552002,0.7011605501174927
1783696706274273300,6.167273193359375,-0.20590287446975708,0.8895364999771118,0.7777860760688782
1783696706284236500,6.177236572265625,-0.23149065673351288,1.0227665901184082,0.8238191604614258
1783696706294199300,6.18719921875,-0.24419473111629486,1.1344382762908936,0.8302706480026245
1783696706304162300,6.197162353515625,-0.25605499744415283,1.2240674495697021,0.8151108622550964
1783696706314124300,6.207124267578125,-0.27997204661369324,1.3246220350265503,0.7991939187049866
1783696706324087300,6.21708740234375,-0.3019288182258606,1.395552635192871,0.7877655625343323
1783696706334050300,6.22705029296875,-0.2883876860141754,1.352319359779358,0.798257052898407
1783696706344013600,6.237013671875,-0.25196877121925354,1.1211131811141968,0.8261918425559998
1783696706353976300,6.246976318359375,-0.2226358950138092,0.7233094573020935,0.8276858925819397
1783696706363939300,6.256939208984375,-0.20785845816135406,0.21554605662822723,0.7610896825790405
1783696706373902300,6.26690234375,-0.15788689255714417,-0.3534652292728424,0.5979939699172974
1783696706383865300,6.276865234375,-0.03990482911467552,-0.9295724630355835,0.3169090747833252
1783696706393828400,6.286828369140625,0.12970390915870667,-1.394415259361267,-0.0343637578189373
1783696706403790300,6.296790283203125,0.29365214705467224,-1.482042670249939,-0.33623355627059937
1783696706413753300,6.30675341796875,0.3886559009552002,-1.0850969552993774,-0.5066497325897217
1783696706423716400,6.31671630859375,0.3811820149421692,-0.3835809528827667,-0.5387002229690552
1783696706433679400,6.326679443359375,0.29383620619773865,0.4764288365840912,-0.4818262457847595
1783696706443642400,6.336642333984375,0.2059602290391922,1.214536190032959,-0.42872288823127747
1783696706453605400,6.34660546875,0.16927091777324677,1.5057570934295654,-0.4515669345855713
1783696706463568400,6.356568359375,0.16321611404418945,1.2749660015106201,-0.5804958939552307
1783696706473531100,6.36653125,0.13979467749595642,0.714962363243103,-0.758591890335083
1783696706483494400,6.376494384765625,0.10727695375680923,0.062236763536930084,-0.9038881063461304
1783696706493456400,6.386456298828125,0.07968287914991379,-0.5574193000793457,-0.992239236831665
1783696706503419400,6.39641943359375,0.05668722465634346,-1.1195967197418213,-1.0741612911224365
1783696706513382400,6.40638232421875,0.0022583366371691227,-1.6059250831604004,-1.1671605110168457
1783696706523345200,6.41634521484375,-0.042803578078746796,-1.9231152534484863,-1.2202554941177368
1783696706533308200,6.42630810546875,-0.07295935600996017,-1.9148296117782593,-1.1910814046859741
1783696706543271400,6.436271484375,-0.09488625824451447,-1.6221452951431274,-1.0597046613693237
1783696706553234400,6.446234375,-0.105146624147892,-1.1812118291854858,-0.8700394630432129
1783696706563197400,6.456197509765625,-0.11877407878637314,-0.6887446641921997,-0.6664381623268127
1783696706573160400,6.466160400390625,-0.1632171869277954,-0.20412206649780273,-0.5099702477455139
1783696706583122200,6.4761220703125,-0.2629600763320923,0.21589237451553345,-0.4912487864494324
1783696706593085200,6.486085205078125,-0.4118654131889343,0.5484074354171753,-0.6454037427902222
1783696706603048400,6.49604833984375,-0.5553584694862366,0.7801997065544128,-0.9386244416236877
1783696706613011500,6.506011474609375,-0.6201108694076538,0.8464956283569336,-1.2499721050262451
1783696706622974500,6.515974365234375,-0.6011714339256287,0.7211600542068481,-1.473104476928711
1783696706632937500,6.5259375,-0.5576252937316895,0.4871049225330353,-1.5654808282852173
1783696706642900200,6.535900146484375,-0.5217000246047974,0.23472249507904053,-1.5105565786361694
1783696706652863200,6.54586328125,-0.4971393048763275,0.03478994220495224,-1.3269531726837158
1783696706662826200,6.555826171875,-0.47493433952331543,-0.0723758190870285,-1.0467519760131836
1783696706672788500,6.56578857421875,-0.45576250553131104,-0.08681733906269073,-0.6968080997467041
1783696706682751500,6.57575146484375,-0.4367164373397827,-0.04024399071931839,-0.30407026410102844
1783696706692714500,6.585714599609375,-0.42968836426734924,0.04350310564041138,0.09719326347112656
1783696706702677200,6.59567724609375,-0.449072927236557,0.14649854600429535,0.49376559257507324
1783696706712640300,6.60564013671875,-0.48885977268218994,0.24367621541023254,0.8613614439964294
1783696706722603300,6.615603271484375,-0.5169447064399719,0.3335038125514984,1.1907880306243896
1783696706732566300,6.625566162109375,-0.5226824879646301,0.4452979862689972,1.4593111276626587
1783696706742529300,6.635529296875,-0.5014331936836243,0.5735642313957214,1.6582239866256714
1783696706752492500,6.645492431640625,-0.4551070034503937,0.6988294720649719,1.777219533920288
1783696706762454300,6.655454345703125,-0.38532060384750366,0.7705910205841064,1.8208309412002563
1783696706772417300,6.665417236328125,-0.3043125867843628,0.7456116676330566,1.7844523191452026
1783696706782380300,6.67538037109375,-0.2022390514612198,0.5583673715591431,1.6739981174468994
1783696706792343300,6.68534326171875,-0.06395174562931061,0.20520929992198944,1.5128768682479858
1783696706802306300,6.695306396484375,0.10012665390968323,-0.1978537142276764,1.3153947591781616
1783696706812269600,6.70526953125,0.2554411292076111,-0.5347672700881958,1.0794646739959717
1783696706822232300,6.715232421875,0.3863450884819031,-0.6839534640312195,0.7877804040908813
1783696706832195300,6.7251953125,0.4747585654258728,-0.48326486349105835,0.45029422640800476
1783696706842157300,6.7351572265625,0.5162490010261536,0.03226098418235779,0.10349714010953903
1783696706852120300,6.745120361328125,0.50709468126297,0.4941870868206024,-0.198926642537117
1783696706862083300,6.755083251953125,0.43767353892326355,0.5919613242149353,-0.4140661954879761
1783696706872046300,6.76504638671875,0.3103954792022705,0.42524850368499756,-0.4525805711746216
1783696706882009300,6.77500927734375,0.1495450735092163,0.29175642132759094,-0.25169116258621216
1783696706891972400,6.784972412109375,-0.039248012006282806,0.29958903789520264,0.12846069037914276
1783696706901935400,6.794935302734375,-0.20858123898506165,0.34477174282073975,0.5429348349571228
1783696706911898400,6.8048984375,-0.27958589792251587,0.26246729493141174,0.8253266215324402
1783696706921861400,6.814861328125,-0.2535580098628998,-0.04737699031829834,0.8850567936897278
1783696706931823400,6.8248232421875,-0.1771734654903412,-0.45808783173561096,0.7626864314079285
1783696706941786400,6.834786376953125,-0.09118330478668213,-0.8527125120162964,0.5480350255966187
1783696706951749400,6.844749267578125,-0.03647744283080101,-1.1856787204742432,0.3086160123348236
1783696706961712400,6.85471240234375,-0.03994094580411911,-1.4260272979736328,0.06807545572519302
1783696706971675400,6.86467529296875,-0.06821040064096451,-1.5400593280792236,-0.15686869621276855
1783696706981638100,6.87463818359375,-0.0936524048447609,-1.517362117767334,-0.3475233018398285
1783696706991601200,6.88460107421875,-0.10439932346343994,-1.3925434350967407,-0.49328184127807617
1783696707001564200,6.894564208984375,-0.07733253389596939,-1.1510823965072632,-0.5634939074516296
1783696707011527400,6.90452734375,-0.007892733439803123,-0.8069067001342773,-0.5378205180168152
1783696707021489400,6.914489501953125,0.0860237181186676,-0.453563392162323,-0.43895086646080017
1783696707031452200,6.9244521484375,0.16389907896518707,-0.17162199318408966,-0.32342612743377686
1783696707041415200,6.934415283203125,0.19540703296661377,0.018515707924962044,-0.24681051075458527
1783696707051378200,6.944378173828125,0.19641344249248505,0.14009806513786316,-0.24076354503631592
1783696707061341200,6.954341064453125,0.18913118541240692,0.24302799999713898,-0.2931123375892639
1783696707071304400,6.964304443359375,0.17601405084133148,0.382394403219223,-0.38744282722473145
1783696707081267500,6.974267333984375,0.14660444855690002,0.5744985938072205,-0.5008611679077148
1783696707091230500,6.98423046875,0.0968179851770401,0.8125982284545898,-0.6029547452926636
1783696707101192200,6.994192138671875,0.016589809209108353,1.063660740852356,-0.654792070388794
1783696707111155200,7.0041552734375,-0.08399991691112518,1.289098858833313,-0.6334851980209351
1783696707121118200,7.0141181640625,-0.2037544697523117,1.4770643711090088,-0.5385546684265137
1783696707131081200,7.024081298828125,-0.3206688463687897,1.607655644416809,-0.3692287504673004
1783696707141044500,7.03404443359375,-0.4075077772140503,1.6569209098815918,-0.13071106374263763
1783696707151007200,7.04400732421875,-0.44131261110305786,1.6001276969909668,0.1582493782043457
1783696707160970200,7.05397021484375,-0.42651891708374023,1.4609540700912476,0.4796491861343384
1783696707170933200,7.063933349609375,-0.39993417263031006,1.2797163724899292,0.804326593875885
1783696707180896300,7.073896240234375,-0.3798294961452484,1.0960906744003296,1.0875290632247925
1783696707190858200,7.083858154296875,-0.3653533458709717,0.9288178086280823,1.3051828145980835
1783696707200821500,7.093821533203125,-0.335379958152771,0.7657736539840698,1.4575467109680176
1783696707210784300,7.1037841796875,-0.28908994793891907,0.6024552583694458,1.5328736305236816
1783696707220747300,7.113747314453125,-0.24002864956855774,0.4095694422721863,1.5438458919525146
1783696707230710300,7.123710205078125,-0.17455056309700012,0.17122451961040497,1.5207264423370361
1783696707240673300,7.13367333984375,-0.10149835795164108,-0.11835512518882751,1.4828407764434814
1783696707250636300,7.14363623046875,-0.04581006243824959,-0.4633375406265259,1.4492220878601074
1783696707260599300,7.153599365234375,-0.03866814076900482,-0.8846280574798584,1.4178768396377563
1783696707270562300,7.163562255859375,-0.06002296134829521,-1.344040870666504,1.3525716066360474
1783696707280524300,7.173524169921875,-0.09981038421392441,-1.7470207214355469,1.2354671955108643
1783696707290487300,7.1834873046875,-0.16411639750003815,-1.9820271730422974,1.074413776397705
1783696707300450300,7.1934501953125,-0.2384146898984909,-2.0427727699279785,0.9196459650993347
1783696707310413300,7.203413330078125,-0.3010956645011902,-1.9259766340255737,0.7907731533050537
1783696707320376300,7.213376220703125,-0.34913021326065063,-1.743475079536438,0.6622824668884277
1783696707330339000,7.223339111328125,-0.3936974108219147,-1.5785762071609497,0.4896520674228668
1783696707340302300,7.23330224609375,-0.47512951493263245,-1.3328381776809692,0.256331205368042
1783696707350265300,7.243265380859375,-0.6319165229797363,-0.8788360953330994,-0.017613805830478668
1783696707360227300,7.253227294921875,-0.8218986988067627,-0.18326519429683685,-0.251250684261322
1783696707370190300,7.2631904296875,-0.9893406629562378,0.5399300456047058,-0.35184362530708313
1783696707380153000,7.273153076171875,-1.0731761455535889,1.0436787605285645,-0.31663623452186584
1783696707390116000,7.2831162109375,-1.0463653802871704,1.1570417881011963,-0.23419490456581116
1783696707400079400,7.293079345703125,-0.9377749562263489,0.8783130645751953,-0.18704918026924133
1783696707410042400,7.30304248046875,-0.8029308319091797,0.32839563488960266,-0.2568378150463104
1783696707420005400,7.31300537109375,-0.6624507308006287,-0.2813262641429901,-0.4445202052593231
1783696707429968400,7.322968505859375,-0.44910725951194763,-0.7870213985443115,-0.6850457191467285
1783696707439931400,7.332931396484375,-0.14217455685138702,-1.105967402458191,-0.8934005498886108
1783696707449893000,7.34289306640625,0.21833063662052155,-1.2463306188583374,-0.9935703277587891
1783696707459856400,7.3528564453125,0.5873941779136658,-1.2888399362564087,-0.9628709554672241
1783696707469819400,7.3628193359375,0.9032666683197021,-1.3315950632095337,-0.8331766128540039
1783696707479782400,7.372782470703125,1.120200514793396,-1.37446928024292,-0.6212866306304932
1783696707489745400,7.382745361328125,1.2459489107131958,-1.3572700023651123,-0.343906968832016
1783696707499708200,7.392708251953125,1.3006932735443115,-1.294040322303772,-0.05346691235899925
1783696707509671200,7.402671142578125,1.2998533248901367,-1.1959190368652344,0.1892589032649994
1783696707519634200,7.41263427734375,1.2026493549346924,-1.1089383363723755,0.31218090653419495
1783696707529596400,7.422596435546875,1.0093696117401123,-1.024017095565796,0.303725928068161
1783696707539559400,7.432559326171875,0.7678012847900391,-0.911357581615448,0.18722845613956451
1783696707549522400,7.4425224609375,0.5301437377929688,-0.7361173033714294,-0.004441637545824051
1783696707559485200,7.452485107421875,0.32556846737861633,-0.46466904878616333,-0.20542454719543457
1783696707569448200,7.4624482421875,0.14379337430000305,-0.13020317256450653,-0.37481412291526794
1783696707579411200,7.4724111328125,-0.010795935057103634,0.2080215960741043,-0.4744701087474823
1783696707589374200,7.482374267578125,-0.14047883450984955,0.5031237602233887,-0.4752959609031677
1783696707599337200,7.492337158203125,-0.2509324550628662,0.7357091903686523,-0.3596614599227905
1783696707609299200,7.50229931640625,-0.36211782693862915,0.9228143692016602,-0.14267508685588837
1783696707619262200,7.51226220703125,-0.4857475161552429,1.088953971862793,0.15413787961006165
1783696707629225200,7.52222509765625,-0.6086924076080322,1.220445156097412,0.5125953555107117
1783696707639188200,7.532188232421875,-0.7187110185623169,1.2831051349639893,0.8946717381477356
1783696707649151200,7.542151123046875,-0.8030211329460144,1.2692005634307861,1.2497845888137817
1783696707659114200,7.5521142578125,-0.8586276769638062,1.1964638233184814,1.5322102308273315
1783696707669077500,7.562077392578125,-0.875080943107605,1.0822203159332275,1.7215101718902588
1783696707679040300,7.572040283203125,-0.8360691070556641,0.9404852390289307,1.798221468925476
1783696707689003300,7.582003173828125,-0.761351466178894,0.8024206161499023,1.761468768119812
1783696707698965200,7.59196533203125,-0.6583574414253235,0.7081712484359741,1.6302036046981812
1783696707708928300,7.60192822265625,-0.5391785502433777,0.6764900088310242,1.4438236951828003
1783696707718891300,7.611891357421875,-0.40897876024246216,0.7093485593795776,1.263164758682251
1783696707728854300,7.621854248046875,-0.2803073227405548,0.7393625974655151,1.132197618484497
1783696707738817300,7.6318173828125,-0.15522241592407227,0.6424375772476196,1.0333096981048584
1783696707748780300,7.6417802734375,-0.048248291015625,0.32940536737442017,0.918636679649353
1783696707758743300,7.651743408203125,0.046579211950302124,-0.14135457575321198,0.7761486172676086
1783696707768706300,7.661706298828125,0.1309121996164322,-0.5927579998970032,0.5710463523864746
1783696707778668300,7.671668212890625,0.19672782719135284,-0.9108033180236816,0.3371649384498596
1783696707788631300,7.68163134765625,0.2758309245109558,-1.0202267169952393,0.15143583714962006
1783696707798594300,7.69159423828125,0.40097731351852417,-0.9867658615112305,0.05460343509912491
1783696707808557300,7.701557373046875,0.5335255265235901,-0.8875090479850769,0.02748553268611431
1783696707818520300,7.711520263671875,0.5706262588500977,-0.752842128276825,-0.008408227004110813
1783696707828483300,7.7214833984375,0.48541393876075745,-0.480822890996933,-0.05397571250796318
1783696707838446300,7.7314462890625,0.32755663990974426,0.0024760677479207516,-0.037678591907024384
1783696707848409000,7.7414091796875,0.14691337943077087,0.4860222339630127,0.055040426552295685
1783696707858372000,7.7513720703125,-0.03813173621892929,0.7633082270622253,0.1807008981704712
1783696707868334300,7.761334228515625,-0.18126891553401947,0.8054298758506775,0.2695580720901489
1783696707878297300,7.77129736328125,-0.2544277310371399,0.5990446209907532,0.23918385803699493
1783696707888260400,7.78126025390625,-0.25222715735435486,0.21072004735469818,0.05002112686634064
1783696707898223400,7.791223388671875,-0.17754417657852173,-0.20129534602165222,-0.25647255778312683
1783696707908186400,7.801186279296875,-0.043814871460199356,-0.5079503655433655,-0.6095907092094421
1783696707918149400,7.8111494140625,0.1337740421295166,-0.66705322265625,-0.9599961638450623
1783696707928112400,7.8211123046875,0.2972188889980316,-0.7736353278160095,-1.3075158596038818
1783696707938075600,7.83107568359375,0.3473828434944153,-0.8936296105384827,-1.6784318685531616
1783696707948037400,7.841037353515625,0.2657332420349121,-0.8940338492393494,-2.01599383354187
1783696707958000400,7.85100048828125,0.09641975164413452,-0.7072563171386719,-2.2461371421813965
1783696707967963400,7.86096337890625,-0.10787799209356308,-0.35701465606689453,-2.337615489959717
1783696707977926400,7.870926513671875,-0.30828800797462463,0.10658175498247147,-2.278968095779419
1783696707987889400,7.880889404296875,-0.48069119453430176,0.5414000749588013,-2.119274139404297
1783696707997852700,7.890852783203125,-0.6069004535675049,0.7879887223243713,-1.929933786392212
1783696708007815400,7.9008154296875,-0.6958076357841492,0.7631219625473022,-1.7348899841308594
1783696708017778400,7.9107783203125,-0.7390096783638,0.5127034187316895,-1.5253523588180542
1783696708027740400,7.920740478515625,-0.7376919388771057,0.17119035124778748,-1.2870351076126099
1783696708037703400,7.930703369140625,-0.6837009787559509,-0.128672257065773,-1.0356266498565674
1783696708047666400,7.94066650390625,-0.6114451885223389,-0.3161841034889221,-0.7764328122138977
1783696708057629400,7.95062939453125,-0.5403919219970703,-0.37590834498405457,-0.5149890184402466
1783696708067592400,7.960592529296875,-0.49194395542144775,-0.35028234124183655,-0.2665020227432251
1783696708077555500,7.970555419921875,-0.4757018983364105,-0.28316161036491394,-0.03246444836258888
1783696708087518500,7.9805185546875,-0.4664415717124939,-0.18486808240413666,0.19665636122226715
1783696708097481500,7.9904814453125,-0.4552520215511322,-0.07380679994821548,0.41521239280700684
1783696708107443500,8.000443359375,-0.443982869386673,0.0129198357462883,0.6251395344734192
1783696708117406500,8.010406494140625,-0.4383244514465332,0.022729957476258278,0.8029673099517822
1783696708127369500,8.020369384765624,-0.40458351373672485,-0.06664519011974335,0.932089626789093
1783696708137332500,8.03033251953125,-0.34098705649375916,-0.18001514673233032,1.021032452583313
1783696708147295500,8.04029541015625,-0.2669469118118286,-0.3134373724460602,1.0538194179534912
1783696708157258500,8.050258544921874,-0.17668741941452026,-0.45748376846313477,1.0322771072387695
1783696708167221500,8.060221435546875,-0.09372276812791824,-0.5716838240623474,0.9627019762992859
1783696708177184300,8.070184326171875,-0.04104834049940109,-0.6244586706161499,0.879395604133606
1783696708187146500,8.080146484375,-0.005983563605695963,-0.5727148056030273,0.8350132703781128
1783696708197109500,8.090109619140625,0.047844886779785156,-0.4474484324455261,0.843580424785614
1783696708207072500,8.100072509765624,0.1261332929134369,-0.365495502948761,0.8736816048622131
1783696708217035500,8.110035400390625,0.19285497069358826,-0.424737811088562,0.8753678798675537
1783696708226998500,8.11999853515625,0.21029920876026154,-0.6240615844726562,0.8328102827072144
1783696708236961300,8.129961181640626,0.19962146878242493,-0.9200446605682373,0.7454016804695129
1783696708246924300,8.13992431640625,0.1997184157371521,-1.2063944339752197,0.6396627426147461
1783696708256887600,8.149887451171875,0.20919707417488098,-1.3457539081573486,0.5486889481544495
1783696708266850600,8.1598505859375,0.19206228852272034,-1.167883038520813,0.4794017970561981
1783696708276812500,8.1698125,0.14871324598789215,-0.6874451637268066,0.4094756841659546
1783696708286775300,8.179775390625,0.09923171252012253,-0.11423731595277786,0.25186687707901
1783696708296738300,8.18973828125,0.06624942272901535,0.37786734104156494,-0.0031668595038354397
1783696708306701300,8.199701416015625,0.044692736119031906,0.9124932289123535,-0.23589889705181122
1783696708316664600,8.20966455078125,0.013951984234154224,1.5276193618774414,-0.337859183549881
1783696708326627600,8.219627685546875,-0.03558068349957466,1.954444169998169,-0.30476221442222595
1783696708336590600,8.229590576171875,-0.10789910703897476,1.9675796031951904,-0.2502657473087311
1783696708346553600,8.2395537109375,-0.151283860206604,1.6142830848693848,-0.2629024386405945
1783696708356515300,8.249515380859375,-0.16861668229103088,1.044113278388977,-0.38080695271492004
1783696708366478300,8.259478271484374,-0.22734418511390686,0.3591615855693817,-0.626281201839447
1783696708376441600,8.269441650390625,-0.3132803738117218,-0.29297664761543274,-0.9605782628059387
1783696708386404600,8.279404541015625,-0.3427780866622925,-0.7444389462471008,-1.2487897872924805
1783696708396367600,8.28936767578125,-0.2700205147266388,-0.9499585032463074,-1.3763524293899536
1783696708406330400,8.299330322265625,-0.1749560683965683,-0.9734832644462585,-1.3588203191757202
1783696708416293400,8.30929345703125,-0.12206390500068665,-0.9135060906410217,-1.24863862991333
1783696708426256400,8.31925634765625,-0.11147251725196838,-0.8099152445793152,-1.0991778373718262
1783696708436218600,8.329218505859375,-0.13575538992881775,-0.674645721912384,-0.9430662989616394
1783696708446181600,8.339181640625,-0.18628568947315216,-0.5408689975738525,-0.803309977054596
1783696708456144600,8.34914453125,-0.23152825236320496,-0.4343535304069519,-0.6945932507514954
1783696708466107400,8.359107421875,-0.21194443106651306,-0.3317115902900696,-0.6135128140449524
1783696708476070400,8.3690703125,-0.11702021211385727,-0.2965359091758728,-0.5889033079147339
1783696708486033400,8.379033447265625,0.02649860270321369,-0.3528742790222168,-0.6543709635734558
1783696708495996400,8.388996337890624,0.20650286972522736,-0.4871055781841278,-0.8020776510238647
1783696708505959400,8.39895947265625,0.4069177210330963,-0.6172561645507812,-0.9834544062614441
1783696708515921400,8.40892138671875,0.5995928049087524,-0.6766624450683594,-1.1321560144424438
1783696708525884400,8.418884521484374,0.7440211176872253,-0.6353639960289001,-1.2140697240829468
1783696708535847400,8.428847412109375,0.8161728382110596,-0.522628664970398,-1.187925100326538
1783696708545810400,8.438810546875,0.8183062672615051,-0.36541157960891724,-1.0362588167190552
1783696708555773400,8.4487734375,0.7440838813781738,-0.1355525553226471,-0.7524592280387878
1783696708565736400,8.458736328125,0.5950456261634827,0.1410135179758072,-0.40358781814575195
1783696708575699500,8.468699462890624,0.4167519509792328,0.35761499404907227,-0.07458772510290146
1783696708585661400,8.478661376953125,0.2577593922615051,0.42165976762771606,0.18948280811309814
1783696708595624400,8.48862451171875,0.14241079986095428,0.356760710477829,0.3940563499927521
1783696708605587500,8.49858740234375,0.0503314808011055,0.22533345222473145,0.5460118055343628
1783696708615550500,8.508550537109375,-0.0062057762406766415,0.08237382024526596,0.6382365226745605
1783696708625513500,8.518513427734375,-0.007705135736614466,0.04230682551860809,0.6781482100486755
1783696708635476200,8.528476318359376,0.038681432604789734,0.13988126814365387,0.6863536834716797
1783696708645439500,8.538439453125,0.10449613630771637,0.32914599776268005,0.6698316931724548
1783696708655402500,8.548402587890624,0.1402510106563568,0.5441580414772034,0.6399694085121155
1783696708665364500,8.558364501953125,0.12437750399112701,0.7160930633544922,0.6142861843109131
1783696708675327500,8.568327392578125,0.07257944345474243,0.8134146332740784,0.6067960858345032
1783696708685290500,8.57829052734375,0.013923325575888157,0.8473899364471436,0.6229596138000488
1783696708695253200,8.588253173828125,-0.0350649394094944,0.8577972650527954,0.6710554957389832
1783696708705216500,8.598216552734375,-0.0727236345410347,0.8685689568519592,0.7355836033821106
1783696708715179500,8.608179443359376,-0.07838781923055649,0.8528550267219543,0.8032000660896301
1783696708725142500,8.618142578125,-0.047798749059438705,0.8069255948066711,0.8509414792060852
1783696708735105500,8.62810546875,0.034199606627225876,0.7383912205696106,0.8593834042549133
1783696708745067300,8.6380673828125,0.16517865657806396,0.6900771856307983,0.8089849948883057
1783696708755030300,8.6480302734375,0.2944025993347168,0.5833626985549927,0.665217399597168
1783696708764993500,8.65799365234375,0.3774082660675049,0.32628723978996277,0.4403834939002991
1783696708774956500,8.66795654296875,0.35400253534317017,-0.008230350911617279,0.1623384654521942
1783696708784919600,8.67791943359375,0.1956818848848343,-0.15898337960243225,-0.0832209661602974
1783696708794882600,8.687882568359376,-0.02783430553972721,-0.01491960883140564,-0.19609017670154572
1783696708804845600,8.697845458984375,-0.18572594225406647,0.33248603343963623,-0.1535768061876297
1783696708814808300,8.707808349609374,-0.25164535641670227,0.7120646238327026,-0.05057591199874878
1783696708824770600,8.7177705078125,-0.21213467419147491,0.9533272981643677,0.017800483852624893
1783696708834733600,8.727733642578125,-0.14663216471672058,0.9466266632080078,-0.035721555352211
1783696708844696600,8.737696533203126,-0.11773820221424103,0.6622756123542786,-0.22839753329753876
1783696708854659600,8.74765966796875,-0.11585278064012527,0.12880118191242218,-0.4925936162471771
1783696708864622300,8.757622314453124,-0.07528671622276306,-0.4891435503959656,-0.734289288520813
1783696708874585300,8.76758544921875,0.014016442932188511,-0.9726161956787109,-0.895272970199585
1783696708884548400,8.77754833984375,0.10209756344556808,-1.1710350513458252,-0.9822712540626526
1783696708894511400,8.787511474609374,0.17739973962306976,-1.1476048231124878,-1.029567003250122
1783696708904473900,8.797473876953125,0.23641085624694824,-1.0345828533172607,-1.067510724067688
1783696708914436900,8.807436767578125,0.27158793807029724,-0.899941086769104,-1.0961955785751343
1783696708924399900,8.81739990234375,0.2841743230819702,-0.7393380403518677,-1.0794093608856201
1783696708934363000,8.82736279296875,0.2903805673122406,-0.5904563665390015,-1.013871669769287
1783696708944325600,8.83732568359375,0.2900330126285553,-0.4926041066646576,-0.8978269696235657
1783696708954288600,8.84728857421875,0.28114932775497437,-0.4420870244503021,-0.7463124394416809
1783696708964251600,8.857251708984375,0.24740812182426453,-0.45947933197021484,-0.5754075646400452
1783696708974215000,8.86721484375,0.18446512520313263,-0.5580414533615112,-0.4048219621181488
1783696708984177000,8.877177001953125,0.11956576257944107,-0.7098389863967896,-0.24907229840755463
1783696708994140000,8.887139892578125,0.07058890908956528,-0.817505419254303,-0.11102799326181412
1783696709004102700,8.8971025390625,0.02492608316242695,-0.8057923316955566,0.006505293305963278
1783696709014065700,8.907065673828125,-0.007560499012470245,-0.6423166394233704,0.11708597093820572
1783696709024028700,8.917028564453124,-0.030201096087694168,-0.36207830905914307,0.23081760108470917
1783696709033992000,8.926991943359376,-0.04124068841338158,-0.029336262494325638,0.352219820022583
1783696709043955000,8.936954833984375,-0.04737367853522301,0.2669806182384491,0.4688108563423157
1783696709053916700,8.946916748046876,-0.045305754989385605,0.4791125953197479,0.5890935659408569
1783696709063879700,8.956879638671875,-0.048677317798137665,0.591881513595581,0.7036741971969604
1783696709073842700,8.9668427734375,-0.06622251123189926,0.5989253520965576,0.8142192363739014
1783696709083805700,8.9768056640625,-0.07739526778459549,0.5372734069824219,0.9183187484741211
1783696709093769000,8.98676904296875,-0.07436149567365646,0.4479147493839264,0.9947628974914551
1783696709103732000,8.99673193359375,-0.06497012078762054,0.3663303852081299,1.0157712697982788
1783696709113695000,9.006695068359376,-0.04975353926420212,0.3175525367259979,0.9836510419845581
1783696709123657700,9.01665771484375,-0.03430480882525444,0.29764407873153687,0.9239888191223145
1783696709133619700,9.02661962890625,-0.01387985609471798,0.3049268126487732,0.8474184274673462
1783696709143582700,9.036582763671875,0.009090707637369633,0.2940640449523926,0.7457227110862732
1783696709153546000,9.0465458984375,0.032325439155101776,0.20347371697425842,0.6261147260665894
1783696709163509000,9.056509033203126,0.05088340863585472,0.0021456610411405563,0.5036343336105347
1783696709173471700,9.0664716796875,0.04233899712562561,-0.2864218056201935,0.38003256916999817
1783696709183434800,9.076434814453124,-0.01656373217701912,-0.5534008145332336,0.2588297128677368
1783696709193397800,9.086397705078125,-0.10919097810983658,-0.6556547284126282,0.11150255054235458
1783696709203360800,9.09636083984375,-0.17323173582553864,-0.5043994188308716,-0.12456323951482773
1783696709213322800,9.10632275390625,-0.16623663902282715,-0.16517244279384613,-0.4784910976886749
1783696709223285800,9.11628564453125,-0.058231618255376816,0.25705868005752563,-0.9002082347869873
1783696709233248800,9.126248779296875,0.11142788082361221,0.6370721459388733,-1.2066922187805176
1783696709243211800,9.136211669921876,0.22334057092666626,0.9040260910987854,-1.2662956714630127
1783696709253174800,9.1461748046875,0.24823464453220367,1.1513522863388062,-1.0335842370986938
1783696709263137800,9.1561376953125,0.19130665063858032,1.40025794506073,-0.6159521341323853
1783696709273100800,9.166100830078125,0.0860176533460617,1.5451488494873047,-0.24628666043281555
1783696709283063800,9.176063720703125,0.0071073914878070354,1.4779008626937866,-0.050810642540454865
1783696709293025800,9.18602587890625,-0.029068518429994583,1.1067700386047363,-0.043045781552791595
1783696709302988800,9.19598876953125,-0.06486380100250244,0.37179502844810486,-0.18409451842308044
1783696709312951800,9.205951904296874,-0.12318476289510727,-0.6523545384407043,-0.4076194763183594
1783696709322914800,9.215914794921876,-0.18554694950580597,-1.6794648170471191,-0.654057502746582
1783696709332877800,9.2258779296875,-0.23901277780532837,-2.3288381099700928,-0.8320040106773376
1783696709342840800,9.2358408203125,-0.2761167585849762,-2.52675724029541,-0.9033152461051941
1783696709352803600,9.245803466796875,-0.26364022493362427,-2.3122565746307373,-0.8630678057670593
1783696709362766800,9.255766845703125,-0.15726716816425323,-1.7270265817642212,-0.7167702913284302
1783696709372728800,9.265728759765626,0.022212985903024673,-0.8952546119689941,-0.5081683993339539
1783696709382691800,9.27569189453125,0.22032393515110016,-0.027300067245960236,-0.30283311009407043
1783696709392654800,9.28565478515625,0.3704562187194824,0.6433781981468201,-0.1664084494113922
1783696709402617600,9.29561767578125,0.4365910291671753,1.0543067455291748,-0.11131004244089127
1783696709412580600,9.30558056640625,0.4323510527610779,1.2027292251586914,-0.12829908728599548
1783696709424411600,9.31741162109375,0.3849087059497833,1.0067129135131836,-0.23791933059692383
1783696709434375000,9.327375,0.3406789004802704,0.6447190046310425,-0.36621159315109253
1783696709444337000,9.3373369140625,0.2859112620353699,0.31681618094444275,-0.47813546657562256
1783696709454299600,9.347299560546874,0.21268104016780853,0.21204616129398346,-0.5279419422149658
1783696709464262700,9.3572626953125,0.13044530153274536,0.3330886960029602,-0.49499785900115967
1783696709474225700,9.3672255859375,0.04260234534740448,0.5677024722099304,-0.4013134837150574
1783696709484188700,9.377188720703124,-0.03669087588787079,0.7922700643539429,-0.2614072263240814
1783696709494152000,9.38715185546875,-0.07549647241830826,0.9334676861763,-0.09925738722085953
1783696709504115000,9.397114990234375,-0.06178625300526619,0.9866331815719604,0.07366166263818741
1783696709514078000,9.407077880859376,-0.03698601946234703,0.9665842652320862,0.25492122769355774
1783696709524039700,9.417039794921875,-0.03830801323056221,0.8558918237686157,0.4376673400402069
1783696709534002700,9.427002685546874,-0.06382358074188232,0.6825438737869263,0.6328326463699341
1783696709543965700,9.436965576171875,-0.08690013736486435,0.5390805006027222,0.8172962069511414
1783696709553929000,9.446928955078125,-0.09009094536304474,0.4695502817630768,0.9719222187995911
1783696709563892000,9.45689208984375,-0.07274391502141953,0.5166922211647034,1.0812000036239624
1783696709573854700,9.466854736328125,-0.03661995008587837,0.6625452041625977,1.1394387483596802
1783696709583817700,9.476817626953125,-0.007531308103352785,0.8470410108566284,1.1573847532272339
1783696709593779700,9.48677978515625,-0.008935242891311646,0.9893847107887268,1.1518043279647827
1783696709603742700,9.49674267578125,-0.020472323521971703,1.0134975910186768,1.1642413139343262
1783696709613706000,9.5067060546875,-0.035134803503751755,0.873672604560852,1.2013484239578247
1783696709623669000,9.5166689453125,-0.07552989572286606,0.5246227383613586,1.1820863485336304
1783696709633631700,9.5266318359375,-0.11337261646986008,0.04769425094127655,1.0541027784347534
1783696709643594800,9.5365947265625,-0.09890339523553848,-0.30012497305870056,0.8520975112915039
1783696709653557800,9.546557861328125,-0.019331861287355423,-0.39929795265197754,0.6585040092468262
1783696709663520800,9.556520751953125,0.08437003195285797,-0.32334116101264954,0.5199373364448547
1783696709673483000,9.56648291015625,0.19705994427204132,-0.19842788577079773,0.46155595779418945
1783696709683445800,9.57644580078125,0.30337679386138916,-0.027520058676600456,0.47367891669273376
1783696709693408800,9.58640869140625,0.37791574001312256,0.23305004835128784,0.501952052116394
1783696709703371800,9.596371826171875,0.41882961988449097,0.4991014301776886,0.49543023109436035
1783696709713334800,9.606334716796875,0.41171127557754517,0.6143680214881897,0.3883279860019684
1783696709723297800,9.6162978515625,0.3638177812099457,0.6414169669151306,0.22340907156467438
1783696709733260800,9.6262607421875,0.2879613935947418,0.7522066831588745,0.11377478390932083
1783696709743845600,9.636845703125,0.18633624911308289,0.9357613325119019,0.08881217241287231
1783696709753808600,9.64680859375,0.1086183488368988,1.0019433498382568,0.06562443822622299
1783696709763771600,9.656771728515626,0.1066388264298439,0.961426854133606,-0.019514692947268486
1783696709773735000,9.66673486328125,0.1591726839542389,0.9107106328010559,-0.1756388545036316
1783696709783698000,9.676697998046874,0.21042868494987488,0.8414260745048523,-0.4074350595474243
1783696709793661000,9.686660888671875,0.22420139610767365,0.7275347709655762,-0.7041150331497192
1783696709803622700,9.69662255859375,0.2223110795021057,0.5523933172225952,-1.0133512020111084
1783696709813585700,9.706585693359376,0.24753440916538239,0.34677448868751526,-1.2816667556762695
1783696709823548700,9.716548583984375,0.298016756772995,0.16114629805088043,-1.4948498010635376
1783696709833512000,9.726511962890624,0.32901889085769653,-0.0784178152680397,-1.6618218421936035
1783696709843475000,9.736474853515626,0.16931337118148804,-0.2223811149597168,-1.4934316873550415
1783696709853438000,9.74643798828125,-0.08750982582569122,-1.0971567630767822,-1.378674864768982
1783696709863400700,9.756400634765624,-0.15883009135723114,-1.863253116607666,-1.2450640201568604
1783696709873363700,9.76636376953125,-0.1368337869644165,-1.985040307044983,-0.9261549711227417
1783696709883325700,9.77632568359375,-0.10199058800935745,-1.7490978240966797,-0.5766276121139526
1783696709893289000,9.7862890625,-0.039498649537563324,-1.4442960023880005,-0.3306416869163513
1783696709903252500,9.79625244140625,0.05146854370832443,-1.1945713758468628,-0.2181393951177597
1783696709913215500,9.806215576171875,0.13161692023277283,-0.9701415300369263,-0.22610366344451904
1783696709923178200,9.81617822265625,0.15617206692695618,-0.7558209896087646,-0.22362425923347473
1783696709933141200,9.826141357421875,0.19555149972438812,-0.566293478012085,-0.2123403400182724
