time,seconds_elapsed,z,y,x
1783696677516594400,0.065594482421875,-4.880308866071701,-4.436359522418678,2.3167798361711203
1783696677526557400,0.075557373046875,-4.902365799579024,-3.1446438876226543,1.6551168391369282
1783696677536520400,0.0855205078125,-4.718067801326513,-1.8742802529349922,1.1255156032919884
1783696677546483500,0.0954833984375,-4.028459397268295,-0.8527864573925733,0.8812344071112572
1783696677556446500,0.105446533203125,-2.7729624923229217,-0.1223503683835268,0.6937490109942853
1783696677566409500,0.115409423828125,-1.3500304611206053,0.4450909149035811,0.3800634391978383
1783696677576372700,0.125372802734375,0.21745091079175471,0.7369397718146443,-0.15362871922254562
1783696677586335500,0.13533544921875,1.9579291347414254,0.7318783967718482,-0.9673330201573669
1783696677596298500,0.145298583984375,3.5213211915135383,0.5807622448921204,-1.9186311435759067
1783696677606261500,0.155261474609375,4.534880394664406,0.5283052046850323,-2.6469717216104267
1783696677616224500,0.165224609375,4.64986987889111,0.5705348653882741,-2.796322325122356
1783696677626187500,0.1751875,4.13980964820981,0.7823372488990425,-2.543276953858137
1783696677636150500,0.185150634765625,3.4555712467521427,1.2020926470160485,-2.2111391950480637
1783696677646113300,0.19511328125,2.8718232640475034,1.5411293715596197,-1.9072366199888289
1783696677656076500,0.20507666015625,2.5189842241227627,1.6728490413129329,-1.535207580295205
1783696677666039600,0.21503955078125,2.464165423220396,1.6042863772183655,-1.2927613444566726
1783696677676002600,0.22500244140625,2.752669061356783,1.4378458149567246,-1.4864894343554973
1783696677685965600,0.234965576171875,3.2276936344921587,1.374468444545567,-1.6402164993859827
1783696677695928600,0.244928466796875,3.8182074580699203,1.245199382814765,-1.468108559012413
1783696677705891600,0.2548916015625,4.462206203597784,1.1627227596580982,-1.2500880316391587
1783696677715854300,0.264854248046875,5.188213954770565,1.1973401917919515,-1.2049743399322033
1783696677725817300,0.2748173828125,5.613882668584585,1.2604770314455032,-1.189172009840235
1783696677735780400,0.2847802734375,5.859293014925718,1.4305012974128126,-1.2052839904032646
1783696677745743600,0.29474365234375,6.003129823452234,1.6239578768938778,-1.2976853568553923
1783696677755706600,0.30470654296875,6.12676906260252,1.7436711747720837,-1.3904479578353464
1783696677765669600,0.314669677734375,6.124863521242141,1.79834150711447,-1.2865163125872612
1783696677775632600,0.324632568359375,5.957069498544931,1.9622396914169191,-0.9151132958374917
1783696677785595400,0.334595458984375,5.537107471939921,2.270521212212741,-0.5157485054507851
1783696677795558400,0.344558349609375,4.974612705144286,2.598703073003888,-0.5640544173277914
1783696677805521400,0.354521484375,4.49434789326787,2.83018426271379,-0.9212791249908506
1783696677815484400,0.364484375,3.8160622627347704,2.568467801477015,-1.0132860852979122
1783696677825447700,0.37444775390625,2.8042613014280793,1.9856842798903582,-1.0722649284891783
1783696677835410700,0.38441064453125,1.812548603904247,1.5043313805162906,-1.2953700656503437
1783696677845373700,0.394373779296875,0.7577648254394531,0.8548466047927736,-1.466894214786589
1783696677855336400,0.40433642578125,-0.9160328949004412,-0.16393150205016135,-1.2278254925571381
1783696677865299500,0.414299560546875,-2.6314836450994012,-0.7869009035527705,-0.6862248990997671
1783696677875262200,0.42426220703125,-3.791620479917526,-1.16509737983495,-0.5440018824454397
1783696677885225200,0.43422509765625,-5.022504337131977,-1.5687731652885675,-0.6294087138351052
1783696677895188200,0.444188232421875,-6.622287557712197,-2.1576336687013504,-0.10520283422768116
1783696677905151500,0.4541513671875,-7.976482737296819,-3.0643577602475878,1.2435048538565634
1783696677915114200,0.4641142578125,-8.212057333800196,-4.317129624143242,2.8725261516198515
1783696677925077200,0.4740771484375,-7.450958395501971,-5.586549255979061,4.29646005334109
1783696677935040300,0.484040283203125,-6.7788499922990795,-6.8337880356669425,4.767554885812103
1783696677945003300,0.494003173828125,-6.765103206497431,-7.625519428116083,4.507696035140753
1783696677954966300,0.50396630859375,-6.557819469454884,-6.403519719102978,4.332378046679496
1783696677964929300,0.51392919921875,-6.782112208965421,-5.08090976434946,3.4191423812821506
1783696677974892300,0.523892333984375,-7.939953041800856,-4.506913068069517,1.9090175120562314
1783696677984855300,0.533855224609375,-8.392720774942635,-3.6320182392433282,0.5620686503380536
1783696677994818300,0.543818359375,-8.435968965038656,-1.642764576433599,-0.1696908692944795
1783696678004781300,0.55378125,-8.58292536689043,-0.10231295800507068,-0.3634514001581818
1783696678014744300,0.563744384765625,-8.014615776336193,0.6297036781936883,-0.017563202284649013
1783696678024707300,0.573707275390625,-6.255242882302403,0.6860337604418396,-0.14194235481573267
1783696678034670300,0.58367041015625,-3.6840012321978803,1.0381246123477816,-0.27165105007281526
1783696678044633000,0.593633056640625,-1.0873141751915216,1.3704317363753915,0.15837335646636783
1783696678054596000,0.60359619140625,0.7787970920741558,0.9219111392840742,-0.07271423994922079
1783696678064559000,0.61355908203125,2.4403537550002334,0.6356786609500646,-0.8488754944939165
1783696678074522400,0.6235224609375,3.845430980560183,0.5204223424807191,-1.5145700120665133
1783696678084485400,0.6334853515625,4.552501976072788,0.4895554950520396,-1.8587448301509022
1783696678094448400,0.643448486328125,4.239635465574264,0.6160998079940676,-1.7779582059077919
1783696678104411400,0.653411376953125,3.0555794105082748,0.7599716878339647,-1.4636612242147327
1783696678114374100,0.6633740234375,1.7726257588386534,1.1859183418065309,-1.2118784932974724
1783696678124337200,0.673337158203125,1.5482354041725397,1.8736831638246774,-1.0118801640227437
1783696678134300200,0.683300048828125,2.4693951405674217,2.5813535865351556,-0.8300683565627783
1783696678144263200,0.69326318359375,4.01800580779314,3.145845956888795,-0.49159737614318727
1783696678154226200,0.70322607421875,5.750208370828628,3.208116535101831,0.10245863181976601
1783696678164189400,0.713189453125,7.027277640634774,2.8033979625970122,0.8178233536262065
1783696678174152400,0.72315234375,7.7768217502176755,2.2521879754036664,1.03641408210285
1783696678184115200,0.733115234375,8.340503680971265,2.0747735991850496,0.06328494288735091
1783696678194078200,0.743078125,8.540484401524067,3.147596892209351,-1.7691392318971455
1783696678204041200,0.753041259765625,8.54202461670339,3.7517777143508195,-1.107103602158278
1783696678214004200,0.763004150390625,7.452743525353074,2.2109853196606037,0.598214461082965
1783696678223967200,0.77296728515625,6.089284258338808,0.6274260886505246,1.223992344135046
1783696678233930200,0.78293017578125,4.840768298321962,0.13483371012061834,0.2745145680114627
1783696678243893200,0.792893310546875,4.358967947441339,-0.13702186781466005,-0.43677550650089975
1783696678253856300,0.802856201171875,4.827074704012275,0.3024389322474599,-1.3059711007721722
1783696678263819300,0.8128193359375,5.568433169052004,1.341446464909613,-2.1153062467120587
1783696678273782300,0.8227822265625,5.322312044093012,2.1637118195712564,-2.3377729398392137
1783696678283745300,0.832745361328125,5.21168484672904,2.8185452628463503,-1.9341509303994475
1783696678293708300,0.842708251953125,6.265567292439937,3.495048686137795,-1.1501515935070812
1783696678303671300,0.85267138671875,5.023802560248971,3.1395126622140404,-0.3436824314575642
1783696678313634000,0.862634033203125,2.1020079353302714,1.5885148075908422,0.7068007272038609
1783696678323597300,0.872597412109375,1.9209043492048978,1.234529520240426,1.2848549552462993
1783696678333560300,0.882560302734375,-1.5488286938905715,-0.25091829610764976,1.6342685507670045
1783696678343523300,0.8925234375,-2.117095029824972,-1.5533271743535995,1.2712269735187292
1783696678353486300,0.902486328125,-2.1010288611650467,-2.6439941671043634,0.8504331722646952
1783696678363449300,0.912449462890625,-3.1157261284351345,-4.378900143879652,1.0265145463138818
1783696678373412400,0.922412353515625,-3.974314550104737,-5.9593690076589585,1.0621204049631952
1783696678383375000,0.932375,-4.116310114678741,-7.1542188439399,1.1754754198558628
1783696678393339100,0.942339111328125,-4.33791113088727,-8.120559199798107,1.531102775324881
1783696678403301000,0.952301025390625,-4.818708442205191,-8.265353455179929,1.528020737531036
1783696678413264400,0.962264404296875,-3.92563264452219,-7.786879033851623,2.044117471897602
1783696678423227400,0.972227294921875,-4.2239784622371195,-6.3487225455105305,2.6598803030222653
1783696678433190400,0.9821904296875,-6.264706876218319,-3.824920984233916,3.028279315650463
1783696678443153400,0.9921533203125,-8.587628430014847,-0.8712100028336047,3.3437294129014012
1783696678453116200,1.0021162109375,-10.197801527184247,1.023125488397479,2.9338308074101804
1783696678463079200,1.0120791015625,-10.30057801104784,1.3421587048321961,1.3901469290621578
1783696678473042200,1.022042236328125,-8.408187224143743,1.0542679378971458,-0.4568468191489577
1783696678483005200,1.032005126953125,-5.285459107992053,0.7210735096409916,-1.553247971637547
1783696678492968400,1.041968505859375,-2.01127903213501,0.4025701622992754,-2.0613193665891885
1783696678502931500,1.051931396484375,0.5683376476049423,0.4401183871880173,-2.153950596274435
1783696678512894200,1.061894287109375,1.54732062741518,0.5639692232623696,-1.9247025724440812
1783696678522857200,1.071857177734375,1.0468699366003273,0.8218021210640668,-1.7717032371662556
1783696678532820200,1.0818203125,-0.004635843107104301,1.3079580368056893,-1.753070286758244
1783696678542783200,1.091783203125,-0.6845645646721125,1.4233461649611592,-1.8532047316804527
1783696678552746200,1.101746337890625,-0.4803653496414423,1.2094780810922383,-2.027945066384226
1783696678562709200,1.111709228515625,0.5672562821090221,0.9237421541035175,-2.1493480709150434
1783696678572672300,1.12167236328125,2.1950287488549947,0.6190181796588003,-2.082779210986197
1783696678582635300,1.13163525390625,4.0572769109517335,0.35394393242672084,-1.8265005568891763
1783696678592598300,1.141598388671875,5.732297451084852,0.2060790374279022,-1.6112943562842905
1783696678602561300,1.151561279296875,7.004135834500193,0.022877017718553543,-1.5894856984496115
1783696678612524300,1.161524169921875,7.830163464304804,-0.19618176666125653,-1.3446275791637599
1783696678622487300,1.1714873046875,8.144204279279709,-0.1878171122893691,-0.5299812481384724
1783696678632450300,1.1814501953125,7.968765879309177,-0.06604308248907327,0.40905901286192237
1783696678642413300,1.191413330078125,7.394425776419043,0.06787059017717838,1.2822574860990046
1783696678652376000,1.2013759765625,6.859418736007809,0.2829842901930213,1.5585964930586516
1783696678662339300,1.21133935546875,6.639905047467351,0.6957691186450421,1.2045705814369023
1783696678672302300,1.22130224609375,6.679457305654883,0.8959458001613616,0.7122633034586906
1783696678682265300,1.231265380859375,7.018774600705504,0.8334855445951223,0.18871121158488094
1783696678692228400,1.241228271484375,7.0504638704329725,0.691562752996385,-0.1339318202442955
1783696678702191400,1.25119140625,6.41196372232139,0.8414435178622602,-0.2445607255081646
1783696678712154000,1.261154052734375,5.535196085360646,1.272059040428698,-0.1913586573537439
1783696678722117000,1.2711171875,4.591100879058241,1.6381722802072762,-0.14380094262869098
1783696678732080000,1.281080078125,3.5989497901171443,1.8264479499191044,-0.094382822592929
1783696678742043100,1.291043212890625,2.5207746146708727,2.0556907130524515,0.20776092610023913
1783696678752006400,1.30100634765625,1.0636959837168454,2.207866895379126,0.7981985426366329
1783696678761969400,1.310969482421875,-0.5585995129227638,1.9538374815136192,1.7233014636993407
1783696678771932400,1.320932373046875,-1.9502859265118837,0.9989876569628715,2.569483992782235
1783696678781895200,1.330895263671875,-3.410131099569797,-0.5809609823346138,3.084647099560499
1783696678791858200,1.340858154296875,-4.799280688157677,-2.128486776933074,3.1671076483651994
1783696678801821200,1.3508212890625,-5.5764615772068495,-3.316974969227612,2.3991294719472527
1783696678811784200,1.3607841796875,-6.92443159866631,-4.202059475895762,1.0323376264441757
1783696678821747200,1.370747314453125,-9.947155033755301,-5.8424903486847874,0.7799668665058911
1783696678831710500,1.38071044921875,-12.308247035992144,-6.917225612810253,1.069476612944901
1783696678841673500,1.390673583984375,-12.350166607832907,-6.838032833629846,1.0997902104049921
1783696678851636200,1.40063623046875,-12.380053212052584,-6.78392247325778,1.1446647595938295
1783696678861599200,1.41059912109375,-12.383056485521793,-6.781523595422506,1.1992501901317387
1783696678871562000,1.42056201171875,-12.34962417151928,-6.847697903075814,1.2445998094864188
1783696678881525000,1.43052490234375,-12.281667656624316,-6.980190310767292,1.2555170709505676
1783696678891488000,1.440488037109375,-12.191647778481244,-7.159070960146188,1.2112683985751123
1783696678901451000,1.450450927734375,-12.093759066659212,-7.362113990879059,1.1070498992096631
1783696678911414000,1.4604140625,-11.997466099596023,-7.576402053725719,0.9490078205242752
1783696678921377000,1.470376953125,-7.175732172089814,-1.2765996064677834,-0.713767205215618
1783696678931340000,1.480340087890625,-3.6243583721399304,-1.2641656568303703,0.1877482117716223
1783696678941303000,1.490302978515625,-0.8131804231911898,-1.258375382991135,1.0704387359753251
1783696678951266000,1.50026611328125,-0.24624036742448804,-1.011120577827096,1.6284339993946253
1783696678961229000,1.51022900390625,-1.223162323051691,0.21983108392655848,1.2386024687677621
1783696678971192000,1.520192138671875,-1.4406038814932107,1.3117711653530597,0.12100735627673566
1783696678981154800,1.53015478515625,-0.6787544170886278,1.562840414238721,-0.9314186070155351
1783696678991118000,1.5401181640625,0.2990729629456997,1.5652121118061244,-2.003978938254714
1783696679001081000,1.5500810546875,1.5152718767255544,1.6590389810167252,-2.826403575131297
1783696679011044000,1.560044189453125,2.7402017939716576,1.6610475443601607,-3.1185216043725608
1783696679021007000,1.570007080078125,3.9606332307547327,1.6746265723794698,-2.945145105367899
1783696679030970000,1.57997021484375,5.1916211328655475,1.8576921062275766,-2.5862241151809693
1783696679040932900,1.589932861328125,6.428151471534371,2.0216393903687595,-2.0547491944186387
1783696679050896000,1.599895751953125,7.59449125264585,2.0746914738595486,-1.3026425408713518
1783696679060859000,1.60985888671875,8.635159996518492,1.8432474012896418,-1.1638929724812508
1783696679070822000,1.61982177734375,9.411645889040827,2.3158397788420317,-1.2518892358422278
1783696679080785200,1.62978515625,9.683066874951123,2.2289546915933487,0.3119153837861493
1783696679090748200,1.639748046875,9.91411084228754,1.3959300425082444,1.444309896404296
1783696679100711200,1.649711181640625,10.237006579369305,1.171067101894319,1.5209275643996893
1783696679110674000,1.659673828125,10.294396107542514,1.5108496763691306,1.235655893921852
1783696679120637000,1.669636962890625,10.221379971170425,1.874996876771748,1.2351691333182155
1783696679130600000,1.679599853515625,10.145020369589329,2.014071000941098,1.2363169881790876
1783696679140563000,1.68956298828125,10.06982045943737,2.016960877163708,0.9023409810911863
1783696679150526000,1.69952587890625,10.0858410353899,2.0588892168328163,0.37500498676449057
1783696679160489000,1.709489013671875,9.971741193479298,2.289371166372299,-0.12740350532094016
1783696679170452200,1.7194521484375,9.502627305692434,2.6118144835114476,-0.5020604640990496
1783696679180415000,1.7294150390625,7.324293086528778,2.8159382952183485,-0.302124276807718
1783696679190378000,1.7393779296875,4.995806299820542,2.316789042390883,-0.110893136557471
1783696679200341000,1.749341064453125,4.087528841352462,3.0676053638666865,-0.856277733574435
1783696679210304000,1.759303955078125,3.177567375320196,3.392308442631364,-0.9343383669197559
1783696679220267000,1.76926708984375,2.232286758625507,3.095504593661427,-0.8476403997410088
1783696679230230000,1.77922998046875,0.554926961889863,2.6545351426020263,-0.46244880387447773
1783696679240193000,1.789193115234375,-1.2319067705214022,2.283332178469002,0.07741367721129208
1783696679250156000,1.799156005859375,-2.5665847642093897,1.4042650323942303,0.5867158195342869
1783696679260119000,1.809119140625,-3.212793587002158,-0.16531769571155308,0.9679188572213053
1783696679270082000,1.81908203125,-3.298044935569167,-1.6412147166430948,1.2371100382529199
1783696679280045000,1.829045166015625,-3.0308021121263504,-2.103396759340167,0.9055450378295034
1783696679290008000,1.839008056640625,-3.865637317764759,-2.89665258487761,-0.3244851251650601
1783696679299971000,1.84897119140625,-5.734354968136548,-4.410649034839868,-1.3596787255622447
1783696679309933800,1.858933837890625,-7.7191902299821376,-5.0924353669703,-2.323975592894107
1783696679319896800,1.868896728515625,-9.962336236274242,-5.5928048092424865,-2.813255339744687
1783696679329860000,1.878860107421875,-11.847919681251048,-6.214575940871239,-2.4774843389987944
1783696679339823000,1.888822998046875,-11.794839248448609,-6.32263182644248,-2.470196520078182
1783696679349786000,1.8987861328125,-11.732284884858132,-6.454994470274448,-2.452383800011873
1783696679359749000,1.9087490234375,-11.66572420823574,-6.6023723124086855,-2.4246117037281394
1783696679369712000,1.918712158203125,-11.599839238917827,-6.7557040945112705,-2.389818184375018
1783696679379675000,1.9286748046875,-11.538151136767864,-6.90647216360569,-2.3563009685680267
1783696679389638000,1.938637939453125,-11.480858639228343,-7.052060199713707,-2.3391584028482435
1783696679399601000,1.948600830078125,-9.223126473700999,-2.9121593660891056,-0.1983843182068318
1783696679409564000,1.95856396484375,-5.930553247541189,-2.967689237870276,-0.20218188385888933
1783696679419527200,1.968527099609375,-2.7683523681789635,-3.1359748434767125,-0.347994047578983
1783696679429490200,1.978490234375,-0.35431378865242,-3.284792655286193,-0.5577765791673213
1783696679439453200,1.988453125,0.9862737213402986,-3.374316274344921,-0.46318161166105415
1783696679449416000,1.998416015625,0.6070405954867601,-2.712548063370585,0.1657906287192367
1783696679459379000,2.00837890625,-0.04507131386995315,-1.0122055965848267,0.8785347927637398
1783696679469342000,2.018342041015625,-0.05437865591943264,0.30520678952559827,1.5723450324259698
1783696679479305000,2.028304931640625,0.6529273173928261,0.9882377148896455,1.996801155579835
1783696679489267200,2.03826708984375,1.8141496093600988,1.185040536058694,2.213269338944554
1783696679499230000,2.04822998046875,3.031259208244085,1.1086404563367367,2.2577565693162382
1783696679509193000,2.05819287109375,4.1070232308954,0.9830528595976531,2.0943337474405763
1783696679519156000,2.068156005859375,4.789180734425783,0.9316422597035765,1.817656010045856
1783696679529119000,2.078118896484375,5.09922458871901,1.1293205485329032,1.471466198877245
1783696679539082000,2.08808203125,4.833269466999173,1.4301955924645064,1.3233819620393217
1783696679549045000,2.098044921875,3.8524657015025614,1.744159542810917,1.359959880591184
1783696679559008000,2.108008056640625,2.7374790910094973,2.2709034895285964,1.3291203595608472
1783696679568971000,2.117970947265625,1.9094144024193285,2.8956396084427833,1.2321131067484616
1783696679578934000,2.12793408203125,1.9073983864217996,3.5406904933720824,1.1575981101207435
1783696679588897000,2.13789697265625,2.818318468353152,3.9876206064015625,1.0712960834570229
1783696679598860000,2.147860107421875,4.120968169617653,4.081766916824877,0.8174235406536609
1783696679608823000,2.157822998046875,5.780581297260523,4.079805261363089,0.24907917104698715
1783696679618786000,2.1677861328125,7.119929036325216,3.7472275037005542,-0.3622358868885785
1783696679628748800,2.177748779296875,8.025182178536056,3.041958296912908,-0.9801562613733112
1783696679638711800,2.1877119140625,8.710824017050863,2.2087240967303514,-1.6204359863780438
1783696679648675000,2.197675048828125,9.106414987987279,1.1994777883425354,-2.2332488816559315
1783696679658638000,2.20763818359375,9.00003492667377,0.24324761534929273,-2.7113042007893324
1783696679668601000,2.21760107421875,8.272180086329579,-0.05943535478711128,-2.8649001867860555
1783696679678564000,2.227564208984375,6.811417213904857,0.2757552157223224,-2.557778649680316
1783696679688527000,2.237527099609375,4.8759962635695935,0.7445125451564788,-1.9377581611111758
1783696679698489900,2.24748974609375,2.882581973949075,0.9225783710211515,-1.274155135925114
1783696679708452900,2.257452880859375,1.1020254221111536,0.45176644714474673,-0.9623806584469974
1783696679718416000,2.267415771484375,-0.35536592805385586,-0.7545172218203544,-1.1008668997257947
1783696679728379100,2.277379150390625,-1.5765911455631254,-2.736611076003313,-1.2756355837412179
1783696679738342100,2.287342041015625,-3.5169115583777426,-4.187772591868042,-1.109007243822515
1783696679748305200,2.29730517578125,-5.776810546550155,-4.722623564934731,-0.3006974954076111
1783696679758268200,2.30726806640625,-7.469263867521286,-4.620189026376605,0.2299833523675799
1783696679768231000,2.31723095703125,-9.542177810314296,-4.96341501930356,0.2929441048018634
1783696679778194000,2.32719384765625,-11.795490405833721,-6.150638598489761,0.7586629433229565
1783696679788157000,2.337156982421875,-12.545809591442346,-6.63031947299838,1.866871876374632
1783696679798120000,2.347119873046875,-12.63796881970167,-6.496720565369725,1.8950489001974462
1783696679808083000,2.3570830078125,-11.226544855463505,-4.876283848339319,3.7532787665635343
1783696679818046200,2.367046142578125,-8.490262280762195,-4.0194817255645985,3.4531709076121446
1783696679828009200,2.37700927734375,-6.757258922737837,-4.314346130904555,2.667896143956482
1783696679837972000,2.386971923828125,-6.84475951153636,-4.875160397267341,1.6686492515355347
1783696679847935000,2.39693505859375,-7.560086878740787,-4.501049436733126,0.7356598150067031
1783696679857898000,2.40689794921875,-7.778926029020547,-3.6796097192406654,0.13981003722846508
1783696679867861000,2.416861083984375,-6.941744552516937,-2.9288188244670628,-0.5372086421087384
1783696679877824000,2.426823974609375,-5.140706353664398,-2.5043331829577684,-0.9912580856241285
1783696679887787000,2.436787109375,-2.7638743459820745,-2.155392904037237,-0.9399173360958695
1783696679897750000,2.44675,-0.37562194961905476,-1.6436550955325364,-0.4960033560171723
1783696679907713300,2.45671337890625,1.736130550134182,-0.9418956504315137,-0.07877972313379869
1783696679917676300,2.46667626953125,3.6407331683576105,-0.07578618560731411,0.07996127933487296
1783696679927639300,2.476639404296875,5.21865936191678,0.7748024694800376,-0.052617007408617064
1783696679937602300,2.486602294921875,6.4181713447898625,1.3031219949513673,-0.7337521547544748
1783696679947565000,2.49656494140625,7.25073392932117,1.8509832562386987,-1.4144902199409901
1783696679957528000,2.506528076171875,7.6578633623600005,2.4588679013341666,-1.8849977540433405
1783696679967491000,2.516490966796875,7.769269727402925,3.0423242076158523,-2.2047847114548085
1783696679977454000,2.5264541015625,7.632917721673846,3.584826572218537,-2.394808978399634
1783696679987417300,2.536417236328125,7.314671271702647,4.195242781618237,-2.4230723653316497
1783696679997380400,2.54638037109375,6.932683878704905,4.882312607109546,-2.3604253550216554
1783696680007343400,2.55634326171875,6.457666319832206,5.256623474130034,-1.8823276580512522
1783696680017306000,2.56630615234375,5.901075224122405,5.30211798184812,-1.1291025949332862
1783696680027269000,2.57626904296875,5.570832046887278,5.441003305447102,-0.5057936592780053
1783696680037232000,2.586232177734375,5.433106414717436,5.631298498287797,-0.11816128266323357
1783696680047194400,2.5961943359375,5.353824203687906,5.562412593588233,0.13156272562593221
1783696680057157400,2.606157470703125,5.307703673025966,5.337697244751453,0.2837762442883104
1783696680067120000,2.6161201171875,5.311435260769724,5.199502826026082,0.3385514983098954
1783696680077083100,2.626083251953125,5.4614522192358965,5.239951740792393,0.26246815638691184
1783696680087046100,2.636046142578125,5.755400094252824,5.300037668442726,0.1796823211506009
1783696680097009200,2.646009033203125,6.001037235087156,5.297614825209975,0.10523045288696885
1783696680106972200,2.65597216796875,6.195405376455187,5.11427544285655,-0.1813269465524703
1783696680116935200,2.66593505859375,6.3181514661580325,4.764882743993401,-0.5471505557347088
1783696680126898200,2.675898193359375,6.270337575581669,4.169065553310514,-0.8139788800925016
1783696680136861200,2.685861083984375,6.40362844017446,3.2776462906628847,-0.8412498949863016
1783696680146824200,2.69582421875,6.6245555026441805,2.367490763363242,-0.7041103190761059
1783696680156787200,2.705787109375,6.519309998318553,1.7848095331072806,-0.5347513851497322
1783696680166750200,2.715750244140625,6.274335120785236,1.4270587557435035,-0.4230458910297602
1783696680176713200,2.725713134765625,5.75003710591495,0.7003928329229354,-0.17325594136491418
1783696680186676200,2.73567626953125,4.1669595209419725,-0.6582225011914968,0.3163696232486516
1783696680196639000,2.745638916015625,1.5530401741057633,-2.051691122022271,0.7006304410710931
1783696680206602000,2.75560205078125,-1.809160130509734,-3.1030215451627967,0.44623756418805566
1783696680216565200,2.765565185546875,-5.137874345108866,-3.956673679473996,0.03364621248152107
1783696680226528300,2.7755283203125,-7.008408689513802,-3.9515573593735693,-0.748849916773662
1783696680236491300,2.7854912109375,-9.23992738637626,-4.12973833605051,-2.001675337487459
1783696680246454300,2.795454345703125,-12.186810275322198,-5.357501430895924,-2.6081796341404315
1783696680256417300,2.805417236328125,-13.606781118631362,-6.914183176374435,-1.8897246364347635
1783696680266380000,2.815380126953125,-13.64919636503458,-6.860791193404793,-1.9600946422122418
1783696680276343000,2.825343017578125,-9.516608484771847,-7.551568641242384,1.206020195723325
1783696680286306000,2.83530615234375,-6.427734122905135,-7.955676096111535,2.8195433339729905
1783696680296269000,2.84526904296875,-4.077901765829324,-8.714472018164395,3.1524118912756443
1783696680306232300,2.855232421875,-2.7260446738034485,-9.299788273099065,2.6455732529893514
1783696680316195300,2.8651953125,-2.690541398745775,-9.600824060550332,2.020560655221343
1783696680326158300,2.875158447265625,-3.4258605836212634,-9.060264646708966,1.407208684630692
1783696680336121000,2.88512109375,-4.248392772525548,-7.392825940006971,0.565822486446239
1783696680346084000,2.895083984375,-4.922168816679716,-5.125567821243405,-0.6450866868950427
1783696680356047000,2.905047119140625,-5.517755705738067,-2.948527733543515,-1.8196617969103157
1783696680366010000,2.915010009765625,-5.85701454859972,-1.0423527514368296,-2.2967181681342423
1783696680375973000,2.92497314453125,-5.599711519891024,0.5893205221399664,-2.0069424642354248
1783696680385936400,2.934936279296875,-4.752115616878867,1.8555322978451847,-1.371808139295131
1783696680395899400,2.9448994140625,-3.2448966982275245,2.667497792288661,-0.7336543934684246
1783696680405862100,2.954862060546875,-1.230861060860753,3.2271275250419973,-0.17424192019496113
1783696680415825200,2.9648251953125,0.8390390870690345,3.4559333580628033,0.17695435749143362
1783696680425788200,2.9747880859375,2.6802538134872913,3.6890474096715447,0.21272806525463236
1783696680435751200,2.984751220703125,3.989757033908367,4.095618039783835,0.1525144561040215
1783696680445714200,2.994714111328125,4.959537301087379,4.503483678142726,0.07490920184338465
1783696680455677200,3.00467724609375,5.781396120774746,4.7792318796023725,0.13086800309373064
1783696680465640200,3.01464013671875,6.30261896598339,4.8869706620484585,0.3641556759700179
1783696680475603200,3.024603271484375,6.656990037781,4.789100362665951,0.6582667787246406
1783696680485565200,3.034565185546875,6.895108473548293,4.452975726176798,0.9211370131064206
1783696680495528200,3.044528076171875,7.200011457821726,4.005196595102548,1.0364567522007972
1783696680505491200,3.0544912109375,7.54741795130372,3.54589858340919,0.9773290751233696
1783696680515454200,3.0644541015625,7.839901014465093,2.9855288459435103,0.8727066711321473
1783696680525417200,3.074417236328125,7.919123604261875,2.493107732327282,0.7421602098766714
1783696680535380200,3.084380126953125,7.6607848027646535,2.133644890348613,0.5016850549153983
1783696680545343200,3.09434326171875,7.289287824121117,1.859435150502622,0.08639752292744815
1783696680555306200,3.10430615234375,6.958685750445723,1.6986396083906292,-0.3591881166905164
1783696680565269200,3.114269287109375,6.700838531857729,1.6500567792683838,-0.700934027127549
1783696680575232300,3.124232177734375,6.51944502287507,1.782988747420907,-0.808169463161379
1783696680585195000,3.134195068359375,6.498056197887658,2.0453417529955504,-0.6941178443066776
1783696680595158000,3.144157958984375,6.632054918488859,2.234303359144926,-0.4065567477174103
1783696680605121000,3.15412109375,6.6309390662014485,2.228742217886448,-0.04576368004828691
1783696680615084300,3.164084228515625,5.950819790500402,2.09223823646605,0.16100377803519367
1783696680625047300,3.17404736328125,4.2899394194006915,2.0862094776958227,-0.09938019248880445
1783696680635010300,3.18401025390625,1.5050836601883173,1.9846110977008937,-0.5991124328359961
1783696680644973300,3.193973388671875,-1.4837965420097112,1.8840502440601585,-1.3658534686744213
1783696680654936000,3.20393603515625,-3.7603152410715817,1.7890961243852972,-2.1311288158744572
1783696680664899000,3.213899169921875,-5.039606863102317,1.6201219519928096,-2.608452605862915
1783696680674862000,3.223862060546875,-5.869115320760011,0.9949506565317511,-2.4163980021342635
1783696680684825000,3.2338251953125,-6.225547416740656,-0.3400955859467387,-1.5619107321731744
1783696680694788000,3.2437880859375,-5.853681604784727,-2.332697097879648,-0.2999648702841252
1783696680704751400,3.25375146484375,-5.250305377024412,-4.6217824330478905,0.7462318432297557
1783696680714714400,3.26371435546875,-5.36817713868916,-6.8412821908146135,1.569777373895049
1783696680724677000,3.273677001953125,-5.910405362525582,-9.067755879247189,2.4333771939858795
1783696680734640000,3.28364013671875,-6.77763535581231,-11.025918238222598,2.793912925893068
1783696680744603100,3.29360302734375,-7.575851434105634,-12.516575313651561,2.9254020017609
1783696680754566100,3.303566162109375,-7.211273441070317,-13.200970951497554,2.777230378900468
1783696680764529200,3.313529052734375,-7.2568304926306,-13.142638004994392,2.776094652868807
1783696680774492200,3.3234921875,-4.862009823793173,-12.640014646315574,1.604002007319033
1783696680784455200,3.333455078125,-5.289779893800616,-11.665071881806849,0.6403560051113367
1783696680794418200,3.343418212890625,-6.745816322225332,-9.540098665952682,0.569470852885954
1783696680804381200,3.353381103515625,-8.835454605326056,-7.113956391656398,1.1199578230343759
1783696680814344200,3.36334423828125,-10.475663359797,-4.805109540441632,1.7316686022892593
1783696680824307200,3.37330712890625,-10.019578464931248,-2.8928450092881914,2.1446850475400683
1783696680834270200,3.383270263671875,-7.799770079606771,-1.61474055121541,2.4901868764445183
1783696680844233200,3.393233154296875,-4.650825572180747,-0.6903349647670984,2.6339076573759317
1783696680854196000,3.403196044921875,-1.3689350680768488,0.07545183908641338,2.394281155133247
1783696680864159200,3.4131591796875,1.641499963325262,0.7369692901700735,1.9220975045122206
1783696680874122200,3.423122314453125,4.048899543228745,1.3787433453857898,1.2555946662314235
1783696680884085200,3.433085205078125,5.515225894999504,2.0801064846456048,0.5353253856454044
1783696680894047000,3.443046875,6.069069737827777,2.7451924418658016,-0.2570482319637202
1783696680904010000,3.453010009765625,6.125327631622553,3.2874393704026934,-0.9870704977411776
1783696680913973000,3.462972900390625,5.911838610199093,3.75261650326252,-1.579756623856723
1783696680923936300,3.472936279296875,5.530718063163757,4.179960456812381,-1.9469762174420058
1783696680933899300,3.482899169921875,5.019973941871523,4.451517636322975,-2.0733520419493314
1783696680943862300,3.4928623046875,4.357664463627338,4.584626422347128,-2.0891490382790563
1783696680953825300,3.5028251953125,3.755894502019882,4.628287577158212,-1.9990015882335601
1783696680963788000,3.5127880859375,3.50440220541656,4.6076887335047125,-1.8528484655886888
1783696680973751000,3.5227509765625,3.519448967900872,4.504124314133823,-1.7102973129585384
1783696680983714000,3.532714111328125,3.716207219275832,4.274060882267356,-1.6615046404778957
1783696680993677000,3.542677001953125,4.187552811637521,3.954553034058213,-1.7147504929751156
1783696681003640000,3.55264013671875,4.833981999182701,3.73483271702975,-1.7517359694145618
1783696681013603300,3.562603271484375,5.460091452276706,3.5962805709078904,-1.7695111339494585
1783696681023566300,3.57256640625,5.98336830740571,3.5342452627554533,-1.7261325954720377
1783696681033529000,3.582529052734375,6.328517961871624,3.535724395397305,-1.648478862427175
1783696681043492000,3.5924921875,6.587595599037408,3.606419395345449,-1.5600933074876666
1783696681053455000,3.602455078125,6.685699999436736,3.651412675543129,-1.4137709657557307
1783696681063418000,3.612418212890625,6.770446905612945,3.75566566170007,-1.2533287671260536
1783696681073381000,3.622381103515625,6.7005304888218635,3.952479150393605,-1.0717900775190443
1783696681083344100,3.63234423828125,6.416735759028792,4.130456713452935,-0.7702673833336681
1783696681093307100,3.64230712890625,5.911958437186479,4.183149608242512,-0.40841742702275513
1783696681103270100,3.652270263671875,5.542252433612942,4.274911946138739,-0.20004589474350212
1783696681113233200,3.662233154296875,5.316410126572847,4.26082964477241,-0.2589054224040359
1783696681123196200,3.672196044921875,4.827741643488407,3.8248499648243186,-0.47027920523919164
1783696681133159200,3.6821591796875,3.7494478100985287,3.025584085217118,-0.6143983378384262
1783696681143122200,3.6921220703125,2.2944541687250135,2.2671640107393265,-0.6920620808206498
1783696681153085200,3.702085205078125,0.4397311414361,1.3237825056642294,-0.6973533921618014
1783696681163048000,3.7120478515625,-1.4988444735378026,-0.09746025727689266,-0.7656533867321909
1783696681173011000,3.722010986328125,-3.1800118458628654,-1.8335031291276216,-0.8653091812919825
1783696681182974200,3.73197412109375,-5.1668999485850335,-3.4878187348842618,-1.5321223276309668
1783696681192937200,3.741937255859375,-7.432040929064154,-4.508574571540952,-2.399490998736024
1783696681202900200,3.751900146484375,-9.537035771250725,-5.1139790902584785,-2.176490052601695
1783696681212863200,3.76186328125,-11.206715534877777,-5.3954339789271355,-1.116230180813372
1783696681222826200,3.771826171875,-12.30825405025482,-5.267752186387777,-0.05491095443153753
1783696681232789000,3.7817890625,-12.333366279679536,-5.23869034255445,0.06026117461938411
1783696681242752000,3.791751953125,-12.33953298561573,-5.236805843982101,0.15525712414197623
1783696681252715000,3.801715087890625,-12.320346639108656,-5.270213608065247,0.23273776564225554
1783696681262677200,3.81167724609375,-12.274452318418025,-5.341023758825659,0.292788695044443
1783696681272640300,3.82164013671875,-12.209182266128062,-5.439985652837157,0.33511794366464015
1783696681282603000,3.83160302734375,-12.13833587501049,-5.5484372597277165,0.36256153864637014
1783696681292566000,3.84156591796875,-12.074527127444743,-5.647975492322445,0.37970819601938127
1783696681302529000,3.851529052734375,-9.160267574205994,-4.652675583961606,-0.22623145248815416
1783696681312492000,3.861491943359375,-6.440044153901934,-4.2695033650934695,0.1323720692474395
1783696681322455000,3.871455078125,-3.350288917547464,-3.796547999447584,0.2167115636665374
1783696681332418300,3.881418212890625,-0.586426846525073,-3.3900323143929243,0.18678316613174975
1783696681342381300,3.89138134765625,1.5797598387271166,-2.904119852018356,0.10265987174659967
1783696681352344000,3.901343994140625,3.1121739889115094,-2.2752964637905357,-0.10456219823658466
1783696681362307000,3.91130712890625,4.062499029514194,-1.6044649486556648,-0.3014632921483367
1783696681372270000,3.92127001953125,4.5651229727149,-0.8812833608195185,-0.3783846923306584
1783696681382233000,3.931233154296875,4.893301618635654,-0.004926350486278533,-0.4102927193753421
1783696681392196000,3.941196044921875,5.154423913371563,0.9123416391670703,-0.3205928669668734
1783696681402159000,3.9511591796875,5.181007384392619,1.6521914532095192,-0.10410985135920345
1783696681412122400,3.961122314453125,4.98137386984229,2.168328373456001,0.1040865435488522
1783696681422085000,3.971085205078125,4.737551669475436,2.510296183015406,0.18507391452845184
1783696681432048000,3.981048095703125,4.787592003929615,2.863985410028696,0.11309415373308583
1783696681442011100,3.99101123046875,5.070505859234928,3.284745601274073,0.005719400560110807
1783696681451974100,4.00097412109375,5.4326218460708855,3.5521871621593832,0.05853263379372656
1783696681461937200,4.010937255859375,5.942570433071255,3.5831565931797025,0.11249109153971075
1783696681471900200,4.020900146484375,6.643324500522017,3.456141447855532,0.04047996749170124
1783696681481863000,4.03086279296875,7.295027829077839,3.168832864722609,-0.2048657161153853
1783696681491826200,4.040826171875,7.85585203231275,2.7895649598166345,-0.6635150546416639
1783696681501789200,4.0507890625,8.19828541355729,2.602266902965307,-1.097006571035832
1783696681511752200,4.060752197265625,8.213921958628296,2.540418349556625,-1.466400001528859
1783696681521715200,4.070715087890625,7.763072041806578,2.5024691426515577,-1.793575461756438
1783696681531678200,4.08067822265625,7.003527347213029,2.51813140668571,-2.0919610269598663
1783696681541641200,4.09064111328125,5.979663023146987,2.6202900509119034,-2.377811081847548
1783696681551604000,4.10060400390625,5.118163682466745,2.7866511181965468,-2.561408822876215
1783696681561567000,4.11056689453125,4.594943525961042,3.1241523037359116,-2.517740946063399
1783696681571530000,4.120530029296875,4.567929846829176,3.4152608636736868,-2.1157994370564817
1783696681581493200,4.1304931640625,5.042086989480257,3.3280537048637866,-1.6793408875502644
1783696681591456300,4.140456298828125,5.207341849088668,2.9594612154901028,-1.377997203193605
1783696681601419300,4.150419189453125,4.623150214269757,2.4756679372265933,-1.1181789767935872
1783696681611382300,4.16038232421875,3.516381397023797,1.5844254924505947,-0.9424971234560012
1783696681621344000,4.170343994140625,2.284359475690126,0.38357904610335825,-0.6691290951311588
1783696681631307000,4.18030712890625,1.2157517545342444,-0.768617643365264,-0.12321809112876653
1783696681641270300,4.190270263671875,0.3611404198020696,-1.7997499126076697,0.5695115136899054
1783696681651233300,4.2002333984375,-0.5262205073654651,-2.722858444982767,1.3399585644394159
1783696681661196300,4.2101962890625,-2.3838240585267543,-3.682144206154346,1.806765344327688
1783696681671159000,4.220158935546875,-4.922295073407888,-4.821178047189116,1.8901602513730524
1783696681681122000,4.2301220703125,-6.580522299650311,-6.274871127358079,2.375357551215589
1783696681691085000,4.2400849609375,-6.412332555633783,-7.450559167051315,2.940069994060695
1783696681701048000,4.250048095703125,-5.602061882409453,-8.159728596147895,2.949342849318683
1783696681711011000,4.260010986328125,-5.556681356459856,-8.66284119964838,2.671665725623071
1783696681720974000,4.26997412109375,-6.699727355745434,-8.35093622765839,2.1976744410581888
1783696681730937300,4.279937255859375,-8.574135911235214,-7.091243040066957,1.2812700824968517
1783696681740900000,4.289900146484375,-10.700631806612014,-5.324305848258733,0.3654951078802347
1783696681750863000,4.299863037109375,-12.691829004704951,-3.329814869317412,-0.11587445036768912
1783696681760826000,4.309826171875,-12.54399055932164,-3.5528579010277985,-0.08485255850777029
1783696681770789000,4.3197890625,-12.422958287799357,-3.7536739033609625,-0.08735928063169121
1783696681780752100,4.329752197265625,-12.33050329146385,-3.921269773137569,-0.11257862369269132
1783696681790715100,4.339715087890625,-8.618999135312437,-0.30388270131498574,1.1972310323290527
1783696681800678100,4.34967822265625,-5.115635625293851,-0.6950201999738812,1.5014172466352582
1783696681810641200,4.35964111328125,-1.854701984500885,-1.0661796172261238,1.7312476003982125
1783696681820604200,4.369604248046875,0.9079092096775769,-1.4593661573693155,1.9375598620600998
1783696681830567200,4.379567138671875,3.182627581319213,-1.7228884989842772,1.5040604546204208
1783696681840530200,4.3895302734375,4.87700982452631,-1.7332260608643293,0.6981204310115426
1783696681850493200,4.3994931640625,6.133021108734607,-1.3627499497011304,-0.10187843904532491
1783696681860456200,4.409456298828125,6.8626756919771426,-0.7443012404933571,-0.8054588159631937
1783696681870419000,4.4194189453125,6.9495309686094515,-0.06433218691796064,-1.144109390733391
1783696681880382500,4.429382568359375,6.697859808307886,0.7447945769682526,-1.2900769276782869
1783696681890345500,4.439345458984375,6.255855461242795,1.3740388209566474,-1.3864084731861948
1783696681900308700,4.449308837890625,5.614845960658788,1.6526108476653694,-1.3216089610174298
1783696681910271500,4.459271484375,5.0906742025166745,1.75029848395735,-1.1482480249080806
1783696681920234500,4.469234375,4.700950662308931,1.848138972723484,-0.9997042077343911
1783696681930197500,4.479197509765625,4.564924819794297,1.9076991229340432,-0.9170287740699946
1783696681940160500,4.489160400390625,4.65952968764007,1.7802701361119746,-0.8531718034483492
1783696681950123500,4.49912353515625,4.552256476879119,1.5790888075977563,-0.8529721892230212
1783696681960086500,4.50908642578125,4.438261848908662,1.3808587301045656,-0.9231684458687901
1783696681970049500,4.519049560546875,4.564709131217002,1.2939575685039162,-0.856035083924979
1783696681980012500,4.529012451171875,4.762328967857361,1.2345131536275147,-0.6480147031709551
1783696681989975600,4.5389755859375,5.0393461663395165,1.2030930562302469,-0.5268240262165665
1783696681999938600,4.5489384765625,5.382731733742356,1.2034329557090997,-0.3008466946199536
1783696682009901600,4.558901611328125,5.804288336062431,1.2136270174652337,-0.06416998209357261
1783696682019864600,4.568864501953125,6.069952365881204,1.146456392250955,0.2161303297124803
1783696682029827600,4.57882763671875,5.915930847948789,1.0240919953420757,0.38984935854449865
1783696682039790600,4.58879052734375,5.313005871087312,0.9668632106885313,0.3555146888747811
1783696682049753300,4.59875341796875,4.488064282953739,0.9066191698670387,-0.0006591945610940456
1783696682059716400,4.60871630859375,3.2032617885470387,0.7187935820102691,-0.5694567147627473
1783696682069679600,4.6186796875,1.8424463140398264,0.605360387314856,-1.4951131780549882
1783696682079642600,4.628642578125,0.5633756412833929,0.23159897087067363,-2.0975880730614067
1783696682089605600,4.638605712890625,-0.7962596835285425,-0.5983677519485354,-1.8128297589331863
1783696682099567400,4.6485673828125,-2.418115619707107,-1.4670710326582193,-0.9597307284601032
1783696682109530400,4.6585302734375,-4.191792933425307,-2.103626184181869,0.0749814450956881
1783696682119493400,4.668493408203125,-5.889318735355139,-2.7328669210389256,0.6504748827394098
1783696682129456600,4.67845654296875,-7.3057690033227205,-3.532667930436134,0.7100145746838301
1783696682139419600,4.688419677734375,-8.41735077380836,-4.175985415701568,0.46061106705330307
1783696682149382700,4.698382568359375,-9.666092359274625,-5.0887932110756635,0.22724311374872921
1783696682159345700,4.708345703125,-11.291017619895934,-6.176361068767309,0.268744606307894
1783696682169308400,4.718308349609375,-11.340313857984542,-6.108948743751645,0.18249182561337945
1783696682179271400,4.728271484375,-11.393978812676668,-6.033221594855189,0.10781900807544588
1783696682189234400,4.738234375,-11.443977646076679,-5.9549897696614265,0.0719745183646679
1783696682199197400,4.748197509765625,-8.965347644174098,-5.672461114281416,2.3002758606158196
1783696682209160400,4.758160400390625,-7.52294928047955,-4.79447445691973,2.1021433982782063
1783696682219123700,4.768123779296875,-6.890989932313561,-3.729074007372558,1.8080770114481448
1783696682229086500,4.77808642578125,-6.598544863075017,-2.9638565278396007,1.6941403972752391
1783696682239049500,4.788049560546875,-5.806652142584324,-2.516463765734434,1.6768638299122451
1783696682249012500,4.798012451171875,-4.714675820800662,-2.215160559518635,1.3950526751518249
1783696682258975500,4.8079755859375,-3.7242017251610755,-1.6875576578840612,0.8524934657953679
1783696682268938500,4.8179384765625,-3.195022367990017,-1.0521633668333292,0.47022937474809584
1783696682278901500,4.827901611328125,-3.068462857478857,-0.2556856566399336,0.3661105363648385
1783696682288864500,4.837864501953125,-2.6735300581902264,0.8104913302376866,0.3323227599881589
1783696682298827500,4.84782763671875,-1.6036474947929382,1.7597946265771984,0.2638818956423551
1783696682308790500,4.85779052734375,0.06208966868817806,2.483018592250347,0.14693492067232727
1783696682318753500,4.86775341796875,1.9039374323129652,3.037099166443944,-0.2011185654763132
1783696682328716500,4.877716552734375,3.7677082739323375,3.5577442117646334,-0.8143624725826084
1783696682338679600,4.887679443359375,5.280751368692517,3.772704182523489,-1.3713283929541706
1783696682348642600,4.897642578125,6.248856396135688,3.7369770355820653,-1.9479582142166791
1783696682358605600,4.90760546875,6.756937435698509,3.4823601772174237,-2.6044196970850226
1783696682368568300,4.917568359375,6.925866599905491,3.342821650406718,-3.1607348984628914
1783696682378531300,4.92753125,6.65603843614459,3.3388089076340197,-3.4027994415074585
1783696682388494600,4.93749462890625,6.115658470523357,3.4517160326287146,-3.266796103085577
1783696682398457600,4.94745751953125,5.636201467898488,3.7576778783053157,-2.8437732276052237
1783696682408420600,4.957420654296875,5.304865234729648,4.13045700571388,-2.2257826374284924
1783696682418383600,4.967383544921875,5.269228104159236,4.509485256645084,-1.5413538279652594
1783696682428346400,4.977346435546875,5.354371316176652,4.744982403998077,-0.941843774113804
1783696682438309400,4.987309326171875,5.583453043529391,4.825830841431022,-0.5053632319714874
1783696682448272400,4.9972724609375,6.011012101134657,4.80275420948714,-0.3253788591343909
1783696682458235400,5.0072353515625,6.5239674687355755,4.684861405034363,-0.3653095221802592
1783696682468198700,5.01719873046875,7.005902259650826,4.489698898418247,-0.5447036009740084
1783696682478161700,5.02716162109375,6.874088481873273,4.32011828456521,-0.3263109523527324
1783696682488124700,5.037124755859375,6.51192982493937,4.259723729357123,0.015333324340730904
1783696682498087400,5.04708740234375,6.675555622041225,4.524218715396524,-0.5008065185151994
1783696682508050400,5.057050537109375,6.860155818110704,5.069898540991544,-1.3645301111161707
1783696682518013400,5.067013427734375,7.00636110933423,5.362125583565235,-2.2048536850377918
1783696682527976400,5.0769765625,6.822347188720107,5.3375353321880095,-2.7423113334715365
1783696682537939500,5.086939453125,6.137243694865703,5.123906025511026,-3.065431526958942
1783696682547902500,5.09690234375,5.078650587245821,4.8769145474582904,-3.263959710615873
1783696682557865700,5.10686572265625,3.209307498452067,4.477889510419964,-2.8507278690487143
1783696682567827500,5.116827392578125,0.5202618912220001,3.233657511332631,-1.6652752450577915
1783696682577790500,5.12679052734375,-0.7664572504609822,1.776339810925722,-1.9794415861085055
1783696682587753500,5.13675341796875,-2.7604256668329237,0.13654840508401392,-1.0997162683859467
1783696682597716500,5.146716552734375,-3.3088141668647526,-1.6023901882082223,-0.33334728073030706
1783696682607679500,5.156679443359375,-2.9436271020203826,-3.021394232311845,0.5253437245309353
1783696682617642500,5.166642578125,-2.63350024561882,-4.3576486815363165,1.3833676441855727
1783696682627605500,5.17660546875,-2.7396470826983452,-6.299698694622516,2.409095277905464
1783696682637568500,5.186568603515625,-2.9185084428548813,-8.019707546517253,3.221258633008599
1783696682647531500,5.196531494140625,-3.405299441629648,-8.85711640203595,3.6629008687630296
1783696682657494500,5.20649462890625,-4.635310607662797,-9.723669518974424,3.8653263521194456
1783696682667457500,5.21645751953125,-5.772032080101966,-10.213788200867176,3.743879946838319
1783696682677420500,5.226420654296875,-7.00494364375174,-9.94217958343029,3.7285675191551446
1783696682687383300,5.23638330078125,-8.866782056003808,-9.529512974530459,3.8127421784013507
1783696682697346600,5.2463466796875,-10.359200880408286,-8.932933567303419,3.9294811366438864
1783696682707309600,5.2563095703125,-10.829806468057631,-8.059999224895238,4.036168071949482
1783696682717272600,5.2662724609375,-10.143788197445868,-6.663115827184916,3.8578023863554
1783696682727235600,5.276235595703125,-8.832887969708443,-4.823430502291023,3.357513900364935
1783696682737198600,5.286198486328125,-7.540701210269331,-2.9616566797077652,2.5413012698709965
1783696682747161600,5.29616162109375,-6.705533996197581,-1.5695678227975964,1.6856075467295943
1783696682757124400,5.306124267578125,-5.910742631655931,-0.6417834075659513,0.9917441155754029
1783696682775183400,5.324183349609375,-4.553216261821985,-0.04650193119496107,0.33541816872023045
1783696682785146400,5.334146484375,-2.794033921924233,0.05615823281258344,-0.308538637362048
1783696682795108600,5.344108642578125,-0.5109036957681179,-0.050263037294149396,-0.8010664992883801
1783696682805071600,5.354071533203125,1.924451228031516,0.07477817760854959,-1.2525006457388401
1783696682815034600,5.36403466796875,4.094595126476884,0.3652291504204273,-1.5134018450699747
1783696682824997400,5.373997314453125,5.724910263442993,0.84677786462754,-1.491684811041504
1783696682834960400,5.38396044921875,6.724132898205518,1.5738193427622318,-1.3474194018393755
1783696682844923400,5.39392333984375,7.092756367239356,2.4222218859821556,-1.0925015877667814
1783696682854886700,5.40388671875,7.098366023814678,3.032886224924028,-0.7577278544299304
1783696682864849700,5.413849609375,6.982632443222403,3.3370950894534586,-0.21921788393165914
1783696682874812700,5.423812744140625,6.832398042613267,3.2762308709070083,0.23281974483728407
1783696682884775200,5.433775146484375,7.0646677523523564,3.08322846493423,-0.16283786159455776
1783696682894738200,5.44373828125,7.468737797820568,3.1494474885120987,-0.7890581546518951
1783696682904701200,5.453701171875,7.501592019674182,3.232538444174826,-0.7123993509285151
1783696682914664000,5.463663818359375,7.233512745407223,2.8801889413326975,-0.1140663780324161
1783696682924627000,5.473626953125,7.036395597591996,2.4825629574373362,0.38995406102798874
1783696682934590200,5.483590087890625,6.6125049993664025,2.2951123403728007,0.6084204324726015
1783696682944553200,5.49355322265625,5.843917166617512,2.1202242677614094,0.43052346036881206
1783696682954516200,5.50351611328125,5.294710920462012,1.970352855245769,-0.016864698626473544
1783696682964479200,5.513479248046875,4.842535307994485,1.9324641463562846,-0.6002691285904497
1783696682974442200,5.523442138671875,4.809816110697389,1.5924416256457565,-0.8348213232435285
1783696682984405000,5.533405029296875,4.989653622409701,1.3328089849457143,-0.59661776647605
1783696682994368000,5.543367919921875,4.925940151911973,1.5508134379670022,-0.27863844300843776
1783696683004331000,5.5533310546875,4.556317734968662,1.8325532810568808,-0.16794987084604798
1783696683014294300,5.563294189453125,4.179356645700335,2.03927236995399,-0.3565545533165335
1783696683024257300,5.57325732421875,3.8391824415594336,2.2061054386645553,-0.5736546048440039
1783696683034220300,5.58322021484375,3.295021788355708,2.079964738087356,-0.4818967239271849
1783696683044183300,5.593183349609375,2.5392215409874916,1.516022110570967,0.07963350868523121
1783696683054146000,5.60314599609375,1.5430395890951156,0.5132438291534781,1.0960298349581659
1783696683064109000,5.613109130859375,0.3466296638906002,-0.815982913391292,2.262965097744763
1783696683074072000,5.623072021484375,-1.2011322775512934,-2.1165563929036257,3.352519745339453
1783696683084035000,5.63303515625,-2.9223440754950043,-2.903703964693844,3.2063129928112026
1783696683093998000,5.642998046875,-4.670960013192892,-3.2180849714085458,1.680141244147718
1783696683103961300,5.65296142578125,-6.966722341907024,-4.37690692423582,0.6478564438693225
1783696683114546200,5.663546142578125,-11.21088668308258,-7.791847469913959,0.7174379296176135
1783696683124509200,5.67350927734375,-12.600304567217826,-8.186209191316365,2.296278315412253
1783696683134472200,5.68347216796875,-12.573773118644953,-8.243340360814333,2.2945037069551644
1783696683144435200,5.693435302734375,-12.54468029515147,-8.29590056913495,2.3511694508984684
1783696683154398200,5.703398193359375,-12.505326774406432,-8.361037350434064,2.4817531023591757
1783696683164361200,5.713361328125,-12.456526210880279,-8.447731883546709,2.6630647782772776
1783696683174324000,5.723323974609375,-12.406942388021946,-8.546735278612374,2.8563340184926984
1783696683184287000,5.733286865234375,-12.364632355558872,-8.641573955214023,3.031578941717744
1783696683194250000,5.74325,-9.515551669195293,-1.001109179161489,0.9186360631361603
1783696683204213200,5.753213134765625,-7.085370933163166,-0.6809624485269189,0.274799577231612
1783696683214176300,5.76317626953125,-4.093578058388829,-0.4921291449323296,-0.10130471254428848
1783696683224138000,5.773137939453125,-0.8662848213911056,-0.3391276176974177,-0.28698121434208
1783696683234101000,5.78310107421875,2.1294389630913733,-0.2092526990279555,-0.3962305840142071
1783696683244064000,5.79306396484375,4.455919670674205,0.03765490013360977,-0.5966001942867413
1783696683254027000,5.803027099609375,5.803397524702548,0.5904723225235938,-1.0228096273813396
1783696683263990300,5.812990234375,6.3118111572206015,1.2068731592908502,-1.5035219638295472
1783696683273953300,5.822953369140625,6.292099325534701,1.829669542314112,-1.8035713705919683
1783696683283916300,5.832916259765625,6.190089734390377,2.40945709695518,-1.8669637924417852
1783696683293879000,5.842879150390625,6.093420335230231,2.7726477272853254,-1.885932989066839
1783696683303842000,5.852842041015625,5.999611586198211,2.5650112312823534,-1.641589102913439
1783696683313805000,5.86280517578125,5.782216204985976,2.2150063918702303,-1.3183178105175495
1783696683323768000,5.87276806640625,5.63465014680326,2.3397914400547744,-1.597633056809008
1783696683333731000,5.88273095703125,5.2776943192094565,2.371693329619616,-2.3053110783040522
1783696683343694300,5.8926943359375,4.82852022664547,2.371181142313778,-3.3805031462863084
1783696683353657300,5.9026572265625,3.8461248080432413,1.7506677556611596,-3.7224019822627303
1783696683363620000,5.9126201171875,3.0516672055006024,0.41668198202103374,-3.175699827882647
1783696683373583000,5.9225830078125,3.370281904262304,-0.2950456801909953,-2.6870065026178955
1783696683383546000,5.932546142578125,4.343821231713891,-0.20509061091244218,-2.5678815260216594
1783696683393509000,5.942509033203125,4.966691264495253,0.16453385185748337,-2.6886107229441403
1783696683403472100,5.95247216796875,4.9451393579006195,0.483077531209588,-2.735368966987729
1783696683413435100,5.96243505859375,4.777124385929107,0.6028432899273931,-2.6761487162560225
1783696683423398100,5.972398193359375,4.811343466395139,0.7063304062783717,-2.5887156397357582
1783696683433361200,5.982361083984375,5.158957465147972,1.0366555627085268,-2.767809347343445
1783696683443324200,5.99232421875,5.50119035538435,1.6284103262580931,-2.970155627983808
1783696683453287200,6.002287109375,5.490012543287873,2.0981375236377118,-3.1106127309441565
1783696683463250200,6.012250244140625,5.801690720784664,2.433121757920086,-3.105313455492258
1783696683473213200,6.022213134765625,5.4110360372066495,2.6962670829162,-3.0274557243078943
1783696683483176200,6.03217626953125,4.878859836307168,2.8394670548439023,-2.770160586644709
1783696683493139000,6.042138916015625,4.017728744417429,2.4262512876287103,-1.7313377628996967
1783696683503102000,6.05210205078125,2.0976368806391954,1.434959738126397,-0.7777294628426432
1783696683513065200,6.062065185546875,-0.47969431851208205,0.243045663036406,0.2234077733695507
1783696683523028200,6.0720283203125,-2.8881045367628335,-0.3122773124337196,0.45273499991595745
1783696683532991200,6.0819912109375,-5.094700973814725,-0.25520021121054887,-0.29710429322123527
1783696683542954200,6.091954345703125,-6.928865197199583,-0.01834931116104126,-1.2151526195973157
1783696683552917200,6.101917236328125,-8.448632047256828,-0.056930386228859424,-1.6082561576321721
1783696683562880000,6.1118798828125,-9.940774392807484,-0.6808595726743341,-1.3126999706357716
1783696683572843000,6.121843017578125,-11.09145015631914,-1.477752585670352,-0.24453297898471354
1783696683582806000,6.131805908203125,-11.376025807356834,-1.8314491192072628,1.4182655006960034
1783696683592769000,6.14176904296875,-11.454078184330463,-1.693669711023569,1.3754516103640197
1783696683602732300,6.151732177734375,-9.25654651274383,-2.248065342515707,4.530374899938702
1783696683612695300,6.1616953125,-7.497990780311823,-2.618261467693746,5.111420637947321
1783696683622658300,6.171658203125,-6.250910406056046,-3.1451591436684128,4.91775918354392
1783696683632620000,6.1816201171875,-5.733676922744512,-3.8606133521229027,4.2858413364320995
1783696683642583000,6.1915830078125,-5.737551718351245,-4.540126186363398,3.4772125851958986
1783696683652546000,6.201546142578125,-5.722222631794214,-4.843102001966535,2.4698116124138236
1783696683662509300,6.21150927734375,-5.590589471280574,-4.835020986841618,1.4263409628629684
1783696683672472300,6.221472412109375,-5.280338696238398,-4.467944162727892,0.4410955616571009
1783696683682435000,6.23143505859375,-4.098945722901821,-3.819394329766929,-0.3842904092431068
1783696683692398000,6.241398193359375,-1.8618506872117517,-3.2819624002963304,-0.9299692119248211
1783696683702361000,6.251361083984375,0.4510544994831085,-3.001408259859681,-1.229085283359885
1783696683712324000,6.261323974609375,2.234409742128849,-2.787894688516855,-1.310505237070471
1783696683722287000,6.271287109375,3.5049943260908125,-2.4773218419134615,-1.2817074510008095
1783696683732250000,6.28125,4.3027842879265545,-1.9356418996095657,-1.189216360438615
1783696683742213400,6.29121337890625,4.696660271638631,-1.1486284755930305,-1.0559650972038508
1783696683752176000,6.301176025390625,4.871611180353164,-0.13204612522870302,-0.9900602541416883
1783696683762139100,6.31113916015625,4.905979313901066,0.9357382968455552,-1.0925552907153964
1783696683772102100,6.32110205078125,4.801279168498516,1.8446566835656761,-1.3338409583419562
1783696683782065200,6.331065185546875,4.621035414072871,2.4937258642256257,-1.6096180936351419
1783696683792028200,6.341028076171875,4.488000570067763,2.976099338819086,-1.9945098297722637
1783696683801991200,6.3509912109375,4.476746185603737,3.275727889820933,-2.4937170963972806
1783696683811954000,6.360953857421875,4.752225506994128,3.4171500384211537,-2.847683679047227
1783696683821917200,6.370917236328125,5.246855528831482,3.4699449322804807,-2.968004002907872
1783696683831880200,6.380880126953125,5.7427060323745005,3.353123556451499,-2.9321845015078782
1783696683841843200,6.39084326171875,6.086887134069204,3.105773766480386,-2.7628303898870943
1783696683851806200,6.40080615234375,6.023921851590275,2.818028253234923,-2.427935149062425
1783696683861769200,6.410769287109375,5.614445563164353,2.5938538794070483,-2.0198606902584433
1783696683871732200,6.420732177734375,5.128050285708904,2.4488357521414756,-1.613979795975983
1783696683881695000,6.430695068359375,4.81846761918664,2.3874364038050175,-1.2863948781646788
1783696683891658000,6.440657958984375,4.664133966565132,2.2944226045429703,-0.8687227160625159
1783696683901621000,6.45062109375,4.555288976442814,2.0166227312505245,-0.3933164501331746
1783696683911584300,6.460584228515625,4.677738129025697,1.6608087671682237,-0.033072686909884214
1783696683921547300,6.47054736328125,4.889427992072701,1.3290867495521903,0.33614144149348135
1783696683931510300,6.48051025390625,4.780657820752263,0.9527765254080295,0.9243414351709186
1783696683941473300,6.490473388671875,4.14333431520462,0.7131810028254986,1.6018468751117587
1783696683951436000,6.50043603515625,3.278583279252052,0.8970105067834258,2.020244575009495
1783696683961399000,6.51039892578125,2.396469605088234,1.01623251401335,2.24106569288671
1783696683971362000,6.520362060546875,1.4175824868679046,0.5023518482610583,2.6770903810203075
1783696683981325000,6.530324951171875,-0.14368424831330776,-0.8111077085703611,3.4803780634894963
1783696683991288000,6.5402880859375,-2.585701552611589,-2.1945167076796293,4.108827942229807
1783696684001251300,6.550251220703125,-5.47617983276844,-2.976122427433729,4.29492305303216
1783696684011213000,6.560213134765625,-8.355885959020256,-3.390228129225969,3.9012557436347004
1783696684021176000,6.570176025390625,-11.328859567034243,-4.181578413403034,2.9229274283409117
1783696684031139000,6.58013916015625,-13.686400014269351,-5.228188237762451,2.046342892862111
1783696684041102000,6.59010205078125,-13.766032938432692,-5.090514628040791,2.1227005947470663
1783696684051065000,6.600065185546875,-13.860987350368498,-4.939463650351763,2.1865147491402923
1783696684061028400,6.6100283203125,-13.973381557404995,-4.775318797811866,2.2291323862478136
1783696684070991000,6.6199912109375,-14.100138636314869,-4.605247477832436,2.242534304134548
1783696684080954000,6.6299541015625,-14.232799386310576,-4.440719178932905,2.227449547727406
1783696684090917000,6.639917236328125,-10.18647583104968,-3.185139271879196,2.7887182798594234
1783696684100880100,6.649880126953125,-7.052074228239059,-2.8144179537832734,2.3295351267173885
1783696684110843100,6.659843017578125,-4.3608688126266,-2.710840674930811,1.5710549926154314
1783696684120806100,6.66980615234375,-1.9529472546756266,-2.69864521022439,0.7215104397535324
1783696684130769200,6.67976904296875,0.34422260274887084,-2.722757322695851,0.034072511602193115
1783696684140732200,6.689732177734375,2.3192127624064685,-2.5596178478062153,-0.29736835098490116
1783696684150695200,6.699695068359375,3.578248947393894,-2.1514421205848455,-0.3566306872926652
1783696684160658200,6.709658203125,4.126887038272619,-1.4925328061729668,-0.5460296619459987
1783696684170621200,6.71962109375,4.231636868035793,-0.48380701452791686,-0.8852633703663945
1783696684180584200,6.729584228515625,4.342515409812331,0.6371563322871923,-1.0877261169932781
1783696684190547200,6.739547119140625,4.642321947729587,1.6581904013633728,-0.9914709977224468
1783696684200510000,6.749510009765625,5.030286661571264,2.3930571662962437,-0.7849795801013708
1783696684210473000,6.759472900390625,5.119041634345054,2.8466642728716134,-0.612042641557753
1783696684220436200,6.769436279296875,5.10726293374598,3.204041540747881,-0.5745528688579797
1783696684230399200,6.779399169921875,5.3080923800826065,3.616686522337794,-0.5894343577779829
1783696684240362200,6.7893623046875,5.475297204715013,3.8818899489074945,-0.6293927125483751
1783696684250325200,6.7993251953125,5.521870739841461,3.858956232565641,-0.7441210616208612
1783696684260288300,6.809288330078125,5.502115653535723,3.709439040315151,-0.9648539166927337
1783696684270251000,6.8192509765625,5.360042347550392,3.5160552338093516,-1.194828062840551
1783696684280214000,6.829214111328125,5.089212897792458,3.4378187324404714,-1.389828510762751
1783696684290177000,6.839177001953125,4.74532171895504,3.518965568298101,-1.552513227622211
1783696684300140000,6.84914013671875,4.377980690947175,3.629014673513174,-1.598126539414376
1783696684310103300,6.859103271484375,4.019499845743179,3.6652117760539054,-1.4580647193819283
1783696684320066300,6.86906640625,3.6735084797561166,3.66443786907196,-1.2553433218188583
1783696684330029300,6.879029296875,3.455901501619816,3.6809815921157596,-1.1683427914969622
1783696684339992000,6.888991943359375,3.518720069104433,3.6931542604684826,-1.184843990573287
1783696684349954000,6.8989541015625,3.9232887117445467,3.6825948725312947,-1.1929516014441848
1783696684359917000,6.9089169921875,4.430138748207688,3.6507705782473083,-1.1707831703864038
1783696684369880300,6.91888037109375,4.790448562404513,3.5017250951617953,-1.1180147261425852
1783696684379843300,6.92884326171875,5.006264565470814,3.273601983708143,-0.9291483970612286
1783696684389806000,6.93880615234375,5.090201324307918,2.980179009348154,-0.6651650138057768
1783696684399769000,6.94876904296875,5.088001768437028,2.569603819769621,-0.5811931836552917
1783696684409732000,6.958732177734375,4.923005852025747,1.997840873891115,-0.57784884166345
1783696684419695000,6.968695068359375,4.595409389907122,1.3003314874500036,-0.6814192523837089
1783696684429658000,6.978658203125,3.8400913730978963,0.5506003308624029,-1.0401492500431835
1783696684439621000,6.98862109375,2.495588735488057,-0.4034486986994743,-1.4963776450328528
1783696684449584000,6.998584228515625,1.0663234096109866,-1.6958803728103637,-1.9054343928724526
1783696684459547100,7.008547119140625,0.11361702682971954,-3.33231779204905,-2.4390308358334005
1783696684469510100,7.01851025390625,-0.3929015857219696,-4.492776698428393,-2.822919240146875
1783696684479473200,7.02847314453125,-1.1061094765543937,-4.4215223110318185,-3.2558091373860836
1783696684489436200,7.038436279296875,-2.5538345882296563,-3.279039206326008,-3.7227807524472474
1783696684499399200,7.048399169921875,-4.454021728098392,-2.468939798015356,-3.6757939603447913
1783696684509362200,7.058362060546875,-6.361757968172431,-2.737841494581103,-2.7720991534918547
1783696684519325200,7.0683251953125,-7.238634910726547,-3.411787634605169,-1.420588098424673
1783696684529288000,7.078287841796875,-7.005853159812093,-3.957789531761408,0.12128960728421806
1783696684539251200,7.088251220703125,-6.36427667299509,-4.267382135155796,1.6489514483749865
1783696684549214200,7.098214111328125,-5.702039675465226,-4.169477641242742,2.560304661026597
1783696684559177200,7.10817724609375,-5.428810763350129,-3.8577375044256446,2.884554150804877
1783696684569140200,7.11814013671875,-5.64207123671472,-3.6595413292020558,2.6131296577632424
1783696684579103200,7.128103271484375,-5.987928747189045,-3.4590392151236533,1.9451019480027256
1783696684589066000,7.13806591796875,-6.246438813599943,-3.36458281583786,1.2829172651819885
1783696684599029000,7.148029052734375,-6.4261646816313265,-3.2321833471268415,0.9409586618423461
1783696684608992000,7.157991943359375,-6.21388328243196,-2.9336615883231163,0.8602139770448207
1783696684618955000,7.167955078125,-5.471384415185451,-2.615704476687312,0.8634921219326556
1783696684628918300,7.177918212890625,-4.132290943142771,-2.2892700440853835,0.8129526057846844
1783696684638881300,7.18788134765625,-2.5174136138051746,-1.9141537059009075,0.6488154981598258
1783696684648843000,7.197843017578125,-1.135832999166846,-1.5036334613800049,0.4789126666150987
1783696684658806000,7.207805908203125,0.05081716404557228,-1.053327149915695,0.27128172357007857
1783696684668769000,7.21776904296875,1.2047872929275034,-0.4785264437764883,0.01104863275885582
1783696684678732000,7.22773193359375,2.304549446281791,0.10581658221185207,-0.3080030691806227
1783696684688695300,7.2376953125,3.3003590577304363,0.687017803043127,-0.6369365520566701
1783696684698658300,7.247658203125,4.096082150164246,1.3294541215598583,-0.872314968400821
1783696684708621000,7.25762109375,4.522214389836788,2.058772604715824,-1.240536651700735
1783696684718584000,7.267583984375,4.481607069638371,2.65369898403883,-1.6104492837622761
1783696684728547000,7.277547119140625,4.10650066832602,3.0075960085839033,-1.880139646487683
1783696684738510000,7.287510009765625,3.597683715704083,3.2390468031555413,-2.0230742454774675
1783696684748473000,7.29747314453125,3.1870529965460297,3.4710938100546596,-1.9812781538859008
1783696684758436000,7.30743603515625,2.995699234563112,3.783815359124541,-1.7432718001909553
1783696684768399400,7.3173994140625,3.091047614252567,4.104568238958716,-1.318707540487498
1783696684778362000,7.327362060546875,3.437983567613363,4.359535518196225,-0.7066013321742415
1783696684788325000,7.3373251953125,4.088387504008412,4.4490766729116435,-0.004296656014304608
1783696684798288100,7.3472880859375,4.715066865944862,4.290583562523127,0.648180342061445
1783696684808251100,7.357251220703125,5.192593192768097,3.9242233622461553,1.1743943466208875
1783696684818214100,7.367214111328125,5.502235480523109,3.491660212743282,1.530108795851469
1783696684828177200,7.37717724609375,5.657243086883425,3.0137416717320678,1.724159980224818
1783696684838140200,7.38714013671875,5.779173768550157,2.455046881741285,1.761902997033298
1783696684848103200,7.397103271484375,5.748421487411856,1.8263117563188076,1.7690432241767644
1783696684858066200,7.407066162109375,5.349785741952061,1.2253355754375457,1.6615424882702527
1783696684868029200,7.417029296875,4.582492040666938,0.8444137658447026,1.5268946561105547
1783696684877992200,7.4269921875,3.5267929009228944,0.5408949294060469,1.315571434418857
1783696684887955200,7.436955078125,2.477565587541461,-0.04109247336685657,1.2730251089818776
1783696684897918200,7.446918212890625,1.4906418778598307,-1.2047405311763286,1.4081661314859986
1783696684907881200,7.456881103515625,0.5422860915035009,-2.7596447455883024,1.7268366520881653
1783696684917843200,7.46684326171875,-0.5813584572196007,-3.980267905551195,1.822715631522983
1783696684927806200,7.47680615234375,-2.308302661335468,-4.134425032562017,1.0170468991361559
1783696684937769200,7.486769287109375,-4.553487479978799,-3.2613720322102306,-0.850137842579931
1783696684947732200,7.496732177734375,-6.290260419669747,-2.2195254767298698,-2.629728910386562
1783696684957695200,7.5066953125,-6.993396998342871,-2.10309280795753,-3.2434502988114953
1783696684967658200,7.516658203125,-6.549461975476145,-3.4727632045716046,-1.9025360410824417
1783696684977621000,7.52662109375,-5.308883822721243,-4.9692988166451455,1.017999012229219
1783696684987584000,7.536583984375,-3.941406552237272,-4.937014503633976,4.300259737884998
1783696684997547300,7.54654736328125,-3.4064117867857218,-3.292190364322066,6.896995310208201
1783696685007510300,7.55651025390625,-3.369837083104253,-1.0983680686473847,8.289304239609837
1783696685017473300,7.566473388671875,-3.334524946704507,0.32820027323067186,8.354557340764998
1783696685027436300,7.576436279296875,-3.7972552709341048,0.6676955551967024,7.1779796587556595
1783696685037399300,7.5863994140625,-4.812741642755269,0.28094606236368413,5.437687897288799
1783696685047362000,7.596362060546875,-5.817479826068878,-0.564233134895563,3.7307992237299676
1783696685057325000,7.606324951171875,-6.221831611087918,-1.6543392788931726,2.515813192871213
1783696685067288000,7.6162880859375,-5.486678430429101,-2.578228440251946,1.955266929794848
1783696685077251000,7.6262509765625,-3.782786016076803,-3.389733915968239,1.8137746385678648
1783696685087214300,7.63621435546875,-1.9052198733389376,-4.122956420825422,1.7156987336106597
1783696685097177300,7.64617724609375,-0.4109960453391075,-4.472804462240636,1.331740332800895
1783696685107140000,7.65614013671875,0.3018354133963585,-4.4289235271990295,1.2419497333690523
1783696685117103000,7.66610302734375,0.739528911525011,-3.7237466748699544,1.3269053138598799
1783696685127066000,7.676066162109375,0.821337426161766,-2.3795845212608575,1.2482216532453894
1783696685137029000,7.686029052734375,0.239606628498435,-1.1348957183167339,0.9066285222172736
1783696685146992000,7.6959921875,-0.8397662322998046,-0.2619534848630428,0.47097091383039946
1783696685156955100,7.705955078125,-2.010776343309879,0.25191578271239995,-0.05488529026731848
1783696685166918400,7.71591845703125,-2.746326998853683,0.7450637492984533,-0.6065959935244173
1783696685176881200,7.725881103515625,-2.758879021912813,1.2511781649634242,-0.9676161479476839
1783696685186843100,7.735843017578125,-1.827364480242133,1.6415198370695112,-1.191697144403681
1783696685196806100,7.74580615234375,-0.6408557713270187,1.9915692462757228,-1.1106824104931206
1783696685206769200,7.75576904296875,0.7757067248433828,2.3564994137495754,-0.795026780732721
1783696685216732200,7.765732177734375,2.1262796222776172,2.683637902967632,-0.6003031039252877
1783696685226695200,7.775695068359375,3.2796512007445093,2.8897677937999364,-0.49789132518824186
1783696685236658200,7.785658203125,4.030959397390484,3.0215830328822135,-0.3305793869195506
1783696685246621200,7.79562109375,4.4024744962126015,3.1417928821057077,-0.12402557158675044
1783696685256584200,7.805584228515625,4.637386244893074,3.2633713893339036,0.11323876810185611
1783696685266547200,7.815547119140625,4.888953944820165,3.5044942676141857,0.34250878456830974
1783696685276510200,7.82551025390625,5.071668473273515,3.757312259863317,0.51619866037108
1783696685286473200,7.83547314453125,5.155089683803916,4.0656516483262175,0.6699542939089238
1783696685296436000,7.84543603515625,5.217556369110942,4.43481667689085,0.6364083634641021
1783696685306399200,7.855399169921875,5.424138679885864,4.778787058444321,0.3912484847526997
1783696685316362200,7.8653623046875,5.664463101264834,4.945917356535792,-0.1037368533283472
1783696685326325200,7.8753251953125,5.659893309131264,4.710139054153859,-0.7365380591459572
1783696685336288300,7.885288330078125,5.526916332793236,3.8684146735236045,-1.6488069253377615
1783696685346251300,7.895251220703125,5.292260020178556,2.286201011903584,-2.7660455525413155
1783696685356214300,7.90521435546875,4.9835950530231,-0.030151977157592772,-3.47030996620059
1783696685366177000,7.915177001953125,4.84261772558093,-2.409436930949986,-3.3228017756849524
1783696685376140000,7.92514013671875,4.181825081640482,-3.6066947051554914,-2.6628619491815564
1783696685386103000,7.93510302734375,2.6327982348293064,-3.2687223949730395,-2.251670089009404
1783696685396066300,7.94506640625,0.4797060089498758,-2.2034593080699443,-2.488620650041103
1783696685406029300,7.955029296875,-1.5267092165410519,-1.472877088588476,-3.088185210558772
1783696685415992300,7.964992431640625,-3.140104782888293,-1.702476117813587,-3.2521108673900363
1783696685425954000,7.9749541015625,-4.175261485341191,-2.35716226157248,-3.2758243359327315
1783696685435917000,7.9849169921875,-4.376662009564042,-2.7512334755957126,-3.3581755791440604
1783696685445880000,7.994880126953125,-3.8544647663652896,-3.157994367583096,-2.9895427577599882
1783696685455843300,8.00484326171875,-4.333916508293152,-3.5843016715615987,-2.5821964671000837
1783696685465806300,8.014806396484374,-5.624387695986032,-3.7270994924291965,-2.627036310301721
1783696685475769300,8.024769287109375,-6.608676965510845,-3.5763074579373,-3.103013654117286
1783696685485732000,8.034732177734375,-7.491518369427323,-3.180676739512384,-3.693072427403927
1783696685495695000,8.044695068359376,-7.9381240728080265,-2.475565938156843,-3.694616441975534
1783696685505658000,8.054658203125,-8.333512799170613,-1.962262195509672,-3.4062808538824316
1783696685515621000,8.06462109375,-8.727104705244303,-1.776310000309348,-2.8007135458186267
1783696685525584100,8.074584228515626,-8.62354788465798,-1.5736951318606733,-1.9620362777993081
1783696685535547100,8.084547119140625,-8.225295585557818,-1.4658964359208941,-1.2049656451690942
1783696685545510400,8.094510498046875,-7.666379846292734,-1.5369117538645862,-0.6900809169407933
1783696685555473200,8.10447314453125,-6.851767344471812,-1.869319707918167,-0.7433217279367148
1783696685565436200,8.114436279296875,-5.841238887318968,-2.390881868083775,-1.4292000055558978
1783696685575399200,8.124399169921874,-4.589132793855667,-2.8416245251387355,-2.223466031049192
1783696685585362200,8.134362060546875,-3.4042858806729313,-3.1752520841151473,-2.5807050594985483
1783696685595325200,8.1443251953125,-2.5111773497641083,-3.2742467113524674,-2.3528739167287944
1783696685605288200,8.1542880859375,-1.555152051693201,-2.746226753349602,-1.6105939529299735
1783696685615251000,8.1642509765625,-0.8079290785342454,-1.9266373398989438,-0.730555477605015
1783696685625214200,8.174214111328125,-0.29536943225264545,-0.9086436614319682,0.001002418508194387
1783696685635177200,8.18417724609375,0.2456891632825136,0.24699352387934922,0.5974407002314925
1783696685645140200,8.19414013671875,0.6888783362179994,1.0994465115338563,1.0156812368061392
1783696685655103200,8.204103271484374,1.1142542045652866,1.5784236216872929,1.1529132402401416
1783696685665066200,8.214066162109376,1.7962959727615118,1.8118977387800812,0.8626606395445764
1783696685675028000,8.224028076171875,2.7961721029967066,1.9045339369013905,0.3699373646439984
1783696685684991200,8.2339912109375,3.902254691544175,1.928981564937532,0.027394367278832942
1783696685694954200,8.243954345703125,4.811567922800779,1.873253247974813,-0.04183923661354929
1783696685704917200,8.253917236328125,5.421020255604386,1.7708225088089704,0.03140656206225976
1783696685714880300,8.26388037109375,5.873213403728604,1.7622940421774982,0.013792415041662752
1783696685724843300,8.27384326171875,6.136193309029936,1.8076245915055273,0.064900342194736
1783696685734806000,8.283805908203124,6.236529998525977,1.9064137592986226,0.21658917939588426
1783696685744769000,8.29376904296875,6.191731071856617,2.0843758325278756,0.34794644557759163
1783696685754732000,8.30373193359375,5.994101298344135,2.3270158373728393,0.3882713321054354
1783696685764695000,8.313695068359374,5.743179495105147,2.488828447572887,0.4959931634167209
1783696685774658300,8.323658203125,5.440350394496321,2.5067273846179243,0.5384191869422793
1783696685784621300,8.333621337890625,5.189591672864556,2.5870295863449573,0.4140589035084471
1783696685794584300,8.343584228515626,5.0534763985008,2.689472892731428,0.3951373819500208
1783696685804547000,8.353547119140625,4.99774866605997,2.7303873791828748,0.6120134154632687
1783696685814510000,8.363510009765625,4.9331005450606344,2.6977231269434094,0.9007154987812042
1783696685824473000,8.37347314453125,4.693702006354928,2.5031971646651625,1.2115568601276725
1783696685834436000,8.38343603515625,4.184906681042909,2.224057567201555,1.3896769734628498
1783696685844399000,8.393399169921874,3.4862843649238346,2.055409850284457,1.4094476957291364
1783696685854362400,8.4033623046875,2.8566712876230476,2.0582398130133748,1.4515765264064073
1783696685864325400,8.413325439453125,2.4457915621399877,1.9788146863818168,1.6060057483568786
1783696685874288000,8.4232880859375,2.1560054829776285,1.6610124730467795,1.9565847343951464
1783696685884251600,8.433251708984375,1.9006401443332432,1.0416270675107837,2.482832129767537
1783696685894213400,8.44321337890625,1.9756570991337299,0.225701145003736,3.063945672315359
1783696685904176400,8.45317626953125,1.775750612860918,-0.4946434658408165,3.1860879509061575
1783696685914139400,8.463139404296875,0.9644207859724759,-0.726052467097342,2.6436861240684983
1783696685924102700,8.4731025390625,-0.4037988273113966,-0.7080147061035037,2.234634052404016
1783696685934065700,8.483065673828126,-2.0190788922309872,-0.7794470804154873,2.398889817972481
1783696685944028700,8.493028564453125,-3.4943484289139506,-0.9601903087958693,2.6256904486507175
1783696685953991400,8.502991455078124,-4.373615481474995,-1.1184510717332363,2.5065248477831483
1783696685963954400,8.512954345703125,-4.65902641429305,-1.1306561810508369,2.128677038808167
1783696685973917400,8.52291748046875,-4.369174284157157,-1.1799167633041738,1.4936597643762826
1783696685983880400,8.53288037109375,-4.038811279934644,-1.2395973250240087,0.8093089885853231
1783696685993843500,8.542843505859375,-4.314978583589196,-1.3637936135351658,0.4617433590188622
1783696686003806500,8.552806396484375,-4.95345710439086,-1.5441598252967,0.4169036619476974
1783696686013769700,8.562769775390626,-5.685614025843143,-1.8268144451439379,0.5758882091149687
1783696686023732500,8.572732421875,-6.415857807150482,-2.0611174142763016,0.9008036154560745
1783696686033695500,8.582695556640624,-7.0625932841658585,-2.2726301671907305,1.2941446155086158
1783696686043658500,8.592658447265626,-7.316670336565375,-2.38972539152503,1.6810360010303556
1783696686053621500,8.60262158203125,-6.957734148809314,-2.424683599920571,1.9708789249464869
1783696686063584500,8.61258447265625,-6.065445117589831,-2.5454768019899725,2.059481045246124
1783696686073547500,8.622547607421875,-4.8279403809309,-2.5374051392152905,2.0077849064089355
1783696686083510300,8.63251025390625,-3.7048008591204877,-2.422224516330659,1.8958065866969525
1783696686093473500,8.6424736328125,-2.8874475341588255,-2.220282432577014,1.6157904986597598
1783696686103436500,8.6524365234375,-2.1653788760006427,-2.009066032260656,1.2717165106013417
1783696686113398500,8.6623984375,-1.4946253945380448,-1.8390926196977495,0.8898388615883887
1783696686123361500,8.672361572265626,-0.812199010938406,-1.5833455882593988,0.39828181745558977
1783696686133324500,8.682324462890625,-0.11340016920864582,-1.1043979964613915,-0.2518371645182371
1783696686143287300,8.692287353515624,0.5037076467841863,-0.5335194322019815,-0.8373872282087802
1783696686153250600,8.70225048828125,0.9720265848010777,0.04330956489443779,-1.1907190200865267
1783696686163213600,8.712213623046875,1.512003230318427,0.622386048656702,-1.3273559802368282
1783696686173176600,8.722176513671876,2.0568518657863137,1.2228966578528284,-1.2577633885726331
1783696686183139600,8.7321396484375,2.4172575415730475,1.8134812085792422,-1.1275205133736133
1783696686193102600,8.7421025390625,2.6873545854032037,2.2895690270319577,-1.1299534396089612
1783696686203065300,8.7520654296875,2.9705116018146276,2.753967284473777,-1.2175408299081028
1783696686213028400,8.7620283203125,3.2417817810773846,3.0123382346749303,-1.4373592004835605
1783696686222991400,8.771991455078124,3.5554286282986403,3.09504252910763,-1.7018481951735913
1783696686232954600,8.78195458984375,3.7958436505705118,3.393048155082762,-1.9148430033393202
1783696686242917600,8.791917724609375,3.8881180296421047,3.6943653898239135,-1.897524350400269
1783696686252880600,8.801880615234374,4.169684561991692,3.6714962631508707,-2.1883793739683925
1783696686262843600,8.81184375,4.3848540838479995,3.5354555153280494,-2.6114889048188923
1783696686272806400,8.821806396484375,4.478759278991818,3.418177043381333,-2.919901943039894
1783696686282769400,8.831769287109376,4.5930730559140445,3.3721330850869413,-3.183688488548994
1783696686292732400,8.841732421875,4.657371048301458,3.4351255478337404,-3.350212929701805
1783696686302695400,8.8516953125,4.61767967390418,3.531825634393096,-3.1512440165400504
1783696686312658400,8.861658447265626,4.557035527849197,3.3956066073939204,-2.3793368301101028
1783696686322621700,8.87162158203125,4.457798908549547,3.0055607033640146,-1.5039729224674403
1783696686332583400,8.88158349609375,4.595758349475264,2.664334359821677,-1.02066655093804
1783696686342546400,8.89154638671875,4.797318448174,2.1844465645641087,-0.7889483376018702
1783696686352509400,8.901509521484375,4.780628010135889,1.4822127799496054,-0.5942388354502618
1783696686362472400,8.911472412109376,4.185537380161882,0.5395993366375565,-0.44445933900177476
1783696686372435500,8.921435546875,2.9694074399650097,-0.6098387017726897,-0.33850729384198786
1783696686382398700,8.931398681640625,1.0817115328788756,-1.6520386007353662,-0.3751664609365165
1783696686392361500,8.941361572265626,-1.078576157462597,-2.235978014358878,-0.5708421777717769
1783696686402324500,8.951324462890625,-3.234028682732582,-2.365795065361261,-0.70491162552163
1783696686412287500,8.96128759765625,-4.915415250766277,-2.461852177841961,-0.7845413348145782
1783696686422250500,8.97125048828125,-6.118416829320788,-2.545367496396601,-1.0091991082452236
1783696686432213500,8.981213623046875,-6.775414757153391,-2.327456566877663,-1.2697038556046782
1783696686442176500,8.991176513671874,-6.685919779667258,-2.357051786935329,-0.9176638571031391
1783696686452139500,9.001139404296875,-5.824294766780734,-3.130063573606312,0.24897578373774884
1783696686462102500,9.0111025390625,-4.537085795754194,-3.9644890294000503,1.3838431527428328
1783696686472065500,9.0210654296875,-3.5297909136950967,-4.605675347855687,1.9955710292629896
1783696686482028500,9.031028564453125,-3.1929075677931307,-5.039976865458488,2.2957890705905855
1783696686491991600,9.040991455078125,-3.246116010889411,-5.229753587383032,2.399560410710424
1783696686501954600,9.05095458984375,-3.1810967184901235,-5.190294852697849,2.223810606703162
1783696686511917600,9.06091748046875,-3.0301714130073782,-4.98801520755291,1.6593305113092063
1783696686521880600,9.070880615234374,-3.011059300780296,-4.709386189959943,0.8072368584863842
1783696686531842600,9.080842529296875,-3.138881378573179,-4.443232915319502,0.025255437287688254
1783696686541805600,9.0908056640625,-3.1597850503921507,-3.896000891846418,-0.577851618142426
1783696686551768600,9.1007685546875,-2.685269011300802,-2.911249557767808,-0.97234894862324
1783696686561731600,9.110731689453125,-1.6353665751367807,-1.9381687877386806,-1.0861639822430909
1783696686571694600,9.120694580078125,-0.28418577493727204,-1.1068851371020079,-1.0006422923021019
1783696686581657300,9.1306572265625,1.0696721355170011,-0.3620733167380094,-0.7331647833205759
1783696686591620400,9.140620361328125,1.8938702118068933,0.17020576001405716,-0.4630913395617157
1783696686601583400,9.150583251953124,2.181315865322947,0.7106222582533955,-0.6650493515368551
1783696686611546600,9.160546630859375,2.3219687831163407,1.1702382498547435,-1.2474340099990366
1783696686621509600,9.170509521484375,2.466461425203085,1.3639923509776593,-1.8049036421090363
1783696686631472600,9.18047265625,2.6715567122906445,1.4795663570940494,-2.2214003306910395
1783696686641435600,9.190435546875,2.9410557902276513,1.477344004869461,-2.66705180208683
1783696686651398400,9.2003984375,3.1111686112612484,1.4429744100168347,-3.1221865566208957
1783696686661361400,9.210361328125,3.245959359022975,1.465495453904569,-3.3188737885862585
1783696686671324400,9.220324462890625,3.3740567466259,1.614806309928,-3.1891835788339375
1783696686681287400,9.230287353515624,3.3790544087827206,1.8749673584163187,-2.665448166282475
1783696686691250700,9.240250732421876,3.2656431336581706,2.146508171314001,-1.9016949140831827
1783696686701213700,9.250213623046875,3.1922832984149454,2.514732996419072,-1.0985184369035064
1783696686711176400,9.260176513671874,3.2498703949868677,2.9056860784217715,-0.40476138873323797
1783696686721139500,9.270139404296875,3.444179499644041,3.0709938372611996,0.1182120995350182
1783696686731101400,9.280101318359375,3.8955975717425346,3.0908412780255077,0.2956251605793834
1783696686741064400,9.290064453125,4.388648799955845,3.04203866867274,0.29682759517170487
1783696686751027700,9.30002783203125,4.613433122375607,2.8554408690452573,0.2743498789690435
1783696686760990700,9.30999072265625,4.5375236026495696,2.4901702175706624,0.2254663133345544
1783696686779049500,9.328049560546875,4.4818940698862075,1.9907225663185117,-0.19395590730533002
1783696686789012500,9.338012451171876,4.661530506068468,1.7162486225783824,-0.7609140832506119
1783696686798975500,9.3479755859375,4.7145717759042975,1.7875401271149516,-1.1272650773078203
1783696686808938500,9.3579384765625,4.299107645240426,1.83437318996042,-1.0384611508257686
1783696686818901500,9.367901611328126,3.351867711171508,1.6283265934973954,-0.5752237538568675
1783696686828863700,9.37786376953125,2.140778687751293,1.1987775311186908,0.16985928466394543
1783696686838826500,9.387826416015624,1.0252075553685427,0.553533753965795,1.0828576341740785
1783696686848789500,9.39778955078125,0.4688426696300506,0.018475567889213562,1.6046100562147796
1783696686858752500,9.40775244140625,0.0762310067653656,-0.5431470922470093,1.7915240821845828
1783696686868715500,9.417715576171876,-0.8222229768246412,-1.1256211094930768,1.8295273573644457
1783696686878678500,9.427678466796875,-2.1947020011186598,-1.5584391105398534,1.5606902504675089
1783696686888641800,9.437641845703125,-4.2974768291682,-1.9739853665292262,1.2971708314619959
1783696686898604800,9.447604736328126,-6.617250148066878,-2.3250383998200297,1.4993499388419091
1783696686908567600,9.457567626953125,-7.773906739553809,-2.4521385930791495,2.4833997005224226
1783696686918530800,9.46753076171875,-7.428575298780203,-2.6201295996531844,4.078463491365313
1783696686928493800,9.477493896484376,-5.80662116292417,-2.79008664560318,4.974207631474733
1783696686938456800,9.487456787109375,-3.130608055746555,-2.9356355187445877,4.512975436848402
1783696686948419800,9.497419921875,-0.6402654042184353,-3.6324893638864157,3.4310768569648262
1783696686958382800,9.5073828125,-0.16433306858837604,-4.847745151597261,2.4030123047299683
1783696686968345900,9.517345947265625,-1.9185954877406357,-5.391546908360719,1.1622567495815455
1783696686978308600,9.52730859375,-4.821503041359782,-4.727077037212252,-0.2309559237267822
1783696686988271600,9.537271728515625,-8.305558039796352,-3.921367388293147,-1.338072896823287
1783696686998234600,9.547234619140625,-11.046909588325024,-3.256669553607702,-1.8507465248733759
1783696687008198000,9.557197998046876,-12.002588849437236,-2.6342025486692786,-2.0060463921785354
1783696687018161000,9.567160888671875,-10.900295131778716,-1.8578148558244107,-1.987352213102579
1783696687028122600,9.57712255859375,-8.267716677179932,-1.3666235762640833,-1.7417090809188782
1783696687038085600,9.587085693359375,-4.710916760528088,-1.435284440036118,-1.2058332948490977
1783696687048048600,9.597048583984375,-1.1755810721874236,-1.4967989391848444,-0.7187706395260989
1783696687058011600,9.60701171875,1.1020423732459546,-1.2853729877710343,-0.3320701004013419
1783696687067975000,9.616974853515625,1.874884940829873,-0.7073267238393426,-0.3863885505661368
1783696687077938000,9.62693798828125,1.6694669976592063,0.10678513498306273,-0.5983078384548425
1783696687088523800,9.637523681640625,1.2098948451995848,0.9629694181203842,-0.596361672823131
1783696687098485800,9.64748583984375,1.0251315675228834,1.546158597898483,-0.28709684007838365
1783696687108448800,9.65744873046875,1.1060153685301541,2.084188785523176,-0.0285157542578876
1783696687118411800,9.667411865234374,1.563305547532439,2.5294620712563396,0.12953553064726292
1783696687128374800,9.677374755859375,2.285563006260991,2.671763048517704,0.31887071934938427
1783696687138337800,9.687337890625,3.1856974902838466,2.688388604626059,0.35289880728796125
1783696687148300500,9.697300537109374,4.20499260673821,2.7036104314163327,0.20379004970788955
1783696687158263800,9.707263916015625,5.201172220543026,2.6883807135805484,0.05148191156461834
1783696687168226800,9.717226806640625,6.200381995823979,2.753015975098312,0.03811827986165881
1783696687178189800,9.72718994140625,6.87489629112482,2.63026462469846,0.23897359129190443
1783696687188152800,9.73715283203125,7.156579143330454,2.4922049382686615,0.41580578370839355
1783696687198115800,9.74711572265625,7.223058571410179,2.5353645732983945,0.5637669786885381
1783696687208078800,9.757078857421876,7.073028753462434,2.5901588242813944,0.6127976977087557
1783696687218041600,9.76704150390625,6.770149383971095,2.5642186195999384,0.48324908838421105
1783696687228004600,9.777004638671874,6.462051987570524,2.5656077358707785,0.005959200665354728
1783696687237967600,9.786967529296875,6.431340622964501,2.4743384421885013,-0.6203991126231849
1783696687247931000,9.796930908203125,6.51771191547215,2.2370193401053546,-1.1842417868964374
1783696687257894000,9.806893798828124,6.252897195959091,1.8305568465426563,-1.5472599832691252
1783696687267857000,9.81685693359375,5.540643244850635,1.3675684558987617,-1.716074873446673
1783696687277820000,9.82681982421875,4.736661442637443,1.0792872283414006,-1.747168515368551
1783696687287782700,9.83678271484375,3.8311031800001856,0.9468521037951111,-1.578260393949598
1783696687297744600,9.84674462890625,2.584256614500284,0.8558619193151593,-0.8386407354012131
1783696687307708000,9.8567080078125,2.1408915004760027,0.35536914292424915,0.8443966685794293
1783696687317671000,9.8666708984375,1.924305682080984,-0.28583851058036086,2.051642606705427
1783696687327634000,9.876634033203125,1.4824620785355567,-0.98621526915133,1.849721419609338
1783696687337596700,9.8865966796875,0.8094663711041211,-1.2218538708016276,0.4179920417062938
1783696687347559700,9.8965595703125,-0.36647009039223194,-1.4610539643257856,-0.5498940822891891
1783696687357522700,9.906522705078125,-1.8672697896510362,-2.1114038324460385,-0.05898936458528042
