time,seconds_elapsed,z,y,x
1783696612657929700,0.0639296875,-0.009912158362567425,-0.3554108142852783,0.019375279545783997
1783696612667893800,0.073893798828125,0.000492798862978816,-0.18213297426700592,-0.015279697254300117
1783696612677856800,0.083856689453125,0.004679554142057896,0.040406886488199234,-0.04093046858906746
1783696612687819800,0.09381982421875,-0.005299861542880535,0.228096604347229,-0.0560455322265625
1783696612697782800,0.10378271484375,-0.014187096618115902,0.31069400906562805,-0.07206152379512787
1783696612707745500,0.11374560546875,-0.03778126463294029,0.3027184009552002,-0.09390682727098465
1783696612717708500,0.12370849609375,-0.07519681006669998,0.2574816644191742,-0.10762530565261841
1783696612727672600,0.133672607421875,-0.11073008924722672,0.2513461410999298,-0.10410423576831818
1783696612737635600,0.143635498046875,-0.12506376206874847,0.2718737721443176,-0.08017706871032715
1783696612747598600,0.1535986328125,-0.13180457055568695,0.290168821811676,-0.04597143828868866
1783696612757561600,0.1635615234375,-0.14179755747318268,0.2707708775997162,0.009687296114861965
1783696612767524600,0.173524658203125,-0.1566113531589508,0.21461434662342072,0.08436670154333115
1783696612777488000,0.18348779296875,-0.17429155111312866,0.12247457355260849,0.1642192006111145
1783696612787451600,0.19345166015625,-0.18169152736663818,0.04377200827002525,0.2581104338169098
1783696612797414700,0.20341455078125,-0.16672562062740326,0.010379963554441929,0.3849312365055084
1783696612807377400,0.21337744140625,-0.12489680200815201,0.03006806969642639,0.5405346155166626
1783696612817340400,0.22334033203125,-0.054357387125492096,0.12568673491477966,0.707275390625
1783696612827303400,0.233303466796875,0.021080834791064262,0.26646730303764343,0.8467184901237488
1783696612837266400,0.243266357421875,0.11420039087533951,0.39423325657844543,0.9438593983650208
1783696612847230500,0.25323046875,0.23152275383472443,0.4612724781036377,1.0132496356964111
1783696612857193500,0.263193359375,0.3522135019302368,0.41152673959732056,1.06754732131958
1783696612867156500,0.273156494140625,0.4564463794231415,0.2786955237388611,1.1518412828445435
1783696612877119500,0.283119384765625,0.5036069750785828,0.13676181435585022,1.2569093704223633
1783696612887082200,0.293082275390625,0.45717498660087585,-0.0020043423864990473,1.3354438543319702
1783696612897045200,0.303045166015625,0.3500639796257019,-0.20075365900993347,1.343145728111267
1783696612907009300,0.31300927734375,0.22422228753566742,-0.44782164692878723,1.2837101221084595
1783696612916972300,0.32297216796875,0.09960871934890747,-0.7765740156173706,1.1950253248214722
1783696612926935600,0.332935546875,0.0027306023985147476,-1.1125237941741943,1.1436424255371094
1783696612936898600,0.342898681640625,-0.05201306939125061,-1.1745256185531616,1.1985187530517578
1783696612946861600,0.352861572265625,-0.07479122281074524,-0.824771523475647,1.3135135173797607
1783696612956824600,0.362824462890625,-0.007998879998922348,-0.2898372411727905,1.3867957592010498
1783696612966788600,0.37278857421875,0.2187543511390686,0.16713833808898926,1.3812904357910156
1783696612976751400,0.38275146484375,0.5339732766151428,0.38437744975090027,1.2995768785476685
1783696612986714400,0.39271435546875,0.8028716444969177,0.4224030673503876,1.2151265144348145
1783696612996677400,0.402677490234375,0.9127235412597656,0.43691304326057434,1.157707929611206
1783696613006640400,0.412640380859375,0.8485208749771118,0.511766254901886,1.1075880527496338
1783696613016603400,0.422603271484375,0.6503185629844666,0.5708865523338318,0.9998065233230591
1783696613026567400,0.4325673828125,0.39471518993377686,0.5899893045425415,0.8323493599891663
1783696613036530400,0.442530517578125,0.12593086063861847,0.5940991044044495,0.593350350856781
1783696613046493400,0.452493408203125,-0.13300031423568726,0.9415780305862427,0.32424983382225037
1783696613056456400,0.46245654296875,-0.20804819464683533,0.8098849654197693,-0.11303830146789551
1783696613066419500,0.47241943359375,-0.2596631944179535,0.39481768012046814,-0.600622832775116
1783696613076382500,0.482382568359375,-0.3658444881439209,0.0758519321680069,-0.9630076885223389
1783696613086346500,0.492346435546875,-0.48250263929367065,-0.16905204951763153,-1.186396598815918
1783696613096309500,0.5023095703125,-0.6186271905899048,-0.3687947392463684,-1.3186943531036377
1783696613106272500,0.5122724609375,-0.8271916508674622,-0.5061290860176086,-1.3703503608703613
1783696613116235500,0.522235595703125,-1.100595235824585,-0.5549501180648804,-1.3713465929031372
1783696613126198500,0.532198486328125,-1.411539077758789,-0.6020227670669556,-1.316117525100708
1783696613136161300,0.542161376953125,-1.714497447013855,-0.6870444416999817,-1.1389418840408325
1783696613146125600,0.55212548828125,-1.9593044519424438,-0.7496352791786194,-0.8148133158683777
1783696613156088300,0.56208837890625,-2.1311278343200684,-0.7541636824607849,-0.3755560517311096
1783696613166051300,0.57205126953125,-2.1829183101654053,-0.7087793946266174,0.09471558034420013
1783696613176014300,0.582014404296875,-2.1005442142486572,-0.6742834448814392,0.5301876664161682
1783696613185977300,0.591977294921875,-1.9338957071304321,-0.7466799020767212,0.8805413842201233
1783696613195940600,0.601940673828125,-1.7347887754440308,-0.8559107780456543,1.1136012077331543
1783696613205904400,0.611904296875,-1.529503345489502,-0.8596028685569763,1.2096832990646362
1783696613215867400,0.621867431640625,-1.3512380123138428,-0.7627069354057312,1.1588175296783447
1783696613225830700,0.63183056640625,-1.232361078262329,-0.5879854559898376,0.9807547330856323
1783696613235793400,0.64179345703125,-1.1767981052398682,-0.45817121863365173,0.6864557266235352
1783696613245756400,0.65175634765625,-1.181833028793335,-0.3571919798851013,0.3361473083496094
1783696613255719400,0.661719482421875,-1.2375853061676025,-0.23754148185253143,-0.016519159078598022
1783696613265683500,0.671683349609375,-1.290251612663269,-0.15967369079589844,-0.3305695652961731
1783696613275646500,0.681646484375,-1.3009780645370483,-0.13085588812828064,-0.5835643410682678
1783696613285609500,0.691609375,-1.2945406436920166,-0.09600455313920975,-0.74037766456604
1783696613295572500,0.701572509765625,-1.3290021419525146,-0.11729199439287186,-0.783642053604126
1783696613305535500,0.711535400390625,-1.3842111825942993,-0.10823635011911392,-0.7121520638465881
1783696613315498200,0.721498291015625,-1.3848439455032349,0.1360170692205429,-0.5325894951820374
1783696613325462300,0.731462158203125,-1.2088375091552734,0.567192554473877,-0.2635475993156433
1783696613335425300,0.74142529296875,-0.86065673828125,0.9475553631782532,0.06175858527421951
1783696613345388300,0.75138818359375,-0.43574661016464233,1.0029385089874268,0.3604542016983032
1783696613355351600,0.7613515625,-0.09757760167121887,0.7037635445594788,0.6139250993728638
1783696613365314600,0.771314453125,0.06423444300889969,0.17133884131908417,0.821418046951294
1783696613375277600,0.781277587890625,0.06128579005599022,-0.47977688908576965,0.9093766212463379
1783696613385241600,0.79124169921875,-0.03166772425174713,-1.1650642156600952,0.8137415647506714
1783696613395204600,0.80120458984375,-0.13027818500995636,-1.6997352838516235,0.5609875917434692
1783696613405167400,0.81116748046875,-0.21739386022090912,-1.8857039213180542,0.22518952190876007
1783696613415130400,0.82113037109375,-0.2495078444480896,-1.5955383777618408,-0.10741505026817322
1783696613425093400,0.83109326171875,-0.13806739449501038,-0.865135133266449,-0.3016589879989624
1783696613435056400,0.841056396484375,0.12886497378349304,0.07879696786403656,-0.25016358494758606
1783696613445020400,0.8510205078125,0.4777812957763672,0.6220200061798096,-0.007744673639535904
1783696613454983400,0.8609833984375,0.7731249928474426,0.543835461139679,0.23161198198795319
1783696613464946400,0.870946533203125,0.9245548844337463,-0.10930110514163971,0.31336721777915955
1783696613474909400,0.880909423828125,0.9203420281410217,-0.8932552933692932,0.21803830564022064
1783696613484872400,0.89087255859375,0.8135247826576233,-1.3295055627822876,-0.007676910609006882
1783696613494835500,0.90083544921875,0.6803246736526489,-1.35353422164917,-0.2868829667568207
1783696613504799500,0.910799560546875,0.560607373714447,-1.1276274919509888,-0.5797211527824402
1783696613514762500,0.920762451171875,0.45698508620262146,-0.923471212387085,-0.8871383666992188
1783696613524725500,0.9307255859375,0.3853956162929535,-0.7643469572067261,-1.107503890991211
1783696613534688500,0.9406884765625,0.35060250759124756,-0.539522647857666,-1.164347767829895
1783696613544651500,0.950651611328125,0.34569618105888367,-0.24982349574565887,-1.0641053915023804
1783696613554614500,0.960614501953125,0.35771557688713074,-0.08562175929546356,-0.8536256551742554
1783696613564578600,0.97057861328125,0.3723737299442291,-0.15067432820796967,-0.6118019819259644
1783696613574541300,0.980541259765625,0.3930851221084595,-0.37575963139533997,-0.4064400792121887
1783696613584504300,0.99050439453125,0.45388317108154297,-0.6728134751319885,-0.3001343905925751
1783696613594467300,1.00046728515625,0.5586008429527283,-0.9629494547843933,-0.31255456805229187
1783696613604430300,1.010430419921875,0.6560955047607422,-1.1662962436676025,-0.4597712457180023
1783696613614393600,1.0203935546875,0.7302730083465576,-1.134801983833313,-0.7267715334892273
1783696613624357400,1.030357421875,0.7303535342216492,-0.7856220006942749,-1.0258333683013916
1783696613634320400,1.0403203125,0.6549394726753235,-0.19447217881679535,-1.2310951948165894
1783696613644283600,1.05028369140625,0.5219324827194214,0.47318869829177856,-1.2704672813415527
1783696613654246400,1.060246337890625,0.3709315359592438,1.032283902168274,-1.1336904764175415
1783696613664209400,1.07020947265625,0.22771817445755005,1.370110273361206,-0.858492374420166
1783696613674172400,1.08017236328125,0.10675419867038727,1.417624592781067,-0.530939519405365
1783696613684136400,1.090136474609375,0.02334515005350113,1.129777431488037,-0.24055640399456024
1783696613694099500,1.100099365234375,0.005191178992390633,0.6465859413146973,-0.02703506499528885
1783696613704062500,1.1100625,0.030902031809091568,0.176957905292511,0.13017050921916962
1783696613714025500,1.120025390625,0.052661921828985214,-0.04691380262374878,0.2521592676639557
1783696613723988500,1.129988525390625,0.051630016416311264,-0.009240293875336647,0.343646764755249
1783696613733951200,1.139951171875,0.02676328457891941,0.24227210879325867,0.4175742566585541
1783696613743914200,1.149914306640625,-0.013782508671283722,0.5845483541488647,0.46819549798965454
1783696613753878300,1.159878173828125,-0.055977366864681244,0.8291796445846558,0.4812449812889099
1783696613763841300,1.16984130859375,-0.07856092602014542,0.9115357398986816,0.4617595374584198
1783696613773804500,1.179804443359375,-0.10371661186218262,0.8000417351722717,0.43196675181388855
1783696613783767600,1.189767578125,-0.13287287950515747,0.544512152671814,0.42700430750846863
1783696613793730600,1.19973046875,-0.15361197292804718,0.2727906107902527,0.45574888586997986
1783696613803693600,1.209693603515625,-0.17147114872932434,0.10600249469280243,0.49834129214286804
1783696613813657900,1.219657958984375,-0.16894221305847168,0.07328076660633087,0.5346952676773071
1783696613823620900,1.229620849609375,-0.15282665193080902,0.16451725363731384,0.5496219396591187
1783696613833583900,1.239583984375,-0.10542372614145279,0.29682496190071106,0.5440218448638916
1783696613843547000,1.249546875,0.012775084935128689,0.39436617493629456,0.5456599593162537
1783696613853510000,1.259510009765625,0.17492884397506714,0.4138469099998474,0.5864172577857971
1783696613863473000,1.269472900390625,0.30482637882232666,0.23785243928432465,0.6252128481864929
1783696613873437000,1.27943701171875,0.3508942723274231,-0.11790938675403595,0.5615409016609192
1783696613883399700,1.289399658203125,0.29947003722190857,-0.569753110408783,0.3295629918575287
1783696613893362700,1.29936279296875,0.20426282286643982,-0.915762186050415,0.04547429829835892
1783696613903325700,1.30932568359375,0.12668849527835846,-0.9455876350402832,-0.11456438899040222
1783696613913288700,1.319288818359375,0.07622824609279633,-0.6605636477470398,-0.07709451019763947
1783696613923252000,1.329251953125,0.014377648942172527,-0.36646169424057007,0.06854122877120972
1783696613933215700,1.3392158203125,-0.08063674718141556,-0.16585324704647064,0.23570600152015686
1783696613943179000,1.349178955078125,-0.1441689282655716,-0.11354482918977737,0.3528861701488495
1783696613953142000,1.35914208984375,-0.1118549332022667,-0.28628066182136536,0.3628639578819275
1783696613963104800,1.369104736328125,-0.012816197238862514,-0.6006948947906494,0.30986666679382324
1783696613973067800,1.37906787109375,0.10581005364656448,-0.8600806593894958,0.25608786940574646
1783696613983030800,1.38903076171875,0.2083773910999298,-1.0250420570373535,0.1849203109741211
1783696613992994800,1.398994873046875,0.2720852792263031,-1.0880194902420044,0.04151947423815727
1783696614002957800,1.408957763671875,0.2924754023551941,-1.0554550886154175,-0.17366109788417816
1783696614012920800,1.4189208984375,0.2749701738357544,-0.9810070395469666,-0.4705559015274048
1783696614022883800,1.4288837890625,0.24133199453353882,-0.9167565107345581,-0.8350160121917725
1783696614032846800,1.438846923828125,0.2020341157913208,-0.8646757006645203,-1.215600848197937
1783696614042809600,1.4488095703125,0.1553354263305664,-0.7664993405342102,-1.5848311185836792
1783696614052773600,1.458773681640625,0.10998765379190445,-0.6022760272026062,-1.9129163026809692
1783696614062736600,1.468736572265625,0.060495395213365555,-0.4192351996898651,-2.1987791061401367
1783696614072700000,1.478699951171875,-0.009265045635402203,-0.3051067590713501,-2.422313928604126
1783696614082663000,1.488662841796875,-0.08898495882749557,-0.30947768688201904,-2.5453147888183594
1783696614092626000,1.4986259765625,-0.14615024626255035,-0.35432425141334534,-2.4777374267578125
1783696614102589000,1.5085888671875,-0.16503584384918213,-0.3980104625225067,-2.1956262588500977
1783696614112552000,1.518552001953125,-0.14613406360149384,-0.42454782128334045,-1.7362849712371826
1783696614122516000,1.528515869140625,-0.15905827283859253,-0.3128283619880676,-1.189387321472168
1783696614132478700,1.538478759765625,-0.2348204106092453,-0.07378407567739487,-0.6693031787872314
1783696614142441700,1.548441650390625,-0.3148283064365387,0.16202953457832336,-0.2802317142486572
1783696614152404700,1.55840478515625,-0.3482499122619629,0.3573790490627289,-0.04287697374820709
1783696614162367700,1.56836767578125,-0.34205710887908936,0.5477587580680847,0.11900247633457184
1783696614172330800,1.578330810546875,-0.31879839301109314,0.6749483942985535,0.26969531178474426
1783696614182294800,1.588294677734375,-0.2773100733757019,0.6644489765167236,0.40867069363594055
1783696614192257800,1.5982578125,-0.20965780317783356,0.4815308153629303,0.5069498419761658
1783696614202220800,1.608220703125,-0.15147565305233002,0.1898903250694275,0.539021372795105
1783696614212183800,1.618183837890625,-0.10881928354501724,-0.038256824016571045,0.49781298637390137
1783696614222146800,1.628146728515625,-0.05677306652069092,-0.12719081342220306,0.3890451490879059
1783696614232109800,1.63810986328125,-0.003213703166693449,-0.06111245974898338,0.2923215329647064
1783696614242073900,1.648073974609375,0.025923121720552444,0.11922968178987503,0.2602729797363281
1783696614252036900,1.658036865234375,0.0053249020129442215,0.2684268653392792,0.29259973764419556
1783696614261999900,1.667999755859375,-0.06521521508693695,0.2910092771053314,0.3587700128555298
1783696614271963000,1.677962890625,-0.15874649584293365,0.20899668335914612,0.4446452260017395
1783696614281926000,1.68792578125,-0.22541822493076324,0.08309120684862137,0.534800112247467
1783696614291888600,1.697888671875,-0.24518632888793945,-0.06100045517086983,0.5797505378723145
1783696614301852700,1.707852783203125,-0.2439487725496292,-0.1230878159403801,0.5859407782554626
1783696614311815700,1.717815673828125,-0.2461962103843689,-0.19698308408260345,0.5629590153694153
1783696614321778700,1.72777880859375,-0.20027832686901093,-0.08054202795028687,0.5969423651695251
1783696614331741700,1.73774169921875,-0.13768444955348969,0.31460636854171753,0.6965714693069458
1783696614341705000,1.747705078125,-0.105648472905159,0.8338468074798584,0.777606725692749
1783696614351668000,1.75766796875,-0.08467954397201538,1.1851470470428467,0.7604562044143677
1783696614361631000,1.767630859375,-0.060648683458566666,1.2377808094024658,0.6332535147666931
1783696614371595000,1.777594970703125,-0.049743834882974625,0.8882619142532349,0.40492501854896545
1783696614381557800,1.787557861328125,-0.03533701226115227,0.2278815358877182,0.16406796872615814
1783696614391520800,1.797520751953125,-0.02204650267958641,-0.41326916217803955,0.05139894038438797
1783696614401483800,1.80748388671875,-0.032475102692842484,-0.7570029497146606,0.17322516441345215
1783696614411446800,1.81744677734375,-0.09133736044168472,-0.7594948410987854,0.4765666723251343
1783696614421409800,1.827409912109375,-0.19745531678199768,-0.38615480065345764,0.8070493936538696
1783696614431373800,1.837373779296875,-0.2662498354911804,0.08605216443538666,1.0123815536499023
1783696614441336800,1.8473369140625,-0.2295600175857544,0.3761533200740814,1.0510427951812744
1783696614451299800,1.8572998046875,-0.11647340655326843,0.44423994421958923,0.942433774471283
1783696614461262600,1.8672626953125,0.008925114758312702,0.33191120624542236,0.7117786407470703
1783696614471225900,1.877225830078125,0.12566611170768738,0.11062462627887726,0.3753241300582886
1783696614481188900,1.88718896484375,0.25083494186401367,-0.043945230543613434,0.009388256818056107
1783696614491152600,1.897152587890625,0.3794997036457062,-0.018643604591488838,-0.3011837303638458
1783696614501116000,1.907115966796875,0.49533313512802124,0.11680693924427032,-0.5496483445167542
1783696614511079000,1.917078857421875,0.5524095296859741,0.22212056815624237,-0.7637380361557007
1783696614521042000,1.9270419921875,0.493175208568573,0.15741820633411407,-0.9838325381278992
1783696614531005000,1.9370048828125,0.3438994288444519,-0.10035476088523865,-1.202096700668335
1783696614540967700,1.9469677734375,0.16419047117233276,-0.4927161633968353,-1.377720594406128
1783696614550930700,1.9569306640625,-0.0038991980254650116,-0.8915330171585083,-1.481573462486267
1783696614560894700,1.966894775390625,-0.15084338188171387,-1.2534501552581787,-1.497983694076538
1783696614570857700,1.976857666015625,-0.22992995381355286,-1.474456548690796,-1.447851300239563
1783696614580820700,1.98682080078125,-0.24198703467845917,-1.477818250656128,-1.349543571472168
1783696614590783700,1.99678369140625,-0.20402367413043976,-1.2678265571594238,-1.2014957666397095
1783696614600746800,2.006746826171875,-0.14652377367019653,-0.8889895081520081,-1.0306446552276611
1783696614610710000,2.0167099609375,-0.10594546049833298,-0.4160265028476715,-0.8386797904968262
1783696614620673800,2.026673828125,-0.08717679232358932,0.07836002856492996,-0.6121296286582947
1783696614630637000,2.036636962890625,-0.10001056641340256,0.4894314706325531,-0.37466827034950256
1783696614640599800,2.046599853515625,-0.13530899584293365,0.7780272364616394,-0.15930218994617462
1783696614650562800,2.056562744140625,-0.17964769899845123,0.9182162880897522,0.017920255661010742
1783696614660525800,2.06652587890625,-0.21573543548583984,0.9258140325546265,0.17230892181396484
1783696614670488800,2.07648876953125,-0.2386343628168106,0.824528694152832,0.28698569536209106
1783696614680451800,2.086451904296875,-0.24056318402290344,0.6373679637908936,0.3441174328327179
1783696614690415900,2.096415771484375,-0.217546284198761,0.434410035610199,0.35736721754074097
1783696614700379000,2.10637890625,-0.1664217710494995,0.2888806462287903,0.3717096447944641
1783696614710342000,2.116341796875,-0.07750415056943893,0.2653484046459198,0.37920433282852173
1783696614720304600,2.1263046875,0.025314727798104286,0.3330002427101135,0.3955579698085785
1783696614730267600,2.136267578125,0.10797019302845001,0.4430452585220337,0.44410765171051025
1783696614740231000,2.14623095703125,0.17031055688858032,0.5717312693595886,0.5377823114395142
1783696614750194700,2.156194580078125,0.19741275906562805,0.6515464782714844,0.650921106338501
1783696614760157700,2.16615771484375,0.1999247670173645,0.6588545441627502,0.763788640499115
1783696614770121000,2.176120849609375,0.19250839948654175,0.5721097588539124,0.8540226817131042
1783696614780084000,2.186083984375,0.18344897031784058,0.3642258048057556,0.9193013310432434
1783696614790047000,2.196046875,0.19192102551460266,0.118757463991642,0.9649718999862671
1783696614800009700,2.206009765625,0.21733573079109192,-0.011803836561739445,1.0389066934585571
1783696614809973000,2.215972900390625,0.23781144618988037,-0.0317317396402359,1.1206499338150024
1783696614819936000,2.22593603515625,0.2338448315858841,-0.0005503998836502433,1.15670907497406
1783696614829899000,2.23589892578125,0.22939202189445496,0.06646911054849625,1.1248743534088135
1783696614839862000,2.245862060546875,0.22584037482738495,0.18270155787467957,1.0530059337615967
1783696614849825000,2.255824951171875,0.22276362776756287,0.3180719017982483,0.9566971659660339
1783696614859788000,2.2657880859375,0.21185177564620972,0.3093467056751251,0.8124697804450989
1783696614869751000,2.2757509765625,0.15799041092395782,0.004445650614798069,0.5945656895637512
1783696614879715000,2.285715087890625,0.07089744508266449,-0.4994381368160248,0.3434877097606659
1783696614889678000,2.295677978515625,-0.025536417961120605,-0.9428064823150635,0.1412334144115448
1783696614899641000,2.30564111328125,-0.09569621831178665,-0.9919415712356567,0.120394267141819
1783696614909604000,2.31560400390625,-0.1760839968919754,-0.5783052444458008,0.3346107006072998
1783696614919567000,2.325567138671875,-0.31197109818458557,0.011437542736530304,0.6952948570251465
1783696614929530000,2.335530029296875,-0.397567480802536,0.5960572957992554,1.088651418685913
1783696614939494100,2.345494140625,-0.31166592240333557,0.9409322142601013,1.3372966051101685
1783696614949457000,2.355456787109375,-0.15330718457698822,0.9433344006538391,1.2900606393814087
1783696614959420000,2.365419921875,-0.03145894780755043,0.607539176940918,0.9528924822807312
1783696614969383000,2.3753828125,0.025679441168904305,0.13884839415550232,0.4655749797821045
1783696614979346000,2.385345947265625,0.04310192912817001,-0.19384132325649261,-0.014639027416706085
1783696614989309200,2.39530908203125,0.08509491384029388,-0.2500167191028595,-0.36560744047164917
1783696614999273000,2.40527294921875,0.15541522204875946,-0.1431790590286255,-0.566962718963623
1783696615009236200,2.415236328125,0.23717425763607025,-0.04955776408314705,-0.6679610013961792
1783696615019199200,2.42519921875,0.281607449054718,-0.06454064697027206,-0.6957876682281494
1783696615029162000,2.435161865234375,0.27201953530311584,-0.12537311017513275,-0.653827965259552
1783696615039125000,2.445125,0.2027468979358673,-0.18023593723773956,-0.5731118321418762
1783696615049088000,2.455087890625,0.07855331152677536,-0.25567930936813354,-0.515358030796051
1783696615059051000,2.465051025390625,-0.07429526746273041,-0.37098971009254456,-0.5160927772521973
1783696615069015000,2.47501513671875,-0.23458532989025116,-0.5215150713920593,-0.611291766166687
1783696615078978000,2.48497802734375,-0.35137051343917847,-0.7238094210624695,-0.7975797057151794
1783696615088941000,2.494941162109375,-0.3774700164794922,-0.8875206112861633,-1.03230619430542
1783696615098904000,2.504904052734375,-0.30499982833862305,-0.917088508605957,-1.2567667961120605
1783696615108866800,2.51486669921875,-0.18093858659267426,-0.7887201905250549,-1.403037190437317
1783696615118830000,2.524830078125,-0.07487739622592926,-0.5365731716156006,-1.3950687646865845
1783696615128793900,2.5347939453125,-0.03523145616054535,-0.20576328039169312,-1.202689528465271
1783696615138756900,2.5447568359375,-0.06764328479766846,0.09132848680019379,-0.8734875917434692
1783696615148720000,2.55472021484375,-0.154386967420578,0.24646879732608795,-0.49466919898986816
1783696615158683100,2.56468310546875,-0.24607250094413757,0.24071523547172546,-0.12896336615085602
1783696615168646100,2.574646240234375,-0.30701279640197754,0.1265503168106079,0.18944096565246582
1783696615178609200,2.584609130859375,-0.3386406898498535,-0.015341244637966156,0.4412902593612671
1783696615188572000,2.594572021484375,-0.332811564207077,-0.09533087909221649,0.6171725988388062
1783696615198536000,2.604535888671875,-0.26913323998451233,-0.049539681524038315,0.7041946053504944
1783696615208499000,2.6144990234375,-0.1649535894393921,0.06317088752985,0.7146733403205872
1783696615218462000,2.6244619140625,-0.08489805459976196,0.2379230111837387,0.6740929484367371
1783696615228425000,2.634425048828125,-0.03980407863855362,0.4228167235851288,0.6110553741455078
1783696615238388000,2.644387939453125,-0.01120814774185419,0.6184352040290833,0.5495821833610535
1783696615248351000,2.65435107421875,-0.005920708179473877,0.7303662300109863,0.5049697160720825
1783696615258315000,2.66431494140625,-0.038346052169799805,0.7175225019454956,0.4979689121246338
1783696615268278000,2.674278076171875,-0.10369256883859634,0.5829010009765625,0.5473297834396362
1783696615278241000,2.684240966796875,-0.1701783388853073,0.2641791105270386,0.5863902568817139
1783696615288204000,2.6942041015625,-0.21708112955093384,-0.17265121638774872,0.6049242615699768
1783696615298167000,2.7041669921875,-0.25720274448394775,-0.5086352825164795,0.6638191938400269
1783696615308130000,2.714130126953125,-0.2752094566822052,-0.57024747133255,0.7965530157089233
1783696615318093000,2.724093017578125,-0.2781529426574707,-0.2957596480846405,0.9783534407615662
1783696615328057000,2.73405712890625,-0.26658496260643005,0.10308732092380524,1.1062451601028442
1783696615338020000,2.74402001953125,-0.22882796823978424,0.4292016923427582,1.0850520133972168
1783696615347983000,2.753983154296875,-0.17683134973049164,0.5482588410377502,0.8837689161300659
1783696615357945900,2.76394580078125,-0.12866565585136414,0.4148977994918823,0.5541631579399109
1783696615367908900,2.773908935546875,-0.10020819306373596,-0.039016157388687134,0.19578823447227478
1783696615377872000,2.783871826171875,-0.07213317602872849,-0.5927874445915222,-0.02786039374768734
1783696615387836000,2.7938359375,-0.03721940517425537,-0.9282333850860596,-0.008629973977804184
1783696615397799000,2.803798828125,-0.010515770874917507,-0.8391918540000916,0.26335155963897705
1783696615407762200,2.81376220703125,-0.06058959290385246,-0.32077932357788086,0.6263348460197449
1783696615417725200,2.82372509765625,-0.09797784686088562,0.30204159021377563,0.8863769173622131
1783696615427688200,2.833688232421875,-0.054736897349357605,0.7095752954483032,0.9241725206375122
1783696615437651000,2.84365087890625,0.014455689117312431,0.7200382351875305,0.7308299541473389
1783696615447615200,2.853615234375,0.051175352185964584,0.4428572356700897,0.4043211042881012
1783696615457578000,2.863577880859375,0.03282078355550766,0.09825097769498825,0.0718575045466423
1783696615467541000,2.873541015625,0.006931929383426905,-0.07793896645307541,-0.1683090329170227
1783696615477504000,2.88350390625,0.008006826043128967,-0.11325821280479431,-0.29518160223960876
1783696615487467000,2.893467041015625,0.014602410607039928,-0.07672390341758728,-0.3472522497177124
1783696615497430000,2.903429931640625,0.015313055366277695,0.00973387248814106,-0.40093594789505005
1783696615507393000,2.91339306640625,0.022461246699094772,0.1790030598640442,-0.49245309829711914
1783696615517357000,2.923357177734375,0.031930018216371536,0.38980627059936523,-0.6188161373138428
1783696615527320000,2.933320068359375,0.03014676831662655,0.5838630795478821,-0.7695901989936829
1783696615537282800,2.94328271484375,0.020287709310650826,0.7036527395248413,-0.9677891135215759
1783696615547246000,2.95324609375,-0.019483137875795364,0.6686015725135803,-1.2001928091049194
1783696615557209000,2.963208984375,-0.104420006275177,0.47276410460472107,-1.430769920349121
1783696615567172000,2.973172119140625,-0.21101196110248566,0.19710350036621094,-1.621464490890503
1783696615577136000,2.98313623046875,-0.28671762347221375,-0.14195764064788818,-1.733687162399292
1783696615587099100,2.99309912109375,-0.2976698875427246,-0.4332917332649231,-1.708712100982666
1783696615597062100,3.003062255859375,-0.2681686282157898,-0.5825911164283752,-1.538284182548523
1783696615607025200,3.013025146484375,-0.21628519892692566,-0.5446873903274536,-1.244791030883789
1783696615616988000,3.02298779296875,-0.1665608286857605,-0.36373189091682434,-0.8737148642539978
1783696615626951000,3.032950927734375,-0.12753407657146454,-0.14154064655303955,-0.47743967175483704
1783696615636914000,3.042913818359375,-0.11843892931938171,0.06437782198190689,-0.12054572999477386
1783696615646878000,3.0528779296875,-0.12493091076612473,0.20423291623592377,0.14449818432331085
1783696615656841000,3.062841064453125,-0.11182573437690735,0.2752143442630768,0.323504775762558
1783696615666804000,3.072803955078125,-0.07355105131864548,0.3010464906692505,0.4467063248157501
1783696615676767200,3.082767333984375,-0.0027192081324756145,0.3025659918785095,0.5450505018234253
1783696615686730200,3.092730224609375,0.09460628032684326,0.32974863052368164,0.6571578979492188
1783696615696693000,3.10269287109375,0.20218518376350403,0.41171911358833313,0.7650891542434692
1783696615706657000,3.112656982421875,0.30942803621292114,0.5397028923034668,0.847957968711853
1783696615716620000,3.1226201171875,0.38694819808006287,0.665184497833252,0.8869522213935852
1783696615726583000,3.1325830078125,0.4193868339061737,0.7146623134613037,0.883898138999939
1783696615736546000,3.142546142578125,0.4024849832057953,0.6527645587921143,0.8509458899497986
1783696615746509000,3.152509033203125,0.3400847017765045,0.5422518849372864,0.8240029811859131
1783696615756472000,3.16247216796875,0.23615248501300812,0.4116145372390747,0.8418592214584351
1783696615766436000,3.17243603515625,0.10638941824436188,0.28205281496047974,0.9121531248092651
1783696615776399000,3.182399169921875,-0.000745922967325896,0.12567615509033203,0.981731116771698
1783696615786361900,3.19236181640625,-0.050810687243938446,-0.006989475805312395,1.0205857753753662
1783696615796324900,3.202324951171875,-0.035972073674201965,-0.08784924447536469,1.0317046642303467
1783696615806288100,3.2122880859375,0.019170541316270828,-0.21615102887153625,0.9873563051223755
1783696615816252000,3.222251953125,0.11534718424081802,-0.41231444478034973,0.8945044875144958
1783696615826215000,3.23221484375,0.20628614723682404,-0.5728588700294495,0.7773741483688354
1783696615836179000,3.242178955078125,0.27103546261787415,-0.6491379141807556,0.6383698582649231
1783696615846142000,3.252141845703125,0.2673032879829407,-0.6069880723953247,0.471949964761734
1783696615856105200,3.262105224609375,0.15555424988269806,-0.43363386392593384,0.2824605703353882
1783696615866068200,3.272068115234375,-0.04448962211608887,-0.13128173351287842,0.11761435121297836
1783696615876031000,3.282031005859375,-0.2814299464225769,0.30213040113449097,0.02330739051103592
1783696615885994000,3.291993896484375,-0.498479425907135,0.8069554567337036,-0.01056775264441967
1783696615895957000,3.30195703125,-0.5523150563240051,1.214659333229065,-0.051787231117486954
1783696615905921000,3.311921142578125,-0.38745126128196716,1.321789264678955,-0.14480052888393402
1783696615915884000,3.321884033203125,-0.06489146500825882,1.1880971193313599,-0.22325988113880157
1783696615925847000,3.331846923828125,0.2890370190143585,0.9436282515525818,-0.24189694225788116
1783696615935810000,3.34181005859375,0.5513883233070374,0.5714049339294434,-0.2585464119911194
1783696615945773000,3.35177294921875,0.721015989780426,0.21840104460716248,-0.3244660496711731
1783696615955735800,3.36173583984375,0.7624109387397766,-0.05167002975940704,-0.46373897790908813
1783696615965699800,3.371699951171875,0.6890760064125061,-0.30403250455856323,-0.6721228361129761
1783696615975662800,3.381662841796875,0.5335684418678284,-0.5253413915634155,-0.8516843318939209
1783696615985625900,3.3916259765625,0.36856722831726074,-0.6613346338272095,-0.924074649810791
1783696615995589000,3.401589111328125,0.25886836647987366,-0.5798804759979248,-0.8592356443405151
1783696616005552000,3.41155224609375,0.2279336303472519,-0.2850850522518158,-0.7039328217506409
1783696616015515100,3.42151513671875,0.2927161455154419,0.06042562797665596,-0.5421218872070312
1783696616025479200,3.431479248046875,0.3689688444137573,0.2945758104324341,-0.4495949149131775
1783696616035442200,3.441442138671875,0.3721347749233246,0.3576166033744812,-0.48778554797172546
1783696616045405000,3.451405029296875,0.30339619517326355,0.2243616133928299,-0.6795459389686584
1783696616055368000,3.461367919921875,0.20594094693660736,-0.01380050927400589,-0.9490947723388672
1783696616065331000,3.4713310546875,0.07855075597763062,-0.1740594208240509,-1.178143858909607
1783696616075294000,3.4812939453125,-0.05738595128059387,-0.1676223874092102,-1.272545337677002
1783696616085257000,3.491257080078125,-0.17571154236793518,-0.0017884067492559552,-1.2035154104232788
1783696616095221000,3.501220947265625,-0.24699082970619202,0.25881028175354004,-1.0097790956497192
1783696616105184000,3.51118408203125,-0.27847525477409363,0.6082494854927063,-0.7430853843688965
1783696616115147000,3.52114697265625,-0.2899845242500305,0.9435558915138245,-0.45853477716445923
1783696616125110000,3.531110107421875,-0.29585281014442444,1.1961992979049683,-0.19752450287342072
1783696616135073000,3.541072998046875,-0.30155330896377563,1.3259048461914062,0.017217351123690605
1783696616145036000,3.5510361328125,-0.3022153675556183,1.3058208227157593,0.1574985682964325
1783696616154999000,3.5609990234375,-0.2933403551578522,1.1224316358566284,0.2214345633983612
1783696616164963000,3.570963134765625,-0.27238741517066956,0.7868342995643616,0.2524651885032654
1783696616174926000,3.580926025390625,-0.22206011414527893,0.480929434299469,0.3309256434440613
1783696616184889000,3.59088916015625,-0.15455830097198486,0.35057249665260315,0.46709147095680237
1783696616194852000,3.60085205078125,-0.06436185538768768,0.3948529362678528,0.6369051933288574
1783696616204814800,3.61081494140625,0.03743907809257507,0.5231736302375793,0.7958695292472839
1783696616214777900,3.62077783203125,0.13782614469528198,0.6547022461891174,0.9252814054489136
1783696616224740900,3.630740966796875,0.2519873380661011,0.7235239148139954,1.0207009315490723
1783696616234705000,3.640704833984375,0.34814998507499695,0.6605202555656433,1.0588939189910889
1783696616244668000,3.65066796875,0.38515326380729675,0.39915522933006287,1.0426150560379028
1783696616254631200,3.660631103515625,0.37709999084472656,0.047769755125045776,1.0009911060333252
1783696616264594200,3.67059423828125,0.3186531960964203,-0.22976811230182648,0.9431350231170654
1783696616274557200,3.68055712890625,0.2516776919364929,-0.32869064807891846,0.8493120670318604
1783696616284520000,3.69052001953125,0.19717584550380707,-0.3417971134185791,0.7419357895851135
1783696616294484200,3.700484130859375,0.1469714641571045,-0.24973472952842712,0.719436764717102
1783696616304447000,3.710447021484375,0.09626968204975128,-0.03541071340441704,0.8281427025794983
1783696616314410000,3.720409912109375,0.05944832041859627,0.19171224534511566,0.9735428094863892
1783696616324373000,3.730373046875,0.04118089750409126,0.2413061559200287,1.0226701498031616
1783696616334336000,3.7403359375,0.0057395328767597675,-0.018480973318219185,0.9355857968330383
1783696616344299000,3.750299072265625,-0.07338324934244156,-0.6589776277542114,0.7682535648345947
1783696616354263000,3.760262939453125,-0.16500899195671082,-1.3613771200180054,0.6283448338508606
1783696616364226000,3.77022607421875,-0.22458070516586304,-1.7875508069992065,0.612614095211029
1783696616374189000,3.78018896484375,-0.2218623161315918,-1.7679407596588135,0.7474493980407715
1783696616384151800,3.79015185546875,-0.21573731303215027,-1.283420443534851,0.9424782991409302
1783696616394115000,3.800114990234375,-0.19884872436523438,-0.47416946291923523,0.9779783487319946
1783696616404078000,3.810078125,-0.12275662273168564,0.39077040553092957,0.6992372870445251
1783696616414041000,3.820041015625,-0.035355374217033386,0.948803722858429,0.14719343185424805
1783696616424005000,3.830005126953125,-0.029913734644651413,1.043241262435913,-0.4742853045463562
1783696616433968000,3.839968017578125,-0.09999645501375198,0.7935753464698792,-0.9775504469871521
1783696616443931100,3.84993115234375,-0.16384121775627136,0.4411557912826538,-1.3082236051559448
1783696616453894100,3.85989404296875,-0.1795390397310257,0.1926838457584381,-1.4800655841827393
1783696616463857000,3.86985693359375,-0.19301143288612366,0.034844957292079926,-1.5336872339248657
1783696616473820000,3.87981982421875,-0.18044933676719666,-0.22961939871311188,-1.4605156183242798
1783696616483783000,3.889782958984375,-0.1123746782541275,-0.6218603849411011,-1.1554081439971924
1783696616493747000,3.899746826171875,0.006451129913330078,-0.8530421257019043,-0.6033591032028198
1783696616503710000,3.9097099609375,0.1353776901960373,-0.8934718370437622,-0.02063440904021263
1783696616513673000,3.9196728515625,0.19385625422000885,-0.9055883288383484,0.3566731810569763
1783696616523636200,3.92963623046875,0.15169201791286469,-1.0298895835876465,0.38923460245132446
1783696616533599200,3.93959912109375,0.04027697071433067,-1.2239807844161987,0.09528757631778717
1783696616543562000,3.94956201171875,-0.10896310955286026,-1.3873190879821777,-0.39171725511550903
1783696616553526000,3.959526123046875,-0.23657335340976715,-1.4409745931625366,-0.9040694832801819
1783696616563489000,3.969489013671875,-0.31997716426849365,-1.3530133962631226,-1.299152135848999
1783696616573452000,3.9794521484375,-0.3263026177883148,-1.1381548643112183,-1.4825260639190674
1783696616583415000,3.9894150390625,-0.26228687167167664,-0.7967943549156189,-1.4278641939163208
1783696616593378000,3.9993779296875,-0.17617172002792358,-0.36292222142219543,-1.1842668056488037
1783696616603341000,4.009341064453125,-0.11322763562202454,0.05422656238079071,-0.8560985326766968
1783696616613304000,4.019303955078125,-0.08346416056156158,0.3392930030822754,-0.527091383934021
1783696616623268000,4.02926806640625,-0.07951735705137253,0.4910425841808319,-0.23631387948989868
1783696616633230800,4.03923095703125,-0.09166660904884338,0.4911143481731415,-0.0011498191161081195
1783696616643193900,4.04919384765625,-0.10390010476112366,0.38856372237205505,0.1842498630285263
1783696616653157000,4.0591572265625,-0.11895199120044708,0.20905451476573944,0.3105922341346741
1783696616663120100,4.0691201171875,-0.12552547454833984,0.060954801738262177,0.3997870981693268
1783696616673083100,4.079083251953125,-0.11749286949634552,0.027396108955144882,0.47021883726119995
1783696616683047200,4.089047119140625,-0.10823997855186462,0.10845474153757095,0.5300752520561218
1783696616693010200,4.09901025390625,-0.11289897561073303,0.24332532286643982,0.60521399974823
1783696616702973200,4.10897314453125,-0.12225466221570969,0.3896748125553131,0.6984379291534424
1783696616712936000,4.11893603515625,-0.1422317773103714,0.48326146602630615,0.7918186187744141
1783696616722899000,4.12889892578125,-0.16761650145053864,0.4818766415119171,0.8762408494949341
1783696616732862000,4.138862060546875,-0.18826135993003845,0.39605042338371277,0.9596799612045288
1783696616742825000,4.148824951171875,-0.19804474711418152,0.2779155373573303,1.0403252840042114
1783696616752789000,4.1587890625,-0.20122425258159637,0.1633126586675644,1.1246789693832397
1783696616762752000,4.168751953125,-0.2097916305065155,0.12276097387075424,1.2078545093536377
1783696616772715000,4.178715087890625,-0.2276449203491211,0.1418839991092682,1.2718168497085571
1783696616782678000,4.188677978515625,-0.22621692717075348,0.17591705918312073,1.313524603843689
1783696616792641000,4.19864111328125,-0.20816214382648468,0.25701481103897095,1.3275566101074219
1783696616802604000,4.20860400390625,-0.1709788292646408,0.33100196719169617,1.3037053346633911
1783696616812567000,4.218567138671875,-0.09316027164459229,0.3123290240764618,1.2405799627304077
1783696616822529800,4.22852978515625,0.0025103269144892693,0.06520367413759232,1.1399364471435547
1783696616832492800,4.238492919921875,0.08937689661979675,-0.3418276309967041,1.0213180780410767
1783696616842455800,4.248455810546875,0.13029716908931732,-0.8388352990150452,0.8706541657447815
1783696616852418800,4.258418701171875,0.11616344004869461,-1.1726535558700562,0.7121386528015137
1783696616862381800,4.2683818359375,0.08733445405960083,-1.154207706451416,0.5835138559341431
1783696616872345000,4.278344970703125,0.06202965974807739,-0.8820971846580505,0.4760114848613739
1783696616882308900,4.288308837890625,0.021510733291506767,-0.5089667439460754,0.3337467312812805
1783696616892271900,4.29827197265625,-0.02421732246875763,-0.24687811732292175,0.05852904170751572
1783696616902235000,4.30823486328125,0.019447067752480507,-0.13149745762348175,-0.2448393702507019
1783696616912198000,4.318197998046875,0.14019161462783813,-0.04882983863353729,-0.4449651837348938
1783696616922161000,4.328160888671875,0.24497714638710022,-0.10092872381210327,-0.5501115918159485
1783696616932124000,4.3381240234375,0.2861059606075287,-0.3863506019115448,-0.6294658184051514
1783696616942087000,4.3480869140625,0.2913001775741577,-0.6624554395675659,-0.6751903891563416
1783696616952051000,4.358051025390625,0.3009197413921356,-0.7215613722801208,-0.6843807697296143
1783696616962014000,4.368013916015625,0.3298211693763733,-0.6876787543296814,-0.7114957571029663
1783696616971977000,4.37797705078125,0.333370178937912,-0.7634575366973877,-0.7840032577514648
1783696616981939700,4.387939697265625,0.3046996593475342,-0.8675525188446045,-0.8287989497184753
1783696616991902700,4.39790283203125,0.23019367456436157,-0.8007743954658508,-0.8104140162467957
1783696617001866000,4.407865966796875,0.11981283873319626,-0.6713586449623108,-0.8203332424163818
1783696617011829800,4.417829833984375,0.004460832104086876,-0.5876600742340088,-0.9228562116622925
1783696617021792800,4.427792724609375,-0.1212419643998146,-0.4904589354991913,-1.1017194986343384
1783696617031756000,4.437756103515625,-0.2430945634841919,-0.4578721225261688,-1.3639070987701416
1783696617041719000,4.447718994140625,-0.32996153831481934,-0.5702798962593079,-1.692993402481079
1783696617051682000,4.45768212890625,-0.37486669421195984,-0.7428556084632874,-2.0049896240234375
1783696617061644800,4.467644775390625,-0.38610389828681946,-0.8318901658058167,-2.207301378250122
1783696617071607800,4.47760791015625,-0.3829413652420044,-0.753017783164978,-2.245468854904175
1783696617081571800,4.48757177734375,-0.37127751111984253,-0.5577114224433899,-2.131145477294922
1783696617091534800,4.497534912109375,-0.3616984188556671,-0.31858381628990173,-1.890132188796997
1783696617101497900,4.507497802734375,-0.3689368963241577,-0.0053175147622823715,-1.543971300125122
1783696617111460900,4.5174609375,-0.3884468376636505,0.3368513882160187,-1.1375807523727417
1783696617121424000,4.527423828125,-0.4237355887889862,0.6323274970054626,-0.7165721654891968
1783696617131387000,4.537386962890625,-0.4768320620059967,0.8255952000617981,-0.313096821308136
1783696617141350000,4.547349853515625,-0.5248552560806274,0.8929784893989563,0.026276979595422745
1783696617151314000,4.55731396484375,-0.5375795364379883,0.8543816208839417,0.2677960693836212
1783696617161277000,4.56727685546875,-0.4982529580593109,0.7542496919631958,0.3890990614891052
1783696617171240000,4.577239990234375,-0.41919487714767456,0.5871376395225525,0.4056876003742218
1783696617181203000,4.587202880859375,-0.32069361209869385,0.41748738288879395,0.39493533968925476
1783696617191166000,4.597166015625,-0.220748633146286,0.3468394875526428,0.4116150736808777
1783696617201129000,4.60712890625,-0.1431819349527359,0.37709513306617737,0.47028666734695435
1783696617211093000,4.617093017578125,-0.10244128853082657,0.4480077028274536,0.5546674132347107
1783696617221056000,4.627055908203125,-0.10134673118591309,0.491466760635376,0.6438351273536682
1783696617231019000,4.63701904296875,-0.13582642376422882,0.45960044860839844,0.7103832364082336
1783696617240981800,4.646981689453125,-0.18928112089633942,0.33570724725723267,0.7626045942306519
1783696617250944800,4.65694482421875,-0.2348887324333191,0.20727480947971344,0.8313373327255249
1783696617260907800,4.66690771484375,-0.24912066757678986,0.1049894466996193,0.9212509989738464
1783696617270871000,4.67687109375,-0.22599956393241882,0.046751849353313446,1.0238896608352661
1783696617280834800,4.686834716796875,-0.1787380427122116,0.027120627462863922,1.1310640573501587
1783696617290797800,4.6967978515625,-0.12269283086061478,-0.02508985623717308,1.2057409286499023
1783696617300761000,4.706760986328125,-0.0809086337685585,-0.15328778326511383,1.2052439451217651
1783696617310724000,4.71672412109375,-0.0679711401462555,-0.2738576829433441,1.1555111408233643
1783696617320686800,4.726686767578125,-0.07966401427984238,-0.33523687720298767,1.0688449144363403
1783696617330649900,4.73664990234375,-0.10199940949678421,-0.43681514263153076,0.9182553887367249
1783696617340612900,4.74661279296875,-0.13150164484977722,-0.6692329049110413,0.6835773587226868
1783696617350577000,4.756576904296875,-0.1670919805765152,-0.9483392238616943,0.4288525879383087
1783696617360540000,4.766539794921875,-0.20558078587055206,-0.9906075596809387,0.2796125113964081
1783696617370503000,4.7765029296875,-0.27377748489379883,-0.7709355354309082,0.26566481590270996
1783696617380466000,4.7864658203125,-0.39200371503829956,-0.3453599810600281,0.31643879413604736
1783696617390429000,4.796428955078125,-0.5349847674369812,0.17293938994407654,0.35921454429626465
1783696617400392000,4.806391845703125,-0.614201009273529,0.5866686701774597,0.3311118185520172
1783696617410355700,4.816355712890625,-0.5721984505653381,0.6995559334754944,0.22341634333133698
1783696617420318700,4.826318603515625,-0.4767049551010132,0.47365352511405945,0.051027532666921616
1783696617430282000,4.836281982421875,-0.39013999700546265,0.07143150269985199,-0.1496531218290329
1783696617440245000,4.846244873046875,-0.2865387797355652,-0.25177475810050964,-0.3134010434150696
1783696617450208000,4.8562080078125,-0.12303949892520905,-0.3716631829738617,-0.39189907908439636
1783696617460171000,4.8661708984375,0.052731528878211975,-0.37648457288742065,-0.40006327629089355
1783696617470134000,4.876134033203125,0.1799193024635315,-0.3571319282054901,-0.37503623962402344
1783696617480098000,4.88609814453125,0.2113581895828247,-0.35988298058509827,-0.3818105459213257
1783696617490060800,4.896060791015625,0.17689219117164612,-0.4292218089103699,-0.4566066563129425
1783696617500023800,4.90602392578125,0.10371492803096771,-0.5286261439323425,-0.6113120317459106
1783696617509986800,4.91598681640625,0.019534310325980186,-0.5881667733192444,-0.804887592792511
1783696617519949800,4.92594970703125,-0.09015809744596481,-0.6542200446128845,-1.006853461265564
1783696617529912800,4.935912841796875,-0.21906721591949463,-0.7718072533607483,-1.21455717086792
1783696617539876000,4.9458759765625,-0.3087920546531677,-0.9180312752723694,-1.4019521474838257
1783696617549840000,4.95583984375,-0.3233316242694855,-1.0169681310653687,-1.5255649089813232
1783696617559803100,4.96580322265625,-0.2643764317035675,-0.9859790205955505,-1.5498392581939697
1783696617569766000,4.975765869140625,-0.17784593999385834,-0.8406966328620911,-1.4843029975891113
1783696617579729000,4.98572900390625,-0.10790067166090012,-0.6110069751739502,-1.3366999626159668
1783696617589692000,4.99569189453125,-0.08159735053777695,-0.3683958649635315,-1.1020481586456299
1783696617599655000,5.005655029296875,-0.10890141129493713,-0.13966788351535797,-0.788334846496582
1783696617609619000,5.015618896484375,-0.1648184210062027,0.051217805594205856,-0.41188064217567444
1783696617619582000,5.02558203125,-0.2151833176612854,0.19172485172748566,-0.003767981193959713
1783696617629545000,5.035544921875,-0.2569330930709839,0.26868101954460144,0.3741520643234253
1783696617639508000,5.045508056640625,-0.26487064361572266,0.2738020122051239,0.6968976259231567
1783696617649470700,5.055470703125,-0.22832190990447998,0.23183181881904602,0.9475230574607849
1783696617659433700,5.065433837890625,-0.17352177202701569,0.16194380819797516,1.1344082355499268
1783696617669397000,5.07539697265625,-0.114396832883358,0.12146227061748505,1.277880311012268
1783696617679360800,5.08536083984375,-0.0483831986784935,0.13653390109539032,1.3593884706497192
1783696617689323800,5.09532373046875,-0.0008881266694515944,0.20415712893009186,1.3493146896362305
1783696617699287000,5.105287109375,0.02632964588701725,0.24634107947349548,1.248318076133728
1783696617709250000,5.11525,-0.0011021816171705723,0.2908785939216614,1.0942386388778687
1783696617719213000,5.125213134765625,-0.08641254901885986,0.32713940739631653,0.9270707368850708
1783696617729175800,5.13517578125,-0.20904354751110077,0.32106342911720276,0.766095757484436
1783696617739138800,5.145138916015625,-0.35446998476982117,0.24237607419490814,0.6221835613250732
1783696617749102800,5.155102783203125,-0.5000812411308289,0.16846269369125366,0.5377768278121948
1783696617759065900,5.16506591796875,-0.602593719959259,0.19056613743305206,0.556435227394104
1783696617769028900,5.17502880859375,-0.6407326459884644,0.3316218852996826,0.677800714969635
1783696617778991900,5.184991943359375,-0.5956634283065796,0.5767826437950134,0.864141583442688
1783696617788955000,5.194954833984375,-0.5050714612007141,0.8172907829284668,1.0383929014205933
1783696617798918000,5.20491796875,-0.410674124956131,0.9197503328323364,1.1337697505950928
1783696617808881000,5.214880859375,-0.319007933139801,0.7807213664054871,1.100192904472351
1783696617818845700,5.224845703125,-0.2738684415817261,0.3244670331478119,0.95743328332901
1783696617828808700,5.23480859375,-0.28171706199645996,-0.3314182162284851,0.755732536315918
1783696617838771700,5.244771728515625,-0.3134547472000122,-0.8945271372795105,0.5806824564933777
1783696617848735000,5.25473486328125,-0.33515748381614685,-1.1279469728469849,0.4960472285747528
1783696617858698000,5.264697998046875,-0.3319246470928192,-0.8855851888656616,0.47964057326316833
1783696617868660700,5.27466064453125,-0.27377429604530334,-0.30478107929229736,0.46963462233543396
1783696617878624800,5.284624755859375,-0.13096576929092407,0.4122484028339386,0.4489346742630005
1783696617888587800,5.294587890625,0.07142473757266998,0.9963435530662537,0.38988980650901794
1783696617898550800,5.30455078125,0.2923898994922638,1.2120745182037354,0.28534290194511414
1783696617908513800,5.314513671875,0.45076489448547363,1.0330449342727661,0.13865461945533752
1783696617920344800,5.3263447265625,0.5139078497886658,0.3904966413974762,-0.10853280127048492
1783696617930307800,5.336307861328125,0.4875938892364502,-0.23654073476791382,-0.35661959648132324
1783696617940270600,5.3462705078125,0.44717562198638916,-0.6131529808044434,-0.5670639276504517
1783696617950235000,5.35623486328125,0.4316045343875885,-0.6859462857246399,-0.7340080142021179
1783696617960197600,5.36619775390625,0.4295501708984375,-0.5847525596618652,-0.9017128348350525
1783696617970160600,5.37616064453125,0.41608649492263794,-0.3879988193511963,-1.0543711185455322
1783696617980123600,5.38612353515625,0.3975306451320648,-0.1620493233203888,-1.1383110284805298
1783696617990087000,5.3960869140625,0.39321696758270264,-0.05033797398209572,-1.1365714073181152
1783696618000050000,5.4060498046875,0.39173489809036255,-0.17439547181129456,-1.0963383913040161
1783696618010013000,5.416012939453125,0.36722248792648315,-0.514439046382904,-1.0655421018600464
1783696618019977000,5.42597705078125,0.28219547867774963,-0.9129526019096375,-1.0594836473464966
1783696618029940000,5.43593994140625,0.13010479509830475,-1.2412406206130981,-1.0684740543365479
1783696618039902700,5.44590283203125,-0.06571317464113235,-1.5056592226028442,-1.0898741483688354
1783696618049865700,5.45586572265625,-0.23521271347999573,-1.6988214254379272,-1.0954680442810059
1783696618059828700,5.465828857421875,-0.33230331540107727,-1.7491475343704224,-1.0381704568862915
1783696618069791700,5.475791748046875,-0.3423781394958496,-1.5989481210708618,-0.9194921255111694
1783696618079754800,5.485754638671875,-0.27263474464416504,-1.2699224948883057,-0.7681475877761841
1783696618089718800,5.49571875,-0.15283112227916718,-0.7808034420013428,-0.5900564193725586
1783696618099681800,5.505681884765625,-0.02570006623864174,-0.20703552663326263,-0.3910074830055237
1783696618109644800,5.515644775390625,0.07326768338680267,0.3057898283004761,-0.21240019798278809
1783696618119607800,5.52560791015625,0.12618470191955566,0.6086764931678772,-0.06813037395477295
1783696618129570800,5.53557080078125,0.14185480773448944,0.6717928051948547,0.035485170781612396
1783696618139533800,5.545533935546875,0.13942547142505646,0.5425623655319214,0.12239157408475876
1783696618149496800,5.555496826171875,0.1453128159046173,0.35862621665000916,0.2315417379140854
1783696618159460900,5.5654609375,0.14860475063323975,0.2587888240814209,0.3789013624191284
1783696618169424000,5.575423828125,0.1460210531949997,0.25543949007987976,0.5327178239822388
1783696618179387000,5.585386962890625,0.14646339416503906,0.3269863724708557,0.6619716882705688
1783696618189350000,5.595349853515625,0.14438071846961975,0.4090191125869751,0.7425948977470398
1783696618199312600,5.605312744140625,0.13352860510349274,0.4101911783218384,0.7888550758361816
1783696618209275600,5.615275634765625,0.10233131051063538,0.34292808175086975,0.836319088935852
1783696618219239700,5.62523974609375,0.048280324786901474,0.22250419855117798,0.9070273637771606
1783696618229202700,5.63520263671875,-0.012759541161358356,0.07511178404092789,1.003709316253662
1783696618239165700,5.645165771484375,-0.061236798763275146,-0.04894225299358368,1.1065022945404053
1783696618249128700,5.655128662109375,-0.08849947899580002,-0.11493804305791855,1.1842442750930786
1783696618259714800,5.66571484375,-0.10578925162553787,-0.06334622204303741,1.2497252225875854
1783696618269677800,5.675677734375,-0.10464834421873093,0.0730888620018959,1.264467477798462
1783696618279640600,5.685640625,-0.0775325670838356,0.21224062144756317,1.1967663764953613
1783696618289603600,5.695603515625,-0.0189194418489933,0.251057505607605,1.067071557044983
1783696618299566800,5.70556689453125,0.052602943032979965,0.06529668718576431,0.9123809933662415
1783696618309529900,5.71552978515625,0.1353115290403366,-0.28373396396636963,0.7795064449310303
1783696618319492900,5.725492919921875,0.1925830841064453,-0.6257267594337463,0.659462571144104
1783696618329457000,5.735456787109375,0.21922136843204498,-0.8967867493629456,0.5297757387161255
1783696618339420000,5.745419921875,0.19684655964374542,-0.9610112905502319,0.4345967769622803
1783696618349383000,5.7553828125,0.10932803899049759,-0.8604716658592224,0.426834374666214
1783696618359345700,5.765345703125,-0.037633445113897324,-0.6060987710952759,0.5003551840782166
1783696618369308700,5.77530859375,-0.19166037440299988,-0.20956963300704956,0.6122878193855286
1783696618379271700,5.785271728515625,-0.2633662521839142,0.3193860650062561,0.7391416430473328
1783696618389234700,5.795234619140625,-0.22748804092407227,0.7512717247009277,0.7690799832344055
1783696618399198700,5.80519873046875,-0.15271872282028198,0.9288766384124756,0.6213586926460266
1783696618409161700,5.81516162109375,-0.09582910686731339,0.9379615187644958,0.33442267775535583
1783696618419124700,5.825124755859375,-0.06410606950521469,0.8831680417060852,-0.02365211956202984
1783696618429088000,5.835087890625,-0.053587812930345535,0.8701886534690857,-0.3655221164226532
1783696618439050800,5.84505078125,-0.04536503925919533,0.9008182287216187,-0.6389338970184326
1783696618449013800,5.855013671875,-0.01767512783408165,0.9805298447608948,-0.835747241973877
1783696618458977800,5.864977783203125,0.046865515410900116,1.0968599319458008,-0.9594915509223938
1783696618468940800,5.87494091796875,0.10738389939069748,1.1894904375076294,-1.045945167541504
1783696618478903800,5.88490380859375,0.12111915647983551,1.0545307397842407,-1.111261010169983
1783696618488866800,5.89486669921875,0.09868580847978592,0.6427870392799377,-1.1321340799331665
1783696618498829800,5.904829833984375,0.049055665731430054,0.08381032943725586,-1.1053072214126587
1783696618508792800,5.914792724609375,-0.026705333963036537,-0.3816978335380554,-1.0418736934661865
1783696618518755600,5.924755615234375,-0.15816321969032288,-0.7766299843788147,-0.9901713132858276
1783696618528719600,5.9347197265625,-0.3210535943508148,-1.0774767398834229,-0.9806360602378845
1783696618538682600,5.9446826171875,-0.4586828351020813,-1.2255903482437134,-0.9969221353530884
1783696618548645600,5.954645751953125,-0.5430700778961182,-1.1964340209960938,-1.0196553468704224
1783696618558609000,5.96460888671875,-0.5671674013137817,-1.052527904510498,-1.0198308229446411
1783696618568572000,5.974572021484375,-0.530872642993927,-0.8735276460647583,-0.9333094954490662
1783696618578535000,5.984534912109375,-0.45143166184425354,-0.6202660799026489,-0.7357311844825745
1783696618588499000,5.9944990234375,-0.35283300280570984,-0.3173137605190277,-0.4601644277572632
1783696618598462000,6.0044619140625,-0.2587065100669861,-0.06833457201719284,-0.1839173585176468
1783696618608424700,6.0144248046875,-0.17800550162792206,0.06214455887675285,0.022143226116895676
1783696618618387700,6.0243876953125,-0.11903007328510284,0.13930672407150269,0.15012408792972565
1783696618628350700,6.034350830078125,-0.0927964448928833,0.21623876690864563,0.21919044852256775
1783696618638313700,6.044313720703125,-0.09819866716861725,0.2813144326210022,0.24727986752986908
1783696618648276700,6.05427685546875,-0.13301502168178558,0.35217171907424927,0.2733009159564972
1783696618658240800,6.06424072265625,-0.19828376173973083,0.44326460361480713,0.3017485439777374
1783696618668203800,6.074203857421875,-0.2702171802520752,0.540512204170227,0.31983140110969543
1783696618678166800,6.084166748046875,-0.3292783796787262,0.6337963342666626,0.3237265348434448
1783696618688129500,6.094129638671875,-0.36305859684944153,0.6848515868186951,0.324555367231369
1783696618698092800,6.1040927734375,-0.3850424587726593,0.6953383088111877,0.3325645625591278
1783696618708055800,6.114055908203125,-0.3830411434173584,0.6180157661437988,0.37174904346466064
1783696618718018800,6.124018798828125,-0.36131030321121216,0.4527469277381897,0.45230406522750854
1783696618727982800,6.13398291015625,-0.35143616795539856,0.21023103594779968,0.5730403661727905
1783696618737945900,6.14394580078125,-0.35730603337287903,-0.07872754335403442,0.7188827991485596
1783696618747908900,6.153908935546875,-0.36180445551872253,-0.3224751055240631,0.8803117275238037
1783696618757871900,6.163871826171875,-0.3433505892753601,-0.5205210447311401,1.0473371744155884
1783696618767834600,6.173834716796875,-0.3031507730484009,-0.5885828733444214,1.2317405939102173
1783696618777797600,6.183797607421875,-0.275836318731308,-0.47099047899246216,1.399889588356018
1783696618787761700,6.19376171875,-0.2665936350822449,-0.22252245247364044,1.4860420227050781
1783696618797724700,6.203724609375,-0.24448221921920776,0.01764088124036789,1.4144033193588257
1783696618807687700,6.213687744140625,-0.23587526381015778,0.12234997004270554,1.18209707736969
1783696618817650700,6.223650634765625,-0.2790085971355438,0.029910849407315254,0.8339893221855164
1783696618827614000,6.233614013671875,-0.40352675318717957,-0.33749920129776,0.4678717255592346
1783696618837577000,6.243576904296875,-0.556250274181366,-0.8902949690818787,0.23299424350261688
1783696618847539700,6.253539794921875,-0.6488212943077087,-1.295517086982727,0.2290206104516983
1783696618857504000,6.26350390625,-0.680478036403656,-1.4217993021011353,0.40720176696777344
1783696618867466800,6.273466796875,-0.6846781969070435,-1.1681363582611084,0.6630969047546387
1783696618877429800,6.2834296875,-0.6959342956542969,-0.6643584966659546,0.8455498218536377
1783696618887392800,6.293392822265625,-0.6827523112297058,-0.3109501898288727,0.8209440112113953
1783696618897355800,6.303355712890625,-0.6318569183349609,-0.13129280507564545,0.6226183772087097
1783696618907318800,6.31331884765625,-0.5321837067604065,0.07469361275434494,0.38411545753479004
1783696618917282800,6.32328271484375,-0.36347004771232605,0.39072829484939575,0.15749536454677582
1783696618927245800,6.333245849609375,-0.1571994572877884,0.774060070514679,-0.04916849732398987
1783696618937208800,6.343208740234375,0.04816806688904762,1.0983715057373047,-0.25013914704322815
1783696618947171600,6.353171630859375,0.23590245842933655,1.233052134513855,-0.46318432688713074
1783696618957134800,6.363134765625,0.37396788597106934,1.0077636241912842,-0.6723902225494385
1783696618967097900,6.373097900390625,0.44938480854034424,0.45438745617866516,-0.8048743009567261
1783696618977060900,6.383060791015625,0.4759541153907776,-0.1772826611995697,-0.7976869344711304
1783696618987025000,6.39302490234375,0.5112441778182983,-0.585817813873291,-0.6519168615341187
1783696618996988000,6.40298779296875,0.5245533585548401,-0.7471287250518799,-0.4599844515323639
1783696619006951000,6.412950927734375,0.46611884236335754,-0.8402442932128906,-0.34582433104515076
1783696619016914000,6.422913818359375,0.32922542095184326,-0.9545682072639465,-0.3371381461620331
1783696619026876700,6.432876708984375,0.17512057721614838,-1.068240761756897,-0.3967166841030121
1783696619036839700,6.442839599609375,0.043803561478853226,-1.1275447607040405,-0.4662747085094452
1783696619046803700,6.4528037109375,-0.033971045166254044,-1.125053882598877,-0.5310888886451721
1783696619056766700,6.4627666015625,-0.05784708261489868,-1.093375563621521,-0.6138783097267151
1783696619066729700,6.472729736328125,-0.02444971725344658,-1.032638669013977,-0.6896370053291321
1783696619076692700,6.482692626953125,0.04304090887308121,-0.9060403108596802,-0.7240423560142517
1783696619086655700,6.49265576171875,0.1061214804649353,-0.7030556797981262,-0.7065767049789429
1783696619096619000,6.502618896484375,0.1519230455160141,-0.46281251311302185,-0.6258669495582581
1783696619106581800,6.512581787109375,0.15801623463630676,-0.20659008622169495,-0.4926019608974457
1783696619116545800,6.5225458984375,0.10674692690372467,0.061570003628730774,-0.3279759883880615
1783696619126508800,6.5325087890625,0.014350278303027153,0.29287463426589966,-0.15193481743335724
1783696619136471800,6.542471923828125,-0.08741256594657898,0.4623994827270508,0.03262464702129364
1783696619146434800,6.552434814453125,-0.18197742104530334,0.5509762167930603,0.19293923676013947
1783696619156397800,6.562397705078125,-0.2405661642551422,0.5387360453605652,0.316946417093277
1783696619166360800,6.57236083984375,-0.250672847032547,0.5044099688529968,0.4252135455608368
1783696619176323800,6.58232373046875,-0.21873381733894348,0.4716126322746277,0.5316483378410339
1783696619186287900,6.592287841796875,-0.1866120845079422,0.4223913252353668,0.6196999549865723
1783696619196250600,6.602250732421875,-0.18765896558761597,0.39982423186302185,0.6559320092201233
1783696619206213600,6.612213623046875,-0.20034553110599518,0.4312703013420105,0.6266919374465942
1783696619216176600,6.6221767578125,-0.20726974308490753,0.5167282223701477,0.586667537689209
1783696619226140000,6.632139892578125,-0.2109123170375824,0.6251964569091797,0.5709474682807922
1783696619236103000,6.64210302734375,-0.20332416892051697,0.6824278235435486,0.6002611517906189
1783696619246066700,6.652066650390625,-0.1890547275543213,0.6448980569839478,0.6554515957832336
1783696619256030000,6.662030029296875,-0.16982217133045197,0.47271695733070374,0.6852041482925415
1783696619265993000,6.671992919921875,-0.1561884880065918,0.2643214166164398,0.6877253651618958
1783696619275955700,6.681955810546875,-0.15675707161426544,0.14135128259658813,0.7056306004524231
1783696619285918700,6.691918701171875,-0.16165877878665924,0.16144244372844696,0.7548684477806091
1783696619295881700,6.7018818359375,-0.173833966255188,0.21445266902446747,0.8229076862335205
1783696619305844700,6.7118447265625,-0.17883776128292084,0.18024064600467682,0.8842589855194092
1783696619315808800,6.721808837890625,-0.18651406466960907,0.06508342176675797,0.8971124291419983
1783696619325771800,6.731771728515625,-0.21870511770248413,-0.1521477848291397,0.7972215414047241
1783696619335734800,6.74173486328125,-0.27142345905303955,-0.547211229801178,0.5684853196144104
1783696619345697800,6.75169775390625,-0.301497220993042,-0.9407014846801758,0.32610321044921875
1783696619355660800,6.761660888671875,-0.2893795669078827,-1.1163557767868042,0.14955587685108185
1783696619365623800,6.771623779296875,-0.22210901975631714,-0.9606411457061768,0.11102207750082016
1783696619375586800,6.7815869140625,-0.18097010254859924,-0.45498383045196533,0.23255009949207306
1783696619385550800,6.79155078125,-0.2361486256122589,0.1219116672873497,0.4128960072994232
1783696619395513900,6.801513916015625,-0.30811601877212524,0.5633426308631897,0.5257312059402466
1783696619405476900,6.811476806640625,-0.34249305725097656,0.8438600301742554,0.49914178252220154
1783696619415440000,6.82143994140625,-0.3256900906562805,0.9412006735801697,0.31072208285331726
1783696619425403000,6.83140283203125,-0.23654255270957947,0.8377256989479065,0.022120162844657898
1783696619435365600,6.84136572265625,-0.1322542279958725,0.6262872219085693,-0.2709455192089081
1783696619445329700,6.85132958984375,-0.03525053337216377,0.41546574234962463,-0.5005419850349426
1783696619455292700,6.861292724609375,0.03833873197436333,0.21508818864822388,-0.696803867816925
1783696619465255700,6.871255615234375,0.08474132418632507,-0.011168803088366985,-0.914700448513031
1783696619475218700,6.88121875,0.12511645257472992,-0.2568725645542145,-1.1625508069992065
1783696619485181700,6.891181640625,0.19152218103408813,-0.40822741389274597,-1.3727482557296753
1783696619495145000,6.90114501953125,0.28446224331855774,-0.37086325883865356,-1.496450424194336
1783696619505108000,6.91110791015625,0.382084459066391,-0.2461613118648529,-1.5635044574737549
1783696619515071700,6.92107177734375,0.44413772225379944,-0.25169214606285095,-1.6409307718276978
1783696619525034800,6.93103466796875,0.4373463988304138,-0.6626325249671936,-1.705397367477417
1783696619534997800,6.940997802734375,0.40724173188209534,-1.2177739143371582,-1.6224967241287231
1783696619544960800,6.950960693359375,0.3241734802722931,-1.642953634262085,-1.4037104845046997
1783696619554923800,6.960923828125,0.23930305242538452,-1.8830029964447021,-1.1439772844314575
1783696619564886800,6.97088671875,0.15126056969165802,-1.8796956539154053,-0.9198859930038452
1783696619574849800,6.980849853515625,0.05530768260359764,-1.6422245502471924,-0.7320495247840881
1783696619584813800,6.990813720703125,-0.051937367767095566,-1.2781134843826294,-0.5606548190116882
1783696619594776800,7.00077685546875,-0.13391265273094177,-0.9018034934997559,-0.39560890197753906
1783696619604739600,7.010739501953125,-0.1722497045993805,-0.5725616216659546,-0.25598904490470886
1783696619614702600,7.02070263671875,-0.1781424731016159,-0.2879352271556854,-0.1250091940164566
1783696619624665900,7.030665771484375,-0.1677134931087494,-0.07771145552396774,0.008519415743649006
1783696619634628900,7.04062890625,-0.16933055222034454,-0.0032960777170956135,0.1848694086074829
1783696619644591900,7.050591796875,-0.16940389573574066,-0.023285331204533577,0.40326857566833496
1783696619654556000,7.060555908203125,-0.1493968963623047,-0.035247448831796646,0.6383130550384521
1783696619664519000,7.070518798828125,-0.10282572358846664,0.02064470201730728,0.8610665798187256
1783696619674482000,7.08048193359375,-0.05922631546854973,0.09949611127376556,1.0016279220581055
1783696619684444700,7.090444580078125,-0.03368512913584709,0.15528450906276703,1.0374122858047485
1783696619694407700,7.10040771484375,-0.03933582454919815,0.15839187800884247,0.985161542892456
1783696619704370700,7.11037060546875,-0.07857760787010193,0.1102091521024704,0.8739270567893982
1783696619714334700,7.120334716796875,-0.13702307641506195,0.0067256358452141285,0.7500408291816711
1783696619724297700,7.130297607421875,-0.19259017705917358,-0.12612436711788177,0.6581235527992249
1783696619734260700,7.1402607421875,-0.23222920298576355,-0.20088700950145721,0.6260787844657898
1783696619744223700,7.1502236328125,-0.26039376854896545,-0.22399672865867615,0.6377403140068054
1783696619754186800,7.160186767578125,-0.2803512215614319,-0.2709205746650696,0.6489048004150391
1783696619764149800,7.170149658203125,-0.2975214719772339,-0.30651339888572693,0.6487502455711365
1783696619774112800,7.18011279296875,-0.31038400530815125,-0.23729649186134338,0.6301470398902893
1783696619784076800,7.190076904296875,-0.28749603033065796,-0.07049095630645752,0.5818768739700317
1783696619794039800,7.200039794921875,-0.2393237054347992,0.17167800664901733,0.5086337924003601
1783696619804002800,7.2100029296875,-0.2127344012260437,0.41984009742736816,0.41384294629096985
1783696619813965300,7.21996533203125,-0.19983379542827606,0.5518817901611328,0.2512441873550415
1783696619823928300,7.22992822265625,-0.21083979308605194,0.34650856256484985,-0.005609619896858931
1783696619833891300,7.239891357421875,-0.2487666755914688,-0.2532177269458771,-0.3333454132080078
1783696619843854000,7.24985400390625,-0.2530650198459625,-0.9218149781227112,-0.6577720046043396
1783696619853818000,7.259818115234375,-0.18994782865047455,-1.2683671712875366,-0.897283673286438
1783696619863781000,7.269781005859375,-0.0973644107580185,-1.0699772834777832,-0.9660422205924988
1783696619873744100,7.279744140625,-0.06134887784719467,-0.33155199885368347,-0.8263183832168579
1783696619883707400,7.289707275390625,-0.09395632892847061,0.6359750032424927,-0.5714826583862305
1783696619893670400,7.29967041015625,-0.10137243568897247,1.3964762687683105,-0.3501638174057007
1783696619903633400,7.30963330078125,0.0028223609551787376,1.6178100109100342,-0.328254371881485
1783696619913596400,7.319596435546875,0.18256549537181854,1.277830958366394,-0.5244941711425781
1783696619923560400,7.329560546875,0.3642255663871765,0.702518105506897,-0.7802431583404541
1783696619933523200,7.339523193359375,0.5310395956039429,0.15071140229701996,-0.9640768766403198
1783696619943486200,7.349486328125,0.6660378575325012,-0.20727930963039398,-1.0134228467941284
1783696619953449200,7.35944921875,0.71656733751297,-0.4784759283065796,-1.0329818725585938
1783696619963412200,7.369412109375,0.6447849273681641,-0.6885794401168823,-1.1101629734039307
1783696619973375200,7.379375244140625,0.4942933917045593,-0.7838631272315979,-1.196604609489441
1783696619983338200,7.389338134765625,0.36267799139022827,-0.7177008390426636,-1.2098639011383057
1783696619993302300,7.39930224609375,0.2958686053752899,-0.5669507384300232,-1.1573796272277832
1783696620003265300,7.409265380859375,0.271465539932251,-0.4439539909362793,-1.0747709274291992
1783696620013228300,7.419228271484375,0.24940072000026703,-0.4169388711452484,-0.966290295124054
1783696620023191300,7.42919140625,0.19031646847724915,-0.4544912874698639,-0.8503556251525879
1783696620033154300,7.439154296875,0.0540316067636013,-0.5457029342651367,-0.7507984042167664
1783696620043117300,7.449117431640625,-0.1325569748878479,-0.705449640750885,-0.6592335104942322
1783696620053081300,7.459081298828125,-0.3224901556968689,-0.8928229808807373,-0.5690186619758606
1783696620063044400,7.46904443359375,-0.4742633104324341,-0.9934284687042236,-0.4752507209777832
1783696620073007400,7.47900732421875,-0.5702428221702576,-0.947509765625,-0.3788682520389557
1783696620082970400,7.488970458984375,-0.6152056455612183,-0.7820665836334229,-0.2836325764656067
1783696620092933000,7.49893310546875,-0.6171298027038574,-0.5514506697654724,-0.17804169654846191
1783696620102896000,7.508896240234375,-0.5907761454582214,-0.2921290695667267,-0.05816960707306862
1783696620112859100,7.518859130859375,-0.5421524047851562,-0.016518238931894302,0.07624278962612152
1783696620122823200,7.5288232421875,-0.488227516412735,0.23249715566635132,0.2135491818189621
1783696620132786200,7.5387861328125,-0.45113182067871094,0.43116843700408936,0.32904380559921265
1783696620142749200,7.548749267578125,-0.44422829151153564,0.5407851934432983,0.42420822381973267
1783696620152712400,7.55871240234375,-0.45379436016082764,0.5567727088928223,0.5156923532485962
1783696620162675500,7.568675537109375,-0.46618983149528503,0.49804702401161194,0.6003861427307129
1783696620172638200,7.57863818359375,-0.46415144205093384,0.3470236659049988,0.6589165925979614
1783696620182601200,7.588601318359375,-0.4212188720703125,0.1821288764476776,0.674878716468811
1783696620192565200,7.598565185546875,-0.33329513669013977,0.12428101152181625,0.6648668646812439
1783696620202528300,7.6085283203125,-0.23832765221595764,0.2124251276254654,0.6584228873252869
1783696620212491300,7.6184912109375,-0.15296880900859833,0.3737594187259674,0.6641616821289062
1783696620222454300,7.628454345703125,-0.0906343162059784,0.489104300737381,0.685971736907959
1783696620232417300,7.638417236328125,-0.04928049072623253,0.5017292499542236,0.7163970470428467
1783696620242380300,7.64838037109375,-0.011861956678330898,0.4073139429092407,0.7531030178070068
1783696620252343300,7.65834326171875,0.027424728497862816,0.24620044231414795,0.8003330826759338
1783696620262307000,7.66830712890625,0.03237314149737358,0.0690915435552597,0.8475772142410278
1783696620272270000,7.67827001953125,-0.012259304523468018,-0.07039444893598557,0.8707557916641235
1783696620282233300,7.6882333984375,-0.07844333350658417,-0.07084518671035767,0.8546981811523438
1783696620292196400,7.6981962890625,-0.12194926291704178,0.16465015709400177,0.7933626770973206
1783696620302159400,7.708159423828125,-0.15624934434890747,0.401732861995697,0.6597955226898193
1783696620312122400,7.718122314453125,-0.15118002891540527,0.5061615109443665,0.4406304359436035
1783696620322085400,7.72808544921875,-0.06322988867759705,0.4093075394630432,0.161664217710495
1783696620332049400,7.73804931640625,0.061839617788791656,0.3126233220100403,-0.1840503066778183
1783696620342012200,7.74801220703125,0.11737848818302155,0.28706347942352295,-0.6531965732574463
1783696620351975200,7.75797509765625,0.145962193608284,0.18115167319774628,-1.1410770416259766
1783696620361938200,7.767938232421875,0.19513638317584991,-0.021027442067861557,-1.4109991788864136
1783696620371901200,7.777901123046875,0.21951070427894592,-0.14962030947208405,-1.314590334892273
1783696620381864200,7.7878642578125,0.17039784789085388,-0.06547027826309204,-0.8703043460845947
1783696620391827500,7.797827392578125,0.044787727296352386,0.24755847454071045,-0.23428481817245483
1783696620401791200,7.807791259765625,-0.08872681856155396,0.7561255693435669,0.36927223205566406
1783696620411754500,7.81775439453125,-0.1469493806362152,0.99460768699646,0.6882800459861755
1783696620421717200,7.82771728515625,-0.11871833354234695,0.7361115217208862,0.6896740198135376
1783696620431680300,7.83768017578125,-0.08121064305305481,0.28550493717193604,0.46621644496917725
1783696620441643300,7.847643310546875,-0.024867048487067223,-0.08630674332380295,0.1399993896484375
1783696620451606300,7.857606201171875,0.07068050652742386,-0.3053629398345947,-0.15673427283763885
1783696620461569300,7.8675693359375,0.20303958654403687,-0.5202538371086121,-0.3864634335041046
1783696620471533300,7.877533203125,0.3554310202598572,-0.779076337814331,-0.5699264407157898
1783696620481496300,7.887496337890625,0.49970948696136475,-0.9089502692222595,-0.6626415252685547
1783696620491459300,7.897459228515625,0.5849602222442627,-0.8135560750961304,-0.6526408195495605
1783696620501422000,7.907422119140625,0.5990226864814758,-0.6159053444862366,-0.5820214152336121
1783696620511385000,7.917385009765625,0.5576568245887756,-0.48314061760902405,-0.492226243019104
1783696620521348400,7.927348388671875,0.4988578259944916,-0.49340495467185974,-0.4251064956188202
1783696620531311400,7.937311279296875,0.43596673011779785,-0.611396849155426,-0.4214411973953247
1783696620541275100,7.947275146484375,0.36757951974868774,-0.7411243915557861,-0.4865323007106781
1783696620551238400,7.95723828125,0.3019251525402069,-0.8167464733123779,-0.6077082753181458
1783696620561201400,7.967201416015625,0.2691558301448822,-0.8073351979255676,-0.7513371109962463
1783696620571164400,7.977164306640625,0.25588661432266235,-0.7085657715797424,-0.8962929844856262
1783696620581127200,7.987127197265625,0.2524248957633972,-0.5554932951927185,-1.021992564201355
1783696620591090200,7.997090087890625,0.26395079493522644,-0.392720103263855,-1.0978628396987915
1783696620601053200,8.00705322265625,0.2904680371284485,-0.2920823097229004,-1.095176100730896
1783696620611017200,8.017017333984375,0.3145054578781128,-0.23501500487327576,-1.0119092464447021
1783696620620980200,8.026980224609375,0.3251613974571228,-0.16427081823349,-0.864887535572052
1783696620630943200,8.036943115234376,0.3076295554637909,-0.09222697466611862,-0.6833060383796692
1783696620640906200,8.04690625,0.25940218567848206,-0.04380609467625618,-0.4940785765647888
1783696620650869200,8.056869140625,0.1933869570493698,-0.012823943980038166,-0.30873721837997437
1783696620660832300,8.066832275390626,0.13286679983139038,0.016831615939736366,-0.1350242644548416
1783696620670795300,8.076795166015625,0.09773731976747513,0.07712505012750626,0.03520233556628227
1783696620680759300,8.08675927734375,0.08896251767873764,0.17145195603370667,0.1919146031141281
1783696620690722300,8.096722412109376,0.097379170358181,0.31087321043014526,0.33465898036956787
1783696620700685300,8.106685302734375,0.10906770080327988,0.48890677094459534,0.47694289684295654
1783696620710648300,8.1166484375,0.11984045058488846,0.6486008763313293,0.5977771878242493
1783696620720611300,8.126611328125,0.12572084367275238,0.765623927116394,0.6947128772735596
1783696620730574300,8.13657421875,0.11830980330705643,0.8183324337005615,0.7520067691802979
1783696620740537000,8.146537109375,0.10791658610105515,0.7510648965835571,0.7813807725906372
1783696620750501400,8.15650146484375,0.11067375540733337,0.5839025378227234,0.791866660118103
1783696620760464100,8.166464111328125,0.11215020716190338,0.33408045768737793,0.7654057741165161
1783696620770427100,8.17642724609375,0.10570482909679413,0.04953154921531677,0.7175756692886353
1783696620780390100,8.18639013671875,0.07212990522384644,-0.13957729935646057,0.6763637661933899
1783696620790353400,8.196353515625,0.0010935496538877487,-0.16609014570713043,0.6422092318534851
1783696620800316400,8.20631640625,-0.047914620488882065,-0.08416648209095001,0.6417747139930725
1783696620810279400,8.216279541015625,-0.036549847573041916,0.13697148859500885,0.6852399110794067
1783696620820244000,8.226243896484375,0.009606637060642242,0.42751285433769226,0.7467539310455322
1783696620830207200,8.236207275390624,0.061600327491760254,0.565061628818512,0.748420238494873
1783696620840170200,8.246170166015625,0.10200738161802292,0.4800432622432709,0.6381368041038513
1783696620850133200,8.25613330078125,0.10733157396316528,0.3029787242412567,0.3959350883960724
1783696620860096300,8.26609619140625,0.09220840036869049,0.05582497641444206,0.0972064957022667
1783696620870059300,8.276059326171875,0.07767632603645325,-0.2702402174472809,-0.11911115795373917
1783696620880022000,8.28602197265625,0.04228726029396057,-0.49323034286499023,-0.07299559563398361
1783696620889986000,8.295986083984374,-0.023617185652256012,-0.4774622917175293,0.2785438001155853
1783696620899949000,8.305948974609375,-0.14406941831111908,-0.257129430770874,0.7884434461593628
1783696620909912000,8.315912109375,-0.2865371108055115,0.08900853991508484,1.196623682975769
1783696620919875000,8.325875,-0.33510538935661316,0.30993181467056274,1.3684883117675781
1783696620929838000,8.335838134765625,-0.2984403073787689,0.2739333510398865,1.2595964670181274
1783696620939801300,8.34580126953125,-0.23505157232284546,0.05321632698178291,0.9126760363578796
1783696620949764400,8.355764404296876,-0.17226649820804596,-0.19444088637828827,0.4716184437274933
1783696620959728000,8.36572802734375,-0.12030114233493805,-0.3638746738433838,0.061942167580127716
1783696620969691100,8.375691162109375,-0.05231250077486038,-0.4553028643131256,-0.22598816454410553
1783696620979654100,8.385654052734376,0.0553755983710289,-0.5480490326881409,-0.3956807851791382
1783696620989617200,8.3956171875,0.17250914871692657,-0.7014572620391846,-0.48671507835388184
1783696620999580200,8.405580078125,0.2259475737810135,-0.8490506410598755,-0.5427073836326599
1783696621009543200,8.415543212890626,0.15017184615135193,-0.8482317328453064,-0.6393007636070251
1783696621019506200,8.425506103515625,-0.01765240915119648,-0.6892045140266418,-0.8021195530891418
1783696621029470200,8.43547021484375,-0.18344910442829132,-0.41502171754837036,-0.9939336776733398
1783696621039433200,8.44543310546875,-0.2811279594898224,-0.11351092904806137,-1.1708447933197021
1783696621049396000,8.45539599609375,-0.3082602620124817,0.10803424566984177,-1.3194071054458618
1783696621059359000,8.46535888671875,-0.27350136637687683,0.18761730194091797,-1.4206520318984985
1783696621069322000,8.475322021484375,-0.17661798000335693,0.15017779171466827,-1.4375580549240112
1783696621079285200,8.48528515625,-0.062193457037210464,0.07091503590345383,-1.3556803464889526
1783696621089248300,8.495248291015624,0.01725502870976925,0.006979995407164097,-1.1888532638549805
1783696621099212300,8.50521240234375,0.022433951497077942,-0.013430247083306313,-0.9717873334884644
1783696621109175300,8.51517529296875,-0.03395502269268036,0.01685016043484211,-0.7086251974105835
1783696621119138300,8.52513818359375,-0.13259705901145935,0.12052810937166214,-0.4106901288032532
1783696621129101000,8.53510107421875,-0.25133171677589417,0.26169002056121826,-0.11025252193212509
1783696621139064000,8.54506396484375,-0.37690022587776184,0.402145117521286,0.1490984559059143
1783696621149027000,8.555027099609376,-0.48544296622276306,0.5182633996009827,0.34790369868278503
1783696621158990000,8.564989990234375,-0.5563726425170898,0.6244101524353027,0.47731927037239075
1783696621168954000,8.5749541015625,-0.5777000784873962,0.746629536151886,0.5490853786468506
1783696621178917000,8.584917236328126,-0.5610920786857605,0.8607611656188965,0.5785958170890808
1783696621188880100,8.594880126953125,-0.5241124629974365,0.9411454796791077,0.5710236430168152
1783696621198843100,8.604843017578125,-0.48651638627052307,0.9941318035125732,0.555297315120697
1783696621208806100,8.61480615234375,-0.4518857002258301,1.0265285968780518,0.5498519539833069
1783696621218769200,8.62476904296875,-0.42522063851356506,1.0509129762649536,0.5656000375747681
1783696621228732200,8.634732177734374,-0.4069820046424866,1.0382933616638184,0.6062989830970764
1783696621238696200,8.6446962890625,-0.3775608539581299,0.986042320728302,0.667076826095581
1783696621248659200,8.6546591796875,-0.34035035967826843,0.8757674694061279,0.725878894329071
1783696621258622200,8.664622314453124,-0.2867952287197113,0.6792808771133423,0.7539651393890381
1783696621268585200,8.674585205078126,-0.20529289543628693,0.4386408030986786,0.7608997225761414
1783696621278548200,8.68454833984375,-0.11864222586154938,0.24042847752571106,0.756873369216919
1783696621288511000,8.694510986328124,-0.02081925980746746,0.10311536490917206,0.7534376382827759
1783696621298474000,8.704473876953125,0.06024773791432381,0.02960014156997204,0.7547405362129211
1783696621308438000,8.71443798828125,0.09681320190429688,0.017487552016973495,0.7503196597099304
1783696621318401000,8.724401123046874,0.11983412504196167,0.07988347858190536,0.7311164736747742
1783696621328364000,8.734364013671875,0.1756763607263565,0.07202742248773575,0.6676397919654846
1783696621338327300,8.744327392578125,0.24683164060115814,-0.10802358388900757,0.5181186199188232
1783696621348290300,8.754290283203124,0.3084814250469208,-0.4700731337070465,0.24290893971920013
1783696621358253300,8.76425341796875,0.3258916735649109,-0.9424446821212769,-0.15452983975410461
1783696621368216000,8.774216064453125,0.2766178548336029,-1.2456855773925781,-0.5339748859405518
1783696621378180400,8.784180419921874,0.17047762870788574,-1.0479862689971924,-0.7237685322761536
1783696621388143000,8.79414306640625,0.04350503906607628,-0.4089794456958771,-0.6703226566314697
1783696621398106000,8.804106201171875,-0.08418168127536774,0.3451298177242279,-0.46637073159217834
1783696621408069000,8.814069091796876,-0.18758024275302887,0.9247809648513794,-0.2365226298570633
1783696621418032000,8.8240322265625,-0.22669577598571777,1.0930646657943726,-0.15740063786506653
1783696621427995100,8.8339951171875,-0.23692205548286438,0.8037460446357727,-0.30194345116615295
1783696621437958100,8.843958251953126,-0.2128344476222992,0.222738578915596,-0.5916191339492798
1783696621447922200,8.853922119140625,-0.1255035400390625,-0.3830921947956085,-0.8800770044326782
1783696621457885200,8.86388525390625,0.03554755449295044,-0.8318926692008972,-1.0295661687850952
1783696621467848000,8.873847900390626,0.21782441437244415,-1.059939980506897,-1.0033265352249146
1783696621477811200,8.883811279296875,0.38321682810783386,-1.1047989130020142,-0.8658167719841003
1783696621487774200,8.893774169921874,0.5220305919647217,-1.0693583488464355,-0.7237789034843445
1783696621497737200,8.9037373046875,0.6254135966300964,-0.9529003500938416,-0.6079631447792053
1783696621507700200,8.9137001953125,0.6797122955322266,-0.7940606474876404,-0.5336028933525085
1783696621517664300,8.923664306640624,0.685498833656311,-0.6700703501701355,-0.4999162256717682
1783696621527627300,8.933627197265626,0.6367318034172058,-0.5811856985092163,-0.5400079488754272
1783696621537590300,8.94359033203125,0.5115483999252319,-0.5255076289176941,-0.6793904900550842
1783696621547553000,8.953552978515624,0.32779210805892944,-0.4674869179725647,-0.8771387338638306
1783696621557516000,8.96351611328125,0.1388130784034729,-0.3903868496417999,-1.0744051933288574
1783696621567479000,8.97347900390625,0.013203226029872894,-0.3425873816013336,-1.2173690795898438
1783696621577442000,8.983442138671874,-0.04347669705748558,-0.3256646394729614,-1.2695082426071167
1783696621587406000,8.993406005859375,-0.05407128483057022,-0.2913402318954468,-1.206712245941162
1783696621597369000,9.003369140625,-0.04171828553080559,-0.20340441167354584,-1.0423381328582764
1783696621607332400,9.013332275390624,-0.03374291956424713,-0.05409988388419151,-0.8031787872314453
1783696621617295400,9.02329541015625,-0.05273628607392311,0.13001583516597748,-0.5317964553833008
1783696621627258000,9.033258056640625,-0.09872721135616302,0.3071344196796417,-0.25958704948425293
1783696621637221000,9.04322119140625,-0.14387741684913635,0.4610351622104645,0.0037767786998301744
1783696621647184100,9.05318408203125,-0.16945281624794006,0.5754485726356506,0.26054278016090393
1783696621657147100,9.063147216796875,-0.19464637339115143,0.6482888460159302,0.48892733454704285
1783696621667111200,9.073111083984376,-0.22294673323631287,0.689547598361969,0.6583022475242615
1783696621677074200,9.08307421875,-0.24338878691196442,0.7032865285873413,0.7626622915267944
1783696621687037200,9.093037109375,-0.2524813413619995,0.6981631517410278,0.793183445930481
1783696621697000200,9.103000244140626,-0.24593783915042877,0.6880519390106201,0.7623353600502014
1783696621706963000,9.112962890625,-0.22173769772052765,0.6630105376243591,0.7021396160125732
1783696621716926200,9.12292626953125,-0.1901894509792328,0.6046497225761414,0.6552272439002991
1783696621726889200,9.13288916015625,-0.1721459925174713,0.5327332019805908,0.6510668396949768
1783696621736853200,9.142853271484375,-0.18297216296195984,0.4635021686553955,0.6725937724113464
1783696621746816300,9.152816162109374,-0.19997164607048035,0.39228686690330505,0.7028979063034058
1783696621756779300,9.162779296875,-0.19410280883312225,0.3423096537590027,0.7429240345954895
1783696621766742300,9.1727421875,-0.1592806577682495,0.3121245801448822,0.7904521226882935
1783696621776705300,9.182705322265624,-0.11288642883300781,0.25332340598106384,0.8367602229118347
1783696621786668000,9.19266796875,-0.06051803007721901,0.11534156650304794,0.86969393491745
1783696621796631000,9.202631103515625,0.016960907727479935,-0.039723340421915054,0.8987306952476501
1783696621806595000,9.212594970703124,0.10212480276823044,-0.06815764307975769,0.9090600609779358
1783696621816558000,9.22255810546875,0.17301088571548462,-0.04216030240058899,0.8305099010467529
1783696621826520800,9.232520751953125,0.2227155864238739,-0.15656864643096924,0.6563873887062073
1783696621836483800,9.24248388671875,0.2350585013628006,-0.485722154378891,0.4540088176727295
1783696621846447000,9.252447021484375,0.1849852055311203,-0.8521094918251038,0.3243757486343384
1783696621856410000,9.26241015625,0.062390077859163284,-1.0463835000991821,0.3023163378238678
1783696621866373000,9.272373046875,-0.11520388722419739,-0.9934000372886658,0.3688591420650482
1783696621876337200,9.282337158203125,-0.2644641101360321,-0.7123741507530212,0.4751962423324585
1783696621886300200,9.292300048828125,-0.3310825526714325,-0.35277923941612244,0.5769726634025574
1783696621896263200,9.30226318359375,-0.27810412645339966,-0.06004602089524269,0.6473272442817688
1783696621906226000,9.312225830078125,-0.1108488216996193,-0.03579048067331314,0.6463238000869751
1783696621916812000,9.32281201171875,0.08268698304891586,-0.2907429039478302,0.549905002117157
1783696621926775000,9.332775146484375,0.2096473127603531,-0.5663089752197266,0.4035128951072693
1783696621936738000,9.342738037109376,0.2889642119407654,-0.7503566741943359,0.23004348576068878
1783696621946702000,9.3527021484375,0.3581259548664093,-0.8124765157699585,0.015902698040008545
1783696621956665000,9.3626650390625,0.4220389127731323,-0.8116559982299805,-0.2462863028049469
1783696621966628000,9.372628173828126,0.48919549584388733,-0.8674278259277344,-0.537595272064209
1783696621976591000,9.382591064453125,0.564080536365509,-0.9869073629379272,-0.8047565221786499
1783696621986554000,9.39255419921875,0.6377078890800476,-1.065831184387207,-0.9857819676399231
1783696621996516900,9.402516845703126,0.6539828181266785,-1.0482295751571655,-1.0768476724624634
1783696622006480000,9.41247998046875,0.589467465877533,-0.9298512935638428,-1.1085773706436157
1783696622016444000,9.42244384765625,0.48164382576942444,-0.7926143407821655,-1.123910903930664
1783696622026407000,9.432406982421876,0.35057637095451355,-0.7089921236038208,-1.15324866771698
1783696622036370000,9.442369873046875,0.2118607759475708,-0.6857373118400574,-1.20720374584198
1783696622046333200,9.452333251953124,0.09834938496351242,-0.6615195870399475,-1.2555773258209229
1783696622056296200,9.462296142578126,0.016431773081421852,-0.5397790670394897,-1.2586750984191895
1783696622066259200,9.47225927734375,-0.06611476838588715,-0.298705518245697,-1.199681282043457
1783696622076222000,9.482221923828124,-0.15064653754234314,0.00035548186860978603,-1.0718014240264893
1783696622086185000,9.49218505859375,-0.24274903535842896,0.29642948508262634,-0.8791942000389099
1783696622096149000,9.50214892578125,-0.34233441948890686,0.5357508063316345,-0.6392971873283386
1783696622106112000,9.512112060546874,-0.44920653104782104,0.7011756896972656,-0.36589762568473816
1783696622116075000,9.522074951171875,-0.5469054579734802,0.8107281923294067,-0.06652702391147614
1783696622126038000,9.5320380859375,-0.6379559636116028,0.8908464908599854,0.24217276275157928
1783696622136001000,9.5420009765625,-0.7196289300918579,0.9121525883674622,0.5490618348121643
1783696622145964000,9.551964111328125,-0.7961441874504089,0.8342266082763672,0.8289992213249207
1783696622155927000,9.561927001953125,-0.8587062954902649,0.65329509973526,1.0725809335708618
1783696622165890800,9.571890869140624,-0.9123144149780273,0.4248858690261841,1.2645865678787231
1783696622175854000,9.58185400390625,-0.9463039040565491,0.23345759510993958,1.3949834108352661
1783696622185817000,9.591817138671875,-0.9455505013465881,0.12556202709674835,1.4710451364517212
1783696622195780000,9.601780029296876,-0.9054402112960815,0.09183669835329056,1.489896297454834
1783696622205743000,9.6117431640625,-0.8394215106964111,0.13161315023899078,1.4814481735229492
1783696622215706000,9.6217060546875,-0.7656317353248596,0.22443869709968567,1.4621682167053223
1783696622226292200,9.632292236328125,-0.6761279106140137,0.32206591963768005,1.4315497875213623
1783696622236255000,9.6422548828125,-0.573463499546051,0.3638105094432831,1.3570976257324219
1783696622246218000,9.652218017578125,-0.46876049041748047,0.33866146206855774,1.2186790704727173
1783696622256182000,9.66218212890625,-0.3820072412490845,0.28336673974990845,0.9983234405517578
1783696622266145000,9.67214501953125,-0.29793044924736023,0.24861834943294525,0.729397177696228
1783696622276108000,9.68210791015625,-0.20875822007656097,0.28778570890426636,0.4413270056247711
1783696622286071000,9.692071044921875,-0.13227276504039764,0.42461147904396057,0.15964367985725403
1783696622296034000,9.702033935546876,-0.06764663010835648,0.7436933517456055,-0.07194478809833527
1783696622305997000,9.7119970703125,0.01670953445136547,1.164186954498291,-0.24043074250221252
1783696622315959800,9.721959716796874,0.13009439408779144,1.3929108381271362,-0.41521668434143066
1783696622325923800,9.731923828125,0.2807278335094452,1.2061645984649658,-0.6429571509361267
1783696622335886800,9.741886962890625,0.42044833302497864,0.6173362135887146,-0.8802638649940491
1783696622345850000,9.75185009765625,0.4810754656791687,-0.02364080213010311,-0.9766141176223755
1783696622355813000,9.761813232421876,0.42229780554771423,-0.21962232887744904,-0.827940046787262
1783696622365776100,9.771776123046875,0.2614116966724396,0.044023964554071426,-0.4895729124546051
1783696622375739100,9.7817392578125,0.0578027106821537,0.47995683550834656,-0.13298526406288147
1783696622385702100,9.7917021484375,-0.07682114839553833,0.8647516965866089,0.09757683426141739
1783696622395666200,9.801666259765625,-0.08040343225002289,0.9513898491859436,0.13215908408164978
1783696622405629000,9.81162890625,0.0010237833485007286,0.717876136302948,0.015372010879218578
1783696622415592000,9.821592041015625,0.1348273903131485,0.3169310688972473,-0.1468501091003418
1783696622425555000,9.831554931640625,0.2942354381084442,-0.10219671577215195,-0.29444757103919983
1783696622435518000,9.84151806640625,0.4846424162387848,-0.48396626114845276,-0.4242108166217804
1783696622445481000,9.85148095703125,0.6748344898223877,-0.7652333378791809,-0.5272980332374573
1783696622455444200,9.8614443359375,0.8264285326004028,-0.8920482397079468,-0.6303703188896179
1783696622465408000,9.871407958984374,0.9437612891197205,-0.8483322262763977,-0.7754220366477966
1783696622475371000,9.88137109375,1.026840090751648,-0.6355797052383423,-0.9274327158927917
1783696622485334000,9.891333984375,1.0287061929702759,-0.30819272994995117,-1.0696381330490112
1783696622495297000,9.901297119140626,0.924213171005249,-0.037022653967142105,-1.1882065534591675
1783696622505260000,9.911260009765625,0.7325912714004517,0.10843786597251892,-1.2600778341293335
1783696622515223000,9.92122314453125,0.5510512590408325,0.11777926981449127,-1.253889560699463
1783696622525186000,9.93118603515625,0.4124356210231781,0.014768732711672783,-1.1751428842544556
1783696622535150000,9.941150146484375,0.3148873746395111,-0.15970109403133392,-1.0493685007095337
1783696622545113000,9.951113037109375,0.2685750126838684,-0.30997076630592346,-0.8891112208366394
1783696622555076000,9.961076171875,0.2545773684978485,-0.3902589976787567,-0.7217642664909363
1783696622565038800,9.971038818359375,0.22301489114761353,-0.38436809182167053,-0.5634118914604187
1783696622575001900,9.981001953125,0.13961049914360046,-0.29640305042266846,-0.42503708600997925
1783696622584964900,9.99096484375,0.0148267587646842,-0.17546410858631134,-0.30130526423454285
1783696622594928000,10.00092822265625,-0.11557600647211075,-0.03725501894950867,-0.2041412591934204
1783696622604892000,10.010891845703124,-0.2115217000246048,0.14605435729026794,-0.11954700946807861
1783696622614855200,10.020855224609376,-0.26830607652664185,0.39581310749053955,-0.02803122252225876
1783696622624818200,10.030818115234375,-0.28924599289894104,0.6502321362495422,0.08789405226707458
1783696622634781200,10.04078125,-0.29311203956604004,0.8468936085700989,0.2159065157175064
1783696622644744000,10.050743896484375,-0.27480894327163696,0.9671869874000549,0.3219384253025055
1783696622654707000,10.06070703125,-0.24766699969768524,1.0642918348312378,0.4194406569004059
1783696622664670000,10.070669921875,-0.21535593271255493,1.1403775215148926,0.518254816532135
1783696622674634000,10.080634033203125,-0.18739113211631775,1.1467616558074951,0.6189532279968262
1783696622684597000,10.090596923828125,-0.1701362431049347,1.0819823741912842,0.6964676976203918
1783696622694560000,10.10056005859375,-0.15628312528133392,0.9984510540962219,0.7331255674362183
1783696622704523000,10.11052294921875,-0.15363408625125885,0.907361626625061,0.7302139401435852
1783696622714486000,10.120486083984375,-0.17026931047439575,0.7631086707115173,0.6912567615509033
1783696622724449000,10.130448974609376,-0.1971139758825302,0.4961012303829193,0.63786381483078
1783696622734412000,10.140412109375,-0.20749035477638245,0.1706923544406891,0.6075826287269592
1783696622744376000,10.1503759765625,-0.20152726769447327,-0.0453462079167366,0.6373945474624634
1783696622754339000,10.160339111328126,-0.21370072662830353,-0.12548638880252838,0.7326136827468872
1783696622764302000,10.170302001953125,-0.23600150644779205,-0.1241912767291069,0.8511397838592529
1783696622774265000,10.18026513671875,-0.23684538900852203,-0.0025195388589054346,0.9462236166000366
1783696622784228000,10.19022802734375,-0.20850828289985657,0.248281791806221,1.006365418434143
1783696622794191000,10.200191162109375,-0.17165285348892212,0.4370371699333191,1.0594050884246826
1783696622804153900,10.21015380859375,-0.1198573112487793,0.35922783613204956,1.074351191520691
1783696622814117600,10.22011767578125,-0.056422699242830276,-0.024901892989873886,0.9886274933815002
1783696622824080600,10.23008056640625,-0.0024841008707880974,-0.5855617523193359,0.7555463314056396
1783696622834043600,10.240043701171874,0.03925755247473717,-1.0905643701553345,0.36281412839889526
1783696622844006700,10.250006591796875,0.05166308954358101,-1.327004313468933,-0.1157953292131424
1783696622853970000,10.259969970703125,0.1027570441365242,-1.0422276258468628,-0.4694426953792572
1783696622863933000,10.269932861328124,0.20695056021213531,-0.31644493341445923,-0.5888718962669373
1783696622873896000,10.27989599609375,0.29059481620788574,0.4178188741207123,-0.5343742966651917
1783696622883860000,10.28985986328125,0.3340320289134979,0.9445891976356506,-0.3836660385131836
1783696622893822700,10.29982275390625,0.3536977171897888,1.1288013458251953,-0.2783806025981903
1783696622903785700,10.30978564453125,0.3076426088809967,0.8932992219924927,-0.33617547154426575
1783696622913748700,10.319748779296875,0.19436880946159363,0.3529649078845978,-0.4997340142726898
1783696622923711700,10.329711669921876,0.09197930991649628,-0.16421404480934143,-0.6087701916694641
1783696622933674800,10.3396748046875,0.04586128517985344,-0.5025067925453186,-0.5943406224250793
1783696622943637800,10.3496376953125,0.05348644778132439,-0.7236833572387695,-0.5645864605903625
1783696622953601800,10.359601806640624,0.1125473603606224,-0.8757859468460083,-0.6079227924346924
1783696622963564800,10.369564697265625,0.19098570942878723,-0.9382538795471191,-0.6628124117851257
1783696622973527600,10.379527587890625,0.2335151880979538,-0.8626545071601868,-0.6546331644058228
1783696622983490800,10.38949072265625,0.2082068920135498,-0.6704752445220947,-0.5882893204689026
1783696622993453800,10.399453857421875,0.12867119908332825,-0.44078314304351807,-0.5220938920974731
1783696623003416800,10.409416748046874,0.04531212896108627,-0.2558063566684723,-0.4872294068336487
1783696623013379800,10.4193798828125,-0.011704004369676113,-0.18470723927021027,-0.5299429893493652
1783696623023343900,10.42934375,-0.030821505934000015,-0.16131801903247833,-0.6541962623596191
1783696623033307000,10.439306884765625,-0.045343223959207535,-0.10312815755605698,-0.8516069054603577
1783696623043270000,10.449269775390626,-0.06846558302640915,0.0575571246445179,-1.0896111726760864
1783696623053232600,10.459232666015625,-0.062042441219091415,0.2829662263393402,-1.294102430343628
1783696623063195600,10.469195556640624,-0.09456337243318558,0.6418567299842834,-1.2919872999191284
1783696623073158700,10.47915869140625,-0.21128606796264648,0.7897452116012573,-1.1810050010681152
1783696623083121700,10.48912158203125,-0.19319067895412445,0.6326109766960144,-1.039442539215088
1783696623093085700,10.499085693359374,-0.12635788321495056,0.5950466394424438,-0.7217110991477966
1783696623103048700,10.509048583984375,-0.12649184465408325,0.598918616771698,-0.2906219959259033
1783696623113011700,10.51901171875,-0.1587560623884201,0.5020981431007385,0.16295871138572693
1783696623122975000,10.52897509765625,-0.21689845621585846,0.3205227255821228,0.5774616003036499
1783696623132937700,10.538937744140625,-0.28037992119789124,0.1026773527264595,0.9205129146575928
1783696623142900700,10.548900634765625,-0.35575562715530396,-0.037216633558273315,1.1956987380981445
1783696623152863700,10.55886376953125,-0.43524813652038574,-0.05704208463430405,1.4334896802902222
1783696623162826800,10.56882666015625,-0.497501403093338,-0.10211315751075745,1.5543423891067505
