time,seconds_elapsed,z,y,x
1783696634460663000,0.0576630859375,2.988300941005349,4.664072591766715,-3.2385464524179697
1783696634470626000,0.0676259765625,3.012899960210919,4.68985702136457,-3.0907968543618916
1783696634480589000,0.077589111328125,2.7886154040068387,3.6445617867350575,-1.8636510146319865
1783696634490552000,0.087552001953125,2.8569313998639583,2.1213293063938616,-0.008204933765530586
1783696634500515300,0.097515380859375,3.732294430723786,1.1656482917159796,1.0035589104011655
1783696634510478300,0.107478271484375,4.507912308239937,0.19075404252409933,1.7664970468252896
1783696634520441000,0.117441162109375,4.540335737460851,-0.9367530268460511,2.5553429469659923
1783696634530405000,0.127405029296875,3.3676649997621775,-1.8049410515099762,3.198880504722893
1783696634540368100,0.1373681640625,0.8737947586297988,-2.7615035251975057,3.8111189611136913
1783696634550331100,0.1473310546875,-1.9167928222328423,-4.175489448878169,4.271187664918601
1783696634560294100,0.157294189453125,-3.867504280680418,-5.133818347716331,4.378196964046359
1783696634570257200,0.167257080078125,-4.225571868908405,-5.086572027894854,4.122790708869696
1783696634580220200,0.17722021484375,-4.036088576972484,-5.017372819462418,4.572649276566505
1783696634590183200,0.18718310546875,-3.7678351151823994,-5.347301523920893,5.391189180964231
1783696634600146200,0.197146240234375,-3.6208091552257535,-5.957809503257274,6.10134879014194
1783696634610110000,0.20710986328125,-3.976166899973154,-6.693390553939342,6.384198348039388
1783696634620073000,0.217072998046875,-5.281182161325216,-7.091112107163667,5.665500627619028
1783696634630036200,0.2270361328125,-7.062157230836153,-6.67431468206942,3.8289310966581103
1783696634639999200,0.236999267578125,-8.651331963640452,-5.899684646546841,2.068862621575594
1783696634649962200,0.246962158203125,-9.358721523582934,-5.039746563833952,0.9925513403050601
1783696634659925200,0.25692529296875,-9.133637925955652,-4.241035395500064,0.08456986910887063
1783696634669888300,0.26688818359375,-8.346534777829051,-3.4690964987576005,-0.70319817266725
1783696634679852300,0.276852294921875,-7.464589445969462,-2.876124176111817,-1.0323306852467358
1783696634689815000,0.28681494140625,-6.39932051384747,-2.515400520417094,-0.9674665834091604
1783696634699778000,0.296778076171875,-4.6568946629613635,-2.2414304345458747,-1.1227711268894374
1783696634709741000,0.306740966796875,-2.507099725061655,-1.8023188863128423,-1.6324930655270813
1783696634719704000,0.3167041015625,-0.2449362990885973,-1.1454133129388093,-2.1743965874537823
1783696634729667000,0.3266669921875,1.722802866527438,-0.39021979929208755,-2.552806414225697
1783696634739630300,0.33663037109375,3.141264474317431,0.3473930494785309,-2.702276260203123
1783696634749593300,0.34659326171875,3.80703666023612,1.125350183597207,-2.6648785497009753
1783696634759557000,0.35655712890625,3.7856612792521713,1.9043419214606283,-2.4227223828502
1783696634769520000,0.36652001953125,3.4006694437414406,2.6122458606660364,-2.0219284364432095
1783696634779483100,0.376483154296875,2.939191749921441,3.2290646305844186,-1.5693582717001437
1783696634789446100,0.386446044921875,2.5083394959896803,3.689446053600311,-1.1260544594090431
1783696634799409200,0.3964091796875,2.32275262697041,3.815867616945505,-0.6781831930719315
1783696634809372200,0.4063720703125,2.43161339918375,3.508172956126928,-0.15028028557747602
1783696634819335200,0.416335205078125,2.8952374573826787,2.981221211877465,0.37085444295629855
1783696634829298700,0.426298583984375,3.633858021891117,2.5567095591440796,0.5207674295913428
1783696634839262700,0.4362626953125,4.390700471788644,2.225778107383847,0.6225261877797543
1783696634849225700,0.446225830078125,4.989103587311506,1.9604919709667563,0.833675733404979
1783696634859188500,0.4561884765625,5.439286564657092,1.7592688491374253,0.9660187957536429
1783696634869151500,0.4661513671875,5.8244268687278025,1.5220570068210362,0.9294372239399701
1783696634879114800,0.47611474609375,5.979043429943919,1.3314154847607016,0.743528356424719
1783696634889077800,0.486077880859375,5.8485454109400505,1.3658382711052894,0.5572395496811717
1783696634899040800,0.496040771484375,5.428602089035511,1.6268930535629391,0.46892705997787415
1783696634909003800,0.506003662109375,4.783566401675343,2.0701690279990435,0.3934106312226504
1783696634918967800,0.5159677734375,4.181723959353566,2.508215285088122,0.38751488771494474
1783696634928930800,0.525930908203125,3.7613930994361637,2.7038381026923655,0.2272287564298138
1783696634938893600,0.5358935546875,3.4446693289875983,2.803575657251477,0.1114477199666202
1783696634948856600,0.545856689453125,3.061543287348747,2.839171579028666,0.12745905316676945
1783696634958819600,0.555819580078125,2.610277190941572,2.860190109398961,0.21813410728294402
1783696634968782600,0.565782470703125,2.126938962969184,2.6424890232384204,0.4434160770265385
1783696634978745600,0.57574560546875,1.5614900225430726,1.9580179820686578,0.7761180821232497
1783696634988709600,0.585709716796875,0.7403530873894691,0.7954203100949525,0.8809048828959465
1783696634998672600,0.595672607421875,-0.6477373475342989,-0.8205904071867466,0.9453425029497593
1783696635008635600,0.6056357421875,-2.6237562657177445,-2.5774025108218193,0.9618955052785575
1783696635018598700,0.6155986328125,-4.689273083996772,-3.598152502259612,0.5403247648352757
1783696635028561700,0.625561767578125,-6.619239276057481,-3.4355186388045547,-0.5712768428619951
1783696635038524700,0.635524658203125,-8.724338163140416,-3.163298026949167,-1.5682997025579213
1783696635048487700,0.64548779296875,-10.155268207359313,-3.35758901142776,-1.945634739705175
1783696635058450700,0.65545068359375,-9.880888956165313,-3.667397887921333,-1.9274416420191525
1783696635068414700,0.665414794921875,-8.251945107552409,-4.297193920573592,-0.6896287892591207
1783696635078377700,0.675377685546875,-5.90158668077588,-5.381147094899416,1.30237570662871
1783696635088340700,0.6853408203125,-3.1534500021517275,-6.166397893157601,2.2001763408765194
1783696635098303500,0.695303466796875,-0.7088742455422878,-6.464682920596003,2.0511371414013206
1783696635108266500,0.7052666015625,0.7183814940780401,-6.775895234146714,2.25317420996204
1783696635118229500,0.7152294921875,0.910033362224698,-6.578951104810834,2.636419347935915
1783696635128192800,0.72519287109375,-0.010879705932736397,-5.974796878415346,2.535863462731242
1783696635138155800,0.73515576171875,-1.6407956144481897,-4.752660975801945,1.5893986046880482
1783696635148119800,0.745119873046875,-3.2531770353168246,-3.345061538287997,0.48719088481254874
1783696635158082800,0.755082763671875,-4.328438369143009,-2.2492396469920872,-0.10257480554534122
1783696635168045800,0.7650458984375,-4.216235300764441,-1.272635671272874,-0.6150115743659437
1783696635178008600,0.775008544921875,-2.8278935214281082,-0.5205740259110927,-0.9583598054330795
1783696635187971600,0.7849716796875,-0.7529927887320518,0.03367226023823023,-0.9932212023906409
1783696635197934600,0.7949345703125,1.171883971235156,0.576641073308885,-0.9839696821816265
1783696635207897600,0.804897705078125,2.4033272158980368,1.0704054182276128,-1.0748625437669455
1783696635217860600,0.814860595703125,2.6230963405042886,1.6732041383609175,-1.3034316454224288
1783696635227824600,0.82482470703125,1.7853671669900417,2.115539909337461,-1.5121867701917886
1783696635237787600,0.83478759765625,0.534074143475294,2.275862573240697,-1.2939894249469042
1783696635247750700,0.844750732421875,-0.3255366069793701,2.5668121432244777,-1.0927619192034006
1783696635257713700,0.854713623046875,-0.579567482149601,3.0915242918536063,-1.2497874412573873
1783696635267676700,0.8646767578125,-0.33045652772486206,3.133989514878392,-1.463995132344216
1783696635277639700,0.8746396484375,0.27721944305598734,2.585795368374884,-1.562224912688881
1783696635287602700,0.884602783203125,1.0953034203797578,1.7085867096483707,-1.4568968446463346
1783696635297565700,0.894565673828125,1.9548866983056068,1.0028507621318101,-0.9746269765578209
1783696635307529700,0.90452978515625,2.493753336754441,0.7251248308584094,-0.631855741661042
1783696635317492700,0.91449267578125,2.6332804653882977,0.731169956241548,-0.6624294513620436
1783696635327455700,0.924455810546875,2.684927650517225,1.0696823646500706,-0.6399924324959516
1783696635337418500,0.93441845703125,3.0316987687051293,1.556517202566564,-0.41834436227530236
1783696635347381500,0.944381591796875,3.4136405689954756,1.9164482465788721,-0.07337839381322264
1783696635357344500,0.954344482421875,3.4282752435475587,2.185062066113949,0.19528423329964278
1783696635367307800,0.964307861328125,3.2848037612020966,2.5377985224470496,0.21605916417241094
1783696635377270800,0.974270751953125,3.2132009987592696,2.8685815056473016,0.14761954193562268
1783696635387234600,0.984234619140625,3.221848415595293,3.086979634161293,0.011575725372880697
1783696635397197800,0.99419775390625,3.4034915154248475,3.15199951108247,-0.22691242048963903
1783696635407160800,1.004160888671875,3.6968946160405873,3.094989045354724,-0.39526217737346886
1783696635417123600,1.01412353515625,3.8566602305829525,3.089938191705942,-0.30933146824017166
1783696635427086600,1.024086669921875,3.9089936444103714,3.1316496737539765,-0.06076053897626698
1783696635437049600,1.034049560546875,3.765756555342674,3.059410366973281,0.14721044967807828
1783696635447012600,1.0440126953125,3.0642782652705907,2.9627362916380164,0.4153507699498907
1783696635456975600,1.0539755859375,1.9973498755037784,2.791854824319482,0.7316630004554987
1783696635466938600,1.063938720703125,0.4878004680782556,2.3528555042892694,1.1671532163862137
1783696635476902700,1.073902587890625,-1.1284791292726992,1.6752549334108828,1.5980185489952563
1783696635486865700,1.08386572265625,-2.265355500012636,0.6815987006038426,1.7664032310619948
1783696635496828700,1.09382861328125,-2.675397605627775,-0.3791331726104021,1.3710830398909746
1783696635506791700,1.103791748046875,-2.633196294236183,-0.9503273786902428,0.6389162546318023
1783696635516754700,1.113754638671875,-3.077071111348271,-0.9799187993556261,0.18244528305791316
1783696635526717700,1.1237177734375,-3.932058878177404,-0.5045820915311575,0.3418326754050329
1783696635536680700,1.1336806640625,-4.982506673264504,-0.44588615693449973,1.140918193476647
1783696635546643700,1.143643798828125,-5.544639036488532,-1.156699261584878,2.237646532092988
1783696635556607700,1.153607666015625,-5.134614466530084,-1.7382763299912214,2.782777199372649
1783696635566570800,1.16357080078125,-4.128987225422263,-1.9225398414522408,2.771369085651636
1783696635576533500,1.173533447265625,-3.320700419491529,-3.1148464229911563,3.3401483395442364
1783696635586496500,1.18349658203125,-2.3292086712419984,-5.046831553658842,3.7463080507680773
1783696635596459500,1.19345947265625,-1.4446072719156742,-7.082628940978646,3.9678085292115806
1783696635606422800,1.2034228515625,-1.1678010858356953,-8.398622692462801,4.1983851712971925
1783696635616385800,1.2133857421875,-1.3551216467797755,-8.41664291779995,3.983997739729285
1783696635626348800,1.223348876953125,-1.881052231287956,-7.454547944426536,3.456145247247815
1783696635636311800,1.233311767578125,-2.57175018414855,-5.639997937572002,2.8088062513813377
1783696635646275800,1.24327587890625,-3.4562633206695317,-3.6643589586168526,2.4796786341726778
1783696635656238600,1.253238525390625,-4.326798785242438,-2.251071538594365,2.3582547329843044
1783696635666201600,1.26320166015625,-5.068028070944547,-1.2467355063408612,1.888602208276093
1783696635676164600,1.27316455078125,-5.407728227832913,-0.6417015745013952,0.9608147973697632
1783696635686127600,1.283127685546875,-5.101907544192671,-0.2821832029432058,-0.1294497520599514
1783696635696090600,1.293090576171875,-4.0659921323269606,0.05297989503741264,-1.1563001792646943
1783696635706053600,1.3030537109375,-2.3613088598579166,0.15256488938331603,-2.141250104655325
1783696635716017000,1.313016845703125,-0.6055296064019203,0.07004442708492278,-2.913174680611491
1783696635725979600,1.322979736328125,0.9261293415009975,0.23773440488576889,-3.316674232715368
1783696635735943700,1.332943603515625,1.9805454556971787,0.7842652943521737,-3.225801829396188
1783696635745906700,1.34290673828125,2.1445991228222847,1.6584768170893192,-2.738587929034233
1783696635755869700,1.35286962890625,1.7197206826031206,2.597128955554962,-2.1904162866234778
1783696635765832700,1.362832763671875,1.1370599106132984,3.4499300259947776,-1.7247525392904877
1783696635775795700,1.372795654296875,0.6457143172740936,4.098371722406148,-1.406473940615356
1783696635785758700,1.3827587890625,0.2607879482150078,4.615883438137173,-1.3322145261839031
1783696635795721700,1.3927216796875,0.2591255679607391,4.864097735983133,-1.5499442539170383
1783696635805684500,1.4026845703125,0.7623521532297134,4.8167234058678146,-1.9516632062144577
1783696635815648500,1.4126484375,1.557330564776063,4.54248327088356,-2.2483463514141735
1783696635825611500,1.422611572265625,2.509716045039892,4.062724070441723,-2.347534747657925
1783696635835574300,1.43257421875,3.3928052862375973,3.645577101257443,-2.206002708942443
1783696635845537500,1.44253759765625,4.131314207065105,3.376597078758478,-1.8494561928018927
1783696635855500500,1.45250048828125,4.575550843226909,3.1645448121398685,-1.426847158819437
1783696635865463600,1.462463623046875,5.103576938709616,3.002434095776081,-1.2466080805689095
1783696635875426300,1.47242626953125,5.7148956499069925,2.8918682732105254,-1.3747659661874174
1783696635885389300,1.482389404296875,6.1275476457595826,2.864538367736339,-1.653351729160547
1783696635895352300,1.492352294921875,6.337352425712346,2.9762369937241075,-1.955385441607982
1783696635905316400,1.50231640625,6.477597347226738,3.102831575548649,-2.1963141124904153
1783696635915279400,1.512279296875,6.513944671893119,3.2050270446538924,-2.3877634438022968
1783696635925242400,1.522242431640625,6.558255522784591,3.1954519915789366,-2.694418532440066
1783696635935205400,1.532205322265625,6.398305783846974,3.1198873397678133,-3.037903760825097
1783696635945168400,1.54216845703125,5.7265410795152185,3.1668449057757853,-3.204872730875015
1783696635955131400,1.55213134765625,4.4339445702314375,3.298624781283736,-3.0072663382381197
1783696635965094400,1.562094482421875,2.7566999243080614,3.3802515096127985,-2.358152003262192
1783696635975057400,1.572057373046875,1.4778577996104956,2.8825521633327007,-1.0297959060721098
1783696635985020400,1.5820205078125,1.0030769721031187,1.938026748919487,0.6490748797483742
1783696635994984400,1.591984375,0.9762912565082311,1.0380687905073165,1.7761781906232237
1783696636004947500,1.601947509765625,0.5822153663098811,-0.16663666935563087,2.2760684710763393
1783696636014910500,1.611910400390625,-0.7938970460504293,-1.2240946354657412,2.298629846974462
1783696636024873500,1.62187353515625,-2.809028661960363,-1.6396838538140057,1.8241513634145259
1783696636034836200,1.631836181640625,-4.463706671288609,-2.1002713207960126,1.2169849495910108
1783696636044799200,1.64179931640625,-4.918270640197396,-2.7787895910412073,0.6098883861333132
1783696636054762200,1.65176220703125,-4.226901071685552,-3.900188406664133,0.9557467733904719
1783696636064725500,1.6617255859375,-3.179727183702588,-4.816390228390693,2.0240851760856806
1783696636074688500,1.6716884765625,-2.641692904424667,-5.079558349740505,2.9530472567945716
1783696636084652500,1.681652587890625,-2.994418547102809,-5.922091124144196,4.415925513938069
1783696636094615600,1.691615478515625,-2.9958588090389964,-7.335039521470666,5.453437839606404
1783696636104578600,1.70157861328125,-2.5404554666966197,-9.087637222281097,5.740592401221394
1783696636114541300,1.711541259765625,-2.038837485668063,-10.74588549131155,5.445134706163406
1783696636124504300,1.72150439453125,-1.4303753329455853,-11.557607532387971,4.56534918268621
1783696636134467300,1.73146728515625,-0.4201742080509662,-11.394176381075381,3.279916865943372
1783696636144430300,1.741430419921875,0.8795856169909239,-10.295235480976103,1.887934099756181
1783696636154393300,1.751393310546875,1.7172814727574586,-8.687164909043908,0.9770233701750636
1783696636164356400,1.7613564453125,1.4436615154981611,-6.724172061172127,0.9453386304922401
1783696636174320400,1.7713203125,0.6454267325043678,-4.595763610172272,1.0119261220563203
1783696636184283400,1.781283447265625,-0.07903904992341995,-2.356093755558133,1.1275742163222282
1783696636194246400,1.791246337890625,-0.43591538254022594,-0.38043548738062377,1.0732152149513363
1783696636204209400,1.80120947265625,-0.1911222913146019,1.1357868219375609,0.68711030363217
1783696636214172400,1.81117236328125,0.5386766688346862,2.379465278795361,0.13798574441075323
1783696636224135400,1.821135498046875,1.236532676756382,3.5281396393567324,-0.25163696577101946
1783696636234098400,1.831098388671875,1.5192799433231352,4.437084037300944,-0.43282969148457046
1783696636244061400,1.8410615234375,1.5091747288942337,4.983362997832894,-0.5495500911571085
1783696636254024400,1.8510244140625,1.0988397778123618,5.211700044298172,-0.4730285770125687
1783696636263988500,1.860988525390625,0.4867728785961866,5.278422633484006,-0.2843807860527187
1783696636273951200,1.870951171875,0.20093524479866026,5.4252270596444605,-0.16638474042117596
1783696636283914200,1.880914306640625,0.15698738200068474,5.52776505857706,-0.15819661165997384
1783696636293877200,1.890877197265625,0.01296177290380001,5.4009746619194745,-0.11927315289527177
1783696636303840500,1.900840576171875,0.10864157650470734,5.090555544573069,-0.13896211516223847
1783696636313803500,1.910803466796875,0.6379027667403221,4.675145774444937,-0.2412901976712048
1783696636323766500,1.9207666015625,1.4366051672458648,4.122881894284487,-0.43768144236467776
1783696636333729500,1.9307294921875,2.306798101991415,3.5570325563639402,-0.5987229951269925
1783696636343693600,1.940693603515625,3.2848604598253965,3.222624660664797,-0.5948190464910119
1783696636353656300,1.95065625,4.2041602475672954,2.9273183567762375,-0.5659346050512045
1783696636363619300,1.960619384765625,4.890117143380642,2.5699679769068955,-0.7412051011089235
1783696636373582300,1.970582275390625,5.225760133832693,2.325243274742365,-1.171267081445828
1783696636383545300,1.98054541015625,5.197757443663478,2.26102127020061,-1.49572093468979
1783696636393508400,1.99050830078125,4.986499542292952,2.2895886085152624,-1.6754042787536978
1783696636403471400,2.000471435546875,4.489757058346271,2.3453636872291566,-1.7733378526307642
1783696636413434600,2.0104345703125,3.8063475089281793,2.7235668855130672,-1.829180882014334
1783696636423397400,2.0203974609375,3.1602047371089457,2.969011134123802,-1.9957512081354856
1783696636433360400,2.0303603515625,2.71035727532804,3.154683343338966,-2.182913802038878
1783696636443324400,2.040324462890625,2.2388246359616515,3.3745448224037884,-2.204802393241972
1783696636453287400,2.050287353515625,1.7175936074465512,3.285550780177116,-2.0238436224147676
1783696636463250400,2.06025048828125,1.297301910495758,2.6366607554763553,-1.3208335927307604
1783696636473213400,2.07021337890625,1.375333829203248,1.5652151805460452,-0.2569846834745258
1783696636483176400,2.080176513671875,1.879127400705218,0.5422831688940525,0.55523785446994
1783696636493139500,2.090139404296875,2.3103683616936204,-0.3495347376823425,0.7779401829838752
1783696636503102200,2.100102294921875,2.179664006462693,-1.1313058771312237,0.47573535175323484
1783696636513065200,2.110065185546875,0.9930945072710513,-1.8200404209643601,-0.11028094120956956
1783696636523029200,2.120029296875,-1.5554630173385142,-2.4665368285268543,-0.5422018472861498
1783696636532992300,2.1299921875,-4.158343083766103,-2.8995220028340816,-0.9168992294061928
1783696636542955500,2.13995556640625,-5.689865838068723,-2.8636463873326776,-1.4719357160851358
1783696636552918500,2.14991845703125,-5.953631340789794,-3.2815070577442644,-1.1252627245094626
1783696636562881500,2.159881591796875,-5.44436255274713,-4.305681762933731,0.12706307611912487
1783696636572844500,2.169844482421875,-5.010137022989988,-5.020191968536377,0.6799615278560668
1783696636582807300,2.179807373046875,-4.90418132456839,-6.366280414032936,1.3910887399569154
1783696636592770300,2.189770263671875,-4.339698598825931,-8.071164177510141,2.0892909309677776
1783696636602733300,2.1997333984375,-3.9183302125543356,-9.16534999203682,2.224987541528046
1783696636612696300,2.2096962890625,-4.167877220308781,-8.983661884021759,1.8238586640782652
1783696636622660400,2.219660400390625,-4.878323245212435,-7.709488335657119,1.010556075812131
1783696636632623400,2.229623291015625,-5.63105066100657,-6.3892468636006114,-0.15413513437472284
1783696636642586400,2.23958642578125,-6.383472371852397,-5.286822797560691,-1.2829736715443432
1783696636652549600,2.249549560546875,-7.35976187479496,-4.216458003604412,-2.01348881713897
1783696636662512400,2.259512451171875,-8.394342823186516,-3.121694096928835,-2.1162207312084735
1783696636672475400,2.269475341796875,-8.524449797046184,-2.1810674435198307,-1.9425066708125174
1783696636682438400,2.2794384765625,-7.28588882933259,-1.557695890957117,-1.582105232809484
1783696636692401400,2.2894013671875,-4.906322428250313,-1.0536679261773825,-1.1988029578208923
1783696636702365400,2.299365478515625,-2.031560772663355,-0.4190098404467106,-1.113386189559102
1783696636712328400,2.309328369140625,0.6114420453161001,0.1824076544612646,-1.0319996266614646
1783696636722291500,2.31929150390625,2.3501211108893156,0.9226374077320099,-0.9851210441738366
1783696636732254500,2.32925439453125,2.700679346400499,1.5111597652316093,-0.8185838896699249
1783696636742217200,2.33921728515625,1.8730103791296482,2.0675930400311944,-0.7804054040536283
1783696636752180200,2.34918017578125,0.803162887045741,2.5786107175678015,-0.9906918300434946
1783696636762143500,2.3591435546875,0.04806640403270721,2.9271757334351536,-1.0946378691431133
1783696636772106500,2.3691064453125,-0.1877577833175659,3.3820717107772826,-0.8305823704995214
1783696636782069500,2.379069580078125,0.02939911296367645,3.804858731675148,-0.5714587022349238
1783696636792032500,2.389032470703125,0.5048316823780536,3.972023224297166,-0.2869748028676025
1783696636801996500,2.39899658203125,1.2142723296314477,4.053458813968301,-0.16679598810318857
1783696636811959600,2.40895947265625,1.9974393073529004,4.169402822440863,-0.0024461510431021453
1783696636821922300,2.41892236328125,2.718174671080708,4.168126811155677,0.16527995751705019
1783696636831885300,2.42888525390625,3.405702177211642,4.008063674971461,0.1827668796950951
1783696636841848300,2.438848388671875,3.9067929194957016,3.8865035801827905,0.14668690072800963
1783696636851811000,2.44881103515625,4.227821109139919,3.7830291771829128,0.002366071544215083
1783696636861774000,2.458774169921875,4.640758351674676,3.7248072898387905,-0.3769867351662367
1783696636871737300,2.4687373046875,5.235112484067678,3.6613977707237004,-0.8249665764443576
1783696636881700400,2.478700439453125,5.566303171285987,3.685740769341588,-1.1984076748929917
1783696636891664400,2.488664306640625,5.476308427584171,3.8284570494055745,-1.4939607931494712
1783696636901627400,2.49862744140625,5.035812146994472,3.9396822126626967,-1.8290496568500993
1783696636911590400,2.50859033203125,4.205711568662524,4.145382479906082,-2.0101627414561807
1783696636921553400,2.518553466796875,3.596501227921247,4.28949401372075,-2.029269739116728
1783696636931516200,2.52851611328125,3.136108406728506,4.210465485191345,-1.8319488854229449
1783696636941479200,2.538479248046875,2.721899829083681,3.828126210016012,-1.4441373163163662
1783696636951442200,2.548442138671875,2.5129566343963146,3.14895093716681,-0.9301936683304607
1783696636961405200,2.5584052734375,2.601178523206711,2.0025795928508043,-0.312629559937492
1783696636971368200,2.5683681640625,2.7572885378509757,0.4812602526545524,0.31548838343471286
1783696636981332200,2.578332275390625,2.884267150557041,-0.9289671952754258,0.6905955884646624
1783696636991295200,2.588295166015625,2.7835955300182103,-1.7881038984775541,0.7532122767016292
1783696637001258500,2.598258544921875,2.2763205461412666,-2.5070856965363024,0.5177776001255959
1783696637011221200,2.60822119140625,1.1777040556907654,-3.3759190333664417,0.1636773080933839
1783696637021184300,2.618184326171875,-0.715110509583354,-4.544262555515766,0.11186178066022694
1783696637031147300,2.628147216796875,-3.215983907476067,-5.821382094204425,0.49248365745842454
1783696637041110300,2.6381103515625,-5.313599160805344,-6.3493783790707585,0.9762456638008356
1783696637051073300,2.6480732421875,-6.333059112432599,-5.971718786144256,1.2129103205632417
1783696637061036300,2.658036376953125,-6.448047427615523,-5.6586599679440255,1.9623919593691825
1783696637071000300,2.668000244140625,-5.760474913299084,-5.566444041061401,2.914404222406447
1783696637080963300,2.67796337890625,-4.604852341035008,-5.603790898159146,3.4767443831622598
1783696637090926000,2.687926025390625,-3.6120974409818647,-5.768325626799464,3.847908768850565
1783696637100889000,2.69788916015625,-3.2419664899945255,-5.485547380572557,4.0857787828147405
1783696637110852400,2.707852294921875,-3.15928236156702,-5.123068405643105,4.456923294758797
1783696637120815400,2.7178154296875,-2.8328742324501275,-5.034430337247252,4.439648334830999
1783696637130778400,2.7277783203125,-2.296277292498946,-4.824906712323427,3.624392858931422
1783696637140741400,2.737741455078125,-1.7412445321470498,-3.9600744278281925,2.3474632898569108
1783696637150704400,2.747704345703125,-1.2228063492208718,-2.965330399784446,1.3196455519899726
1783696637160668400,2.75766845703125,-0.7474579509586096,-2.2005010427862404,0.7475600961588322
1783696637170631200,2.767631103515625,-0.2792389661848545,-1.4909756398588419,0.3471569757003337
1783696637180594200,2.77759423828125,0.31583062100112436,-0.8193558969557285,-0.23995376143567262
1783696637190557200,2.78755712890625,1.0000859735935925,-0.11165011067092417,-1.0010476582325993
1783696637200520200,2.797520263671875,1.5780296539336442,0.6635983490109443,-1.7041744461640715
1783696637210483200,2.807483154296875,1.9117630113720894,1.51503748344779,-2.1386882913433016
1783696637220446500,2.817446533203125,2.0074615196734666,2.32763922996819,-2.3043216288752855
1783696637230409500,2.827409423828125,2.0277993743032217,3.0146359902232884,-2.2289219583675264
1783696637240372200,2.837372314453125,2.224161319836974,3.485018875032663,-2.0083067383259534
1783696637250336300,2.847336181640625,2.5281010120362044,3.785221718791127,-1.8804801304884253
1783696637260299300,2.85729931640625,2.973269376090169,3.965408774593472,-1.9366548760443925
1783696637270262300,2.86726220703125,3.5873493686944244,3.9052509507507085,-1.7984668870598077
1783696637280225300,2.877225341796875,4.291908089125156,3.6639486242502928,-1.4243402905650435
1783696637290188300,2.887188232421875,5.113968568864465,3.3923557889044282,-1.0512864378683269
1783696637300151300,2.8971513671875,5.868053829008341,3.2065777812272307,-0.965542629609257
1783696637310114300,2.9071142578125,6.470894634717703,3.129801415538788,-1.2433943792194126
1783696637320077000,2.9170771484375,6.8324114866167305,3.1088387070089576,-1.64869761974439
1783696637330040300,2.927040283203125,7.041546989005804,3.126138216856122,-2.0287556521147487
1783696637340003300,2.93700341796875,7.059179676330089,3.4848090316742657,-2.010595433785021
1783696637349967400,2.94696728515625,6.703286509531736,3.943178822606802,-1.7408444269135592
1783696637359930400,2.956930419921875,6.106807055547833,4.292718236464261,-1.5386799325808882
1783696637369893400,2.966893310546875,5.683025762915611,4.574214626187086,-1.5243731748089193
1783696637379856400,2.9768564453125,5.60029604178071,4.709312832462787,-1.7778887939333914
1783696637389819400,2.9868193359375,5.268804325789213,4.646134199494123,-1.8809557851761578
1783696637399782100,2.9967822265625,4.456576088756322,4.533874432492256,-1.6161150544390082
1783696637409745200,3.0067451171875,3.068617755779624,4.347743373593688,-1.2244868496537207
1783696637419708200,3.016708251953125,1.51207220390141,4.038649951893091,-0.8322340832293033
1783696637429671200,3.026671142578125,0.36581484135389325,3.3926667545497415,-0.4388249863766134
1783696637439635200,3.03663525390625,-0.4628390453010797,2.2359365133047104,0.14627309576272965
1783696637449598200,3.04659814453125,-1.5195798030525445,0.5849006598711013,1.01687095804736
1783696637459561500,3.0565615234375,-2.619276489955187,-1.182523438671231,1.5951042689837513
1783696637469524500,3.0665244140625,-3.32711496270895,-2.6480408121466636,1.0925405315376817
1783696637479487200,3.0764873046875,-4.046853132092952,-4.013731783735752,-0.0903498407498002
1783696637489450200,3.0864501953125,-5.264617395493388,-5.491724607902765,-0.9052835373491048
1783696637499413200,3.096413330078125,-6.4537903551816935,-6.47990796225667,-0.7955839762240647
1783696637509376300,3.106376220703125,-6.578092442154884,-6.767146110501885,0.5319004526980221
1783696637519339300,3.11633935546875,-5.934405246794223,-6.965624025276303,2.6167194989487528
1783696637529303300,3.12630322265625,-5.2621828618228434,-7.1689891275703905,3.971088573795557
1783696637539266300,3.136266357421875,-4.933205759000778,-7.450652106031775,4.86384171539545
1783696637549229300,3.146229248046875,-5.539089001145959,-7.575297891876101,5.160875865989923
1783696637559192000,3.156192138671875,-7.308909054914117,-7.4263611298620695,4.6525253618359566
1783696637569155300,3.1661552734375,-9.4254423592031,-7.121465744373202,3.565999706673622
1783696637579118300,3.176118408203125,-10.805289281916618,-6.4947577408641575,2.008851074335724
1783696637589081300,3.186081298828125,-10.722139874064922,-5.459155632731318,0.22515651673302053
1783696637599044400,3.19604443359375,-8.926393351879716,-4.290476595017314,-0.667862436196208
1783696637609007400,3.20600732421875,-6.0154673269778485,-3.3319343456894157,-0.4338654642730951
1783696637618971400,3.215971435546875,-2.860555435580015,-2.387633387681842,0.05990348375551402
1783696637628934400,3.225934326171875,0.15017594842016696,-1.1628577842146157,0.07536248030252754
1783696637638897200,3.235897216796875,2.5459634164631364,-0.21800211493372915,0.1859498571127653
1783696637648860200,3.245860107421875,4.059792693164945,0.5158440747797489,0.3544932368725538
1783696637658823200,3.2558232421875,4.720715100964903,1.298338852328062,0.23742227019667625
1783696637668786200,3.2657861328125,4.747963757896423,2.0900188068509102,-0.16597820544689892
1783696637678749400,3.27574951171875,4.5263761856913565,2.784671634817123,-0.6503596588619053
1783696637688712400,3.28571240234375,4.370835495367646,3.3661078334480523,-1.0970652424205094
1783696637698675500,3.295675537109375,4.372995303750038,3.823799578988552,-1.4337396948121488
1783696637708638200,3.30563818359375,4.460461405757069,4.074806137901544,-1.581266151636839
1783696637718602200,3.315602294921875,4.560604033985734,4.201762538775801,-1.6272127870365976
1783696637728565200,3.325565185546875,4.420583568876982,4.3510166961759325,-1.3933213213145732
1783696637738528300,3.3355283203125,4.041740319123864,4.5750452317923305,-1.0557067385286092
1783696637748491300,3.3454912109375,3.9524014089822765,4.883906013780832,-0.7470024622760713
1783696637758454300,3.355454345703125,4.377147162732482,5.163756389862298,-0.40661169277504083
1783696637768417300,3.365417236328125,5.11175790707767,5.18587294460237,0.08507175421640277
1783696637778380300,3.37538037109375,5.665518163275719,4.7860173019587995,0.31006665064692496
1783696637788343300,3.38534326171875,5.9903819855600595,4.381437553402781,0.3391716029696166
1783696637798306300,3.395306396484375,6.140642105132341,4.57844130397141,0.5714341523155569
1783696637808270300,3.405270263671875,5.6627323319494725,4.434768746095895,0.5050896026618779
1783696637818233300,3.4152333984375,4.501587781393527,3.900553148323297,0.006877046162635087
1783696637828196400,3.4251962890625,3.881504164460301,3.8029508522272106,-0.5715250454694032
1783696637838159000,3.4351591796875,3.714232119810581,3.898247209468484,-1.038998472572863
1783696637848122000,3.4451220703125,3.600313479685783,3.6337165675938126,-1.177466885934025
1783696637858084900,3.4550849609375,3.197114371833205,3.2258722642838955,-0.8465601302236319
1783696637868048000,3.4650478515625,2.5504806016266346,2.689575768584013,-0.2301850124195218
1783696637878011000,3.475010986328125,1.9133698620468378,1.9492957464307545,0.42192002880498763
1783696637887974100,3.48497412109375,1.0805459962308406,1.1790794356971979,1.1752584161043167
1783696637897938000,3.49493798828125,0.22503508231043814,0.4456991099298,1.9112914483375847
1783696637907901000,3.50490087890625,-0.471523871538043,-0.5852379290014506,2.503355277836323
1783696637917864200,3.5148642578125,-1.3123884204685687,-1.8779910901516674,2.8487586148023603
1783696637927827200,3.5248271484375,-2.6886031241595743,-3.1637206362754107,2.591556416119635
1783696637937790000,3.5347900390625,-4.902366968622803,-4.457812937074899,2.0420468031033874
1783696637947753000,3.5447529296875,-8.203777581232785,-5.784552538979053,1.6002467464387415
1783696637957716000,3.554716064453125,-11.470369978439807,-6.685007925519347,1.5330930723592637
1783696637967679000,3.564678955078125,-13.071052778208255,-7.2870444291085,1.9452355112545192
1783696637977642000,3.57464208984375,-13.077970010250805,-7.287581020203232,1.902351039904356
1783696637987606000,3.58460595703125,-10.871865156108141,-7.89839353544414,2.784676603253186
1783696637997569000,3.594569091796875,-8.435968380516767,-7.866618340998888,2.212192357362807
1783696638007532000,3.604531982421875,-6.827621914252639,-7.669955951213836,1.5352696857459842
1783696638017495000,3.6144951171875,-6.736408442410826,-7.094038808265328,1.2233759658023715
1783696638027458000,3.6244580078125,-7.536555781027674,-6.258695653104782,1.0038411614086478
1783696638037421000,3.634421142578125,-8.017219236832856,-5.471351097437739,0.6572637391619384
1783696638047384000,3.644384033203125,-7.456562206858396,-4.466410669550299,0.06794782013185321
1783696638057347000,3.65434716796875,-5.8268234084755175,-3.270792771506309,-0.5395880115259438
1783696638067310000,3.66431005859375,-3.533793135073781,-2.3481501030772924,-0.6462547077611088
1783696638077274000,3.674274169921875,-1.0742185467749834,-1.5814257261127234,-0.5901690287280827
1783696638087237000,3.684237060546875,1.1177601668596266,-1.100698557421565,-0.46826494280733166
1783696638097199900,3.694199951171875,2.969522006255388,-0.7278723760008812,-0.43865065272301434
1783696638107163000,3.704162841796875,4.545061596938967,-0.2348749238014221,-0.7629146094180643
1783696638117126000,3.7141259765625,5.598288793611526,0.42180210151374337,-1.1912182017803192
1783696638127089000,3.7240888671875,5.931006836527586,1.2099164725095033,-1.5535548456296324
1783696638137052200,3.73405224609375,5.821621748179197,1.893031422895193,-1.9006749233856797
1783696638147015200,3.74401513671875,5.482585023635625,2.3950258360207077,-2.173647814913094
1783696638156978200,3.753978271484375,5.196292631807923,2.8312165283709763,-2.125867826606333
1783696638166941000,3.76394091796875,4.946292619588971,3.055310530439019,-1.7838487252511084
1783696638176905000,3.773905029296875,4.767543487635255,3.225277805522084,-1.4017112562581895
1783696638186868000,3.783867919921875,4.695240467968583,3.4359546921342607,-1.159213728623837
1783696638196831000,3.7938310546875,4.725584752827882,3.6369004583269358,-0.9873096402592957
1783696638206794000,3.8037939453125,5.130270299845933,3.791478441098332,-0.9338129548061639
1783696638216757000,3.813757080078125,5.915435757908225,3.7049110414966937,-0.7684498125176876
1783696638226720000,3.823719970703125,6.7374687651187175,3.423167983536422,-0.26286300092339515
1783696638236683000,3.83368310546875,7.428478268146514,2.890573264963925,0.11643288796804845
1783696638246646000,3.84364599609375,7.819346302214265,2.1743854815378785,0.2430919863961637
1783696638256609000,3.853609130859375,7.973432117554545,1.872014938351512,0.36264855934269724
1783696638266573000,3.863572998046875,7.894601741945743,2.0458733756542204,0.4765040711034089
1783696638276536000,3.8735361328125,7.454673032110929,2.335776066933572,0.5331893599973991
1783696638286499000,3.8834990234375,6.865047097283601,2.512663204407692,0.3497188255449757
1783696638296462000,3.893462158203125,6.3508531277984375,2.6734324430346486,-0.16481522608213126
1783696638306425000,3.903425048828125,6.069392393910885,2.959307486233115,-0.6758624950394034
1783696638316388000,3.91338818359375,5.93185731587708,3.126452689632773,-1.0693642386116087
1783696638326350800,3.923350830078125,5.703016996064782,3.2198218782037493,-1.1757665117569267
1783696638336313900,3.93331396484375,5.108692089766263,3.20531112229228,-1.1402515462614595
1783696638346277000,3.943277099609375,3.8820699816495177,2.9084453140020368,-0.9054751143984496
1783696638356241000,3.953240966796875,2.2237053927630184,2.349424945318699,-0.5710939605757593
1783696638366204000,3.963203857421875,0.23289514816105364,1.5168419025212525,-0.27591727441623803
1783696638376167200,3.973167236328125,-2.3088088572919365,0.6843634891420602,0.109635775173828
1783696638386130200,3.983130126953125,-5.155436889806389,-0.34691023439764973,0.4479727539502084
1783696638396093200,3.99309326171875,-7.405171042317152,-1.6532663889646528,0.5147568275323138
1783696638406056000,4.003055908203125,-8.814565546554327,-3.2314258067578074,-0.11420266296425834
1783696638416019000,4.01301904296875,-10.047748912882804,-5.043777426785231,-1.1548719730924815
1783696638425982000,4.02298193359375,-11.76641511799693,-6.952187620598077,-1.5254764598757027
1783696638435945000,4.032945068359375,-11.770825920176506,-6.946723509973287,-1.6114588991962373
1783696638445908000,4.042907958984375,-11.768396647202968,-6.9550155375003815,-1.7428414459496735
1783696638455872000,4.0528720703125,-11.75815582369566,-6.97903821812272,-1.8815083044923842
1783696638465835000,4.0628349609375,-10.353289026015997,-6.840156986176967,2.565940621086955
1783696638475798000,4.072798095703125,-9.023325201368332,-6.282055485904216,2.4004575056806203
1783696638485761000,4.082760986328125,-9.034268620187044,-5.367260023844242,2.0559540401637553
1783696638495724000,4.09272412109375,-10.121680410534143,-4.556850818932056,2.0469553256720303
1783696638505687000,4.10268701171875,-10.579942064917088,-3.995728509533405,2.274264782655239
1783696638515650000,4.112650146484375,-9.628321139284967,-3.545816750344634,1.9023688678219914
1783696638525613000,4.122613037109375,-7.529517552953958,-3.1858988580748435,0.8519584821358323
1783696638535576000,4.132576171875,-4.90675614349246,-2.7763442437157035,-0.13282251642867923
1783696638545540000,4.1425400390625,-2.2267583505928514,-2.323015661820769,-0.6775343737743794
1783696638555503000,4.152503173828125,0.06924772374927997,-1.9199813891410826,-0.7303126818250865
1783696638565465900,4.1624658203125,1.4590882172107695,-1.3038809966251252,-0.40268458245918154
1783696638575428900,4.172428955078125,1.986490627837181,-0.38785657729208467,-0.07203983868584037
1783696638585391900,4.182391845703125,2.110826032558083,0.538596881596744,-0.24099545250833032
1783696638595355100,4.192355224609375,2.325354333901405,1.2763415400534868,-0.7922791625250131
1783696638605318100,4.202318115234375,2.6168290968030687,1.91387868835181,-1.2189446322914212
1783696638615281200,4.21228125,2.9932530104547737,2.3330638853654264,-1.5326497125059366
1783696638625244200,4.222244140625,3.5729040792346,2.524502403022349,-1.7867384553432464
1783696638635207000,4.23220703125,4.32854884378016,2.7062270436555145,-2.028907043284178
1783696638645171000,4.2421708984375,5.1204403952270745,2.8544954048886892,-2.1601552961334587
1783696638655134000,4.252134033203125,5.758789736691117,2.8739813188642263,-2.08418118673861
1783696638665097000,4.262096923828125,6.303402225315571,2.7604966862425204,-1.923045160625875
1783696638675060000,4.27206005859375,6.674970515629648,2.6074358300358056,-1.8376847987264393
1783696638685023000,4.28202294921875,6.893835969394445,2.5107611701786516,-1.7205825601294635
1783696638694986000,4.291986083984375,7.133942948630452,2.5055226850032803,-1.5059890845954418
1783696638704949200,4.30194921875,7.247689154797792,2.5918162360996004,-1.2132776195056736
1783696638714912000,4.311912109375,7.195604747295379,2.6597023161068556,-0.8742294967852532
1783696638724875000,4.321875,7.0194865483671425,2.7969191219717264,-0.5880959487810731
1783696638734839000,4.331839111328125,6.746279263561964,2.936375523456931,-0.3771931444585323
1783696638744802000,4.341802001953125,6.470485469394922,2.932125172536075,-0.3993232893325388
1783696638754765000,4.35176513671875,6.396738680660724,3.0156840379714964,-0.5696667042516171
1783696638764728000,4.36172802734375,6.6341632889449595,3.363063058924675,-0.7056167050510644
1783696638774691000,4.371691162109375,7.035023140195012,3.837727566576004,-0.7441523335419595
1783696638784654000,4.381654052734375,7.587039183074236,4.27630895345509,-0.8453332187771797
1783696638794616800,4.391616943359375,8.088682298544049,4.42215301015079,-0.9610397652320564
1783696638804580000,4.401580078125,8.068564808666705,4.350301825904846,-0.9493621869198977
1783696638814543000,4.411543212890625,7.442075416344403,4.060113011160492,-0.9500705543849617
1783696638824506000,4.421506103515625,6.2713721793264146,3.5653275065004824,-0.9792102126948535
1783696638834470400,4.431470458984375,4.740823823013901,2.9981758538097143,-1.3275441962853074
1783696638844433400,4.441433349609375,1.6599427979886532,2.4200989024788138,-1.735233309033513
1783696638854396400,4.451396484375,0.4359136289745569,2.035152075153589,-1.6649777234159409
1783696638864359400,4.461359375,-0.9103115946441889,1.3896674749821423,-1.5398822941079735
1783696638874322400,4.471322509765625,-2.2701123391509053,0.17732172949910163,-0.717459922253713
1783696638884285400,4.481285400390625,-2.949616697824001,-1.3126011864364147,0.6513672284692525
1783696638894248400,4.49124853515625,-3.821772457075119,-3.3149224206119774,2.3017660991735753
1783696638904211500,4.50121142578125,-6.135268010878563,-6.005375556552409,3.671756959913671
1783696638914174200,4.51117431640625,-9.23918153644502,-8.90516059423685,4.6328217134565115
1783696638924138200,4.52113818359375,-11.06052894835472,-11.043879426848887,5.1367070548951625
1783696638934101200,4.531101318359375,-11.135789648783206,-11.757062767761946,5.1034898449480535
1783696638944064300,4.541064208984375,-10.745331364560126,-11.630019273126125,4.830857729682326
1783696638954027500,4.551027587890625,-10.521197615003585,-10.835263564419746,3.956278542676568
1783696638963990500,4.560990478515625,-11.155004052340983,-9.784504219165443,2.4218062909185885
1783696638973953500,4.57095361328125,-12.468331214964389,-8.975122603735327,1.2827391321361064
1783696638983916500,4.58091650390625,-12.368686599385738,-9.091170072582363,1.3971424870379268
1783696638993879300,4.59087939453125,-12.265236746305227,-9.220995891413093,1.4661886968657374
1783696639003842300,4.60084228515625,-12.167182030266522,-9.351442472490668,1.4907510373227297
1783696639013806300,4.610806396484375,-10.260046094173193,-3.856172154805064,-1.5253332520127296
1783696639023769300,4.620769287109375,-6.816929839846491,-3.1798662999123333,-1.0291363461848348
1783696639033732400,4.630732421875,-3.0287592081218957,-2.6800650129169226,-0.7418324392270297
1783696639043695400,4.6406953125,0.5460410601228475,-2.548422500053048,-0.7042249584317207
1783696639053658400,4.650658447265625,3.3394507126688957,-2.5768220805853606,-0.7231621524833143
1783696639063621600,4.66062158203125,5.024330383515358,-2.4940555345714093,-0.9945295085102319
1783696639073584400,4.67058447265625,5.790219478699565,-1.7387895402103661,-1.2162361770503223
1783696639083547400,4.68054736328125,5.892414363282919,-0.28380642023086544,-1.0233156041420997
1783696639093510400,4.690510498046875,5.855341062429547,1.1556520906195045,-0.742732968263328
1783696639103473400,4.700473388671875,5.940687103542685,2.198631741783023,-0.4663147951202467
1783696639113437400,4.7104375,5.9626136886686085,2.8007658605277537,0.04715710716806352
1783696639123400400,4.720400390625,6.062113927340508,2.9670743208423254,0.31237956723179666
1783696639133363500,4.730363525390625,6.073344346407056,2.732394042830169,0.2918785579295829
1783696639143326500,4.740326416015625,5.988859890559315,2.202928854455054,0.2798985626047477
1783696639153289200,4.750289306640625,5.99983662712574,1.6469970994368195,0.2801686117177829
1783696639163252500,4.76025244140625,6.234186065748333,1.0778609949305653,0.2714445129163563
1783696639173215500,4.770215576171875,6.478423276656866,0.9225041367411613,0.3039933951478451
1783696639183178500,4.780178466796875,6.642823565262556,1.2684510790646075,0.1752091943245381
1783696639193141500,4.7901416015625,6.575696486929059,1.6644494617581367,0.03926803441867232
1783696639203105500,4.80010546875,6.3224289973467585,1.9611910591468213,0.09331723918803035
1783696639213068500,4.810068603515625,6.013042145657539,2.380038694769144,0.2174434581376612
1783696639223031600,4.820031494140625,5.8088896923780435,2.6410435006052255,0.1582267145372927
1783696639232994300,4.829994384765625,5.756498995405435,2.781877912445366,-0.013916297149658202
1783696639242957300,4.839957275390625,5.710052886050939,3.0021620008364316,-0.08796513757035136
1783696639252920300,4.84992041015625,5.605815097463131,3.243056915579736,-0.22800416124910114
1783696639262883300,4.85988330078125,5.399745412385464,3.272499283163249,-0.5322358221322298
1783696639272846300,4.869846435546875,5.281276853871345,3.268594384679198,-0.9658394205987453
1783696639282809600,4.8798095703125,5.027824070850015,3.174581345246732,-1.26749056346938
1783696639292772400,4.8897724609375,4.292376875680684,3.2322406302720306,-1.195995353054255
1783696639302736600,4.899736572265625,3.4198306558072566,3.3198832578897473,-1.1651210529714822
1783696639312699400,4.909699462890625,2.578198629635572,3.1179078563883897,-0.9650168521694839
1783696639322662400,4.919662353515625,1.5625684654295444,2.4801082577615974,-0.26804712556302546
1783696639332625400,4.92962548828125,0.17992285190820692,1.4372849662035703,0.7255944941967726
1783696639342588400,4.93958837890625,-1.7590712807387112,0.28495675930976866,1.671143260308355
1783696639352551400,4.949551513671875,-3.98411873576045,-0.8255588432490825,2.2920152511402963
1783696639362514400,4.959514404296875,-5.908663487294316,-1.5263742854982614,2.02178785892874
1783696639372477200,4.969477294921875,-7.215967151844501,-1.9943986244827507,0.944422246299684
1783696639382440400,4.9794404296875,-8.38161485903859,-3.2545804723739624,0.6132454414762556
1783696639392404200,4.989404296875,-8.970291530317068,-5.216960156783461,1.4205255545824764
1783696639402367200,4.9993671875,-8.05937963169217,-6.313737156847119,2.1965727634266017
1783696639412330500,5.00933056640625,-6.80923110203743,-6.400795847097039,2.6593054257437587
1783696639422293500,5.01929345703125,-6.354569517973065,-6.027707215347886,2.5802333503335713
1783696639432256500,5.029256591796875,-6.133981478199362,-5.357762712180614,1.8853823694467544
1783696639442219500,5.039219482421875,-6.504182571813463,-4.907693716603517,1.1138890245147048
1783696639452182300,5.049182373046875,-7.946503778618574,-4.411381440767646,0.945770080712065
1783696639462145300,5.059145263671875,-9.477650685346125,-3.5048487801402803,0.6560672959189862
1783696639472108300,5.0691083984375,-10.022838928031922,-2.7672096278846263,0.11400332273356616
1783696639482071300,5.0790712890625,-9.44925811907649,-2.4596213500499724,-0.08056337341386824
1783696639492035300,5.089035400390625,-7.769724485433101,-2.502200262582302,-0.07888130207844078
1783696639501998300,5.098998291015625,-5.362128506174683,-2.5215070205986496,-0.1134377978052944
1783696639511961300,5.10896142578125,-2.837715242740512,-2.245630808845162,-0.5187175843894481
1783696639521924600,5.118924560546875,-0.5910159278810024,-1.8296353477835654,-0.8918610881309956
1783696639531887400,5.128887451171875,1.2824492092788218,-1.189786123150587,-1.0624600852463393
1783696639541850400,5.138850341796875,2.792702965581417,-0.38704350734353066,-1.225626740403846
1783696639551813400,5.1488134765625,3.8211557864814996,0.42170273279249665,-1.341416654293239
1783696639561776400,5.1587763671875,4.29221788572669,1.1699345907330512,-1.357181794179976
1783696639571739400,5.168739501953125,4.357367526507377,1.744908899873495,-1.3079971997722983
1783696639581703400,5.178703369140625,4.044512706446647,2.1319506536513564,-1.1439084613338113
1783696639591666400,5.18866650390625,3.5905443653434514,2.4988851466849447,-0.9904390973914414
1783696639601629400,5.19862939453125,3.197099758785963,2.829639196051657,-0.9396019134711474
1783696639611592200,5.20859228515625,3.046832040429115,2.8594001280650496,-0.9003943040028214
1783696639621555500,5.218555419921875,3.297252323886752,2.8321491330459714,-0.8777560634762048
1783696639631518500,5.2285185546875,3.96681221165061,2.8193939886301753,-0.9629465487014501
1783696639641481500,5.2384814453125,4.7179234244197605,2.6816481904551384,-1.0716010577529669
1783696639651444500,5.248444580078125,5.413439591217041,2.4603689535468813,-1.1774312300987542
1783696639661407500,5.258407470703125,6.047340721100569,2.239951009643078,-1.1353986994028091
1783696639671370500,5.26837060546875,6.487118039765954,2.0573130535572766,-0.9552283024743199
1783696639681334500,5.27833447265625,6.818008867254853,2.0916145516097546,-0.7663159422941506
1783696639691297300,5.28829736328125,6.901897695297002,2.207447500923276,-0.5897394416717812
1783696639701260300,5.29826025390625,6.7180234754145145,2.30165957005918,-0.47063455801550297
1783696639713091300,5.31009130859375,6.063361881574988,2.571895145577192,-0.4620333914740011
1783696639723054300,5.320054443359375,5.579416335359215,2.7647821084767576,-0.6714226128958165
1783696639733017300,5.330017333984375,5.3296285045862195,3.0023528472334147,-0.9741358320400119
1783696639742980600,5.339980712890625,5.246992891475558,3.195121152189374,-1.1539532508123664
1783696639752943600,5.349943603515625,5.265198994773626,3.4463656115114687,-1.2153428814724088
1783696639762906400,5.35990625,5.064623230937123,3.48935135127902,-1.2448738041222094
1783696639772869400,5.369869384765625,4.490363792067766,3.2173359066069125,-1.1714604120608418
1783696639782833400,5.37983349609375,3.727209090283513,3.0479595831543205,-0.7455112008050083
1783696639792796400,5.38979638671875,2.9749563062638043,2.9247312628924846,-0.20763386565446854
1783696639802759400,5.399759521484375,2.1704729842692614,2.4800638340979813,0.5225827353850007
1783696639812722400,5.409722412109375,1.2133674897462128,1.4872913983881473,1.432630418395996
1783696639822685400,5.419685546875,0.16201017859876155,-0.025223288583755492,2.110740692362189
1783696639832648400,5.4296484375,-0.9916869785606861,-1.7094406961292028,2.4077349493376907
1783696639842611200,5.439611083984375,-2.207781262922287,-3.4034944380342957,2.2486524947538973
1783696639852574500,5.449574462890625,-4.357427147740125,-5.403145576217771,1.8702433986343443
1783696639862537500,5.459537353515625,-7.116114446473121,-7.0099752081781626,1.5496148758322
1783696639872500500,5.46950048828125,-9.848693490481375,-7.487620192945003,1.499664265488088
1783696639882464500,5.479464599609375,-11.680870339441299,-6.746865539017319,1.7184869030244647
1783696639892427500,5.489427490234375,-11.884192771637439,-5.7586225634306665,2.6637235344469548
1783696639902390500,5.499390625,-10.374615891683101,-5.376101501947641,3.7725837710142134
1783696639912353500,5.509353515625,-8.477259006804227,-5.215093778389692,4.230876112796366
1783696639922316300,5.51931640625,-8.03901488905549,-5.185083840051293,4.442188082441687
1783696639932279300,5.529279296875,-9.01928089441359,-4.868382865956425,4.218020430615544
1783696639942242300,5.5392421875,-9.917967517715692,-4.287791885977983,3.7555937655076383
1783696639952205300,5.549205322265625,-9.326249579045175,-4.116380841827392,3.3500670914903283
1783696639962168600,5.55916845703125,-7.2955141512900585,-3.9774581088274714,2.442323447638005
1783696639972132400,5.56913232421875,-4.599979766562581,-3.3385108014702793,1.3339583011113108
1783696639982095400,5.579095458984375,-1.7049486454069613,-2.4287626859277487,0.44433279001265763
1783696639992058600,5.58905859375,0.9668097269356251,-1.4343191021353006,-0.16938757549896835
1783696640002021400,5.599021484375,3.009862199950218,-0.4892021515697241,-0.563877161064744
1783696640011984400,5.608984375,4.28347051564753,0.46190088766813275,-0.9288495602451264
1783696640021947400,5.618947509765625,4.744795649254322,1.440560626873374,-1.2873735139384865
1783696640032533500,5.629533447265625,4.4885897681325675,2.3508786512583493,-1.5610412558622657
1783696640042496500,5.63949658203125,3.780437991645932,2.9270266803532836,-1.6506898164749144
1783696640052459500,5.64945947265625,2.9290830283612013,3.2230782496511936,-1.5670986562050877
1783696640062422500,5.659422607421875,2.3991934770941734,3.5744507241547105,-1.8474641422018407
1783696640072385300,5.66938525390625,1.9509341612875462,3.716548580059409,-2.2395281080558895
1783696640082348300,5.679348388671875,1.5585001930773257,3.617718787994981,-2.152565571656823
1783696640092311300,5.689311279296875,1.4301134671390057,3.5140549999028443,-1.8169411397747695
1783696640102274300,5.6992744140625,1.7053963891744612,3.331410029554367,-1.4742118443235754
1783696640112238300,5.70923828125,2.418417233002186,3.1783740155279636,-1.167902208122611
1783696640122201300,5.719201416015625,3.334007644832134,3.113991267466545,-1.0011410356044768
1783696640132164400,5.729164306640625,4.159409251692891,3.042835079747438,-0.723572413784638
1783696640142127600,5.739127685546875,4.838828854691982,3.0675796449035406,-0.40397001915983854
1783696640152090400,5.74909033203125,5.335552633938193,3.323410847494006,-0.21929873061552643
1783696640162053400,5.759053466796875,5.592989518159627,3.5618297275125976,-0.330909824450314
1783696640172016400,5.769016357421875,5.675748465389013,3.6529789019465446,-0.6251544173914939
1783696640181979400,5.7789794921875,5.743738882553577,3.73998966140151,-0.8806013699047267
1783696640191942400,5.7889423828125,5.835651442575454,3.8201901563197374,-0.9957090006183832
1783696640201905400,5.798905517578125,5.9128889960348605,3.9928111607819794,-0.9522151651982217
1783696640211869400,5.808869384765625,5.964244504740834,4.10334834177494,-0.8528729666322469
1783696640221832400,5.81883251953125,5.9040679761976,4.228519028276205,-0.7256975161798298
1783696640231795200,5.828795166015625,5.737508463731408,4.403989576950669,-0.6068804364889859
1783696640241758500,5.838758544921875,5.329508093076944,4.543581002992392,-0.5278980121236294
1783696640251721500,5.848721435546875,4.359010033017396,4.646077500870824,-0.33741789117008447
1783696640261684500,5.8586845703125,3.28321210809648,4.427759744116663,0.15177403126657008
1783696640271647500,5.8686474609375,2.182210183814168,3.717041332012415,0.8078514832533895
1783696640281610500,5.878610595703125,0.9401876774698495,2.543933371940255,1.4941663987241685
1783696640291573500,5.888573486328125,-0.16942659233510493,1.2276555428177118,2.0724533395439386
1783696640301537500,5.89853759765625,-0.931145123836398,-0.23849954403936863,2.5010054998397826
1783696640311500300,5.908500244140625,-1.5535510462373494,-1.732769549268484,2.689545957967639
1783696640321463300,5.91846337890625,-2.5279694946110247,-3.269795577162504,2.3902926700189706
1783696640331426300,5.92842626953125,-4.215514585274458,-4.825007250088453,1.8849546455539763
1783696640341389300,5.938389404296875,-6.429752476990222,-6.4461816337436435,1.7009364871561525
1783696640351352600,5.9483525390625,-8.387745324617624,-8.312863978895544,2.2535636476710437
1783696640361315600,5.958315673828125,-9.31130510789156,-9.631614920133352,2.588350313554704
1783696640371278600,5.968278564453125,-9.49191301945448,-10.216551820361614,2.4727041189849377
1783696640381241300,5.978241455078125,-8.859502420389651,-10.216140316951273,2.318719425931573
1783696640391205400,5.988205322265625,-7.337796126702427,-9.774745626217126,2.047555921913683
1783696640401168400,5.99816845703125,-5.711566213223338,-9.203739051663876,1.689001719212532
1783696640411131400,6.00813134765625,-5.008613758945465,-8.550190972024202,1.6647713871888816
1783696640421094400,6.018094482421875,-5.376821632915735,-7.476666837254166,1.7823571715191007
1783696640431057400,6.028057373046875,-6.034735506549477,-6.021617666301131,1.3470686887055634
1783696640441020400,6.0380205078125,-6.383308121201396,-4.693831770214438,0.7677277087882161
1783696640450983400,6.0479833984375,-6.203147953405976,-3.667694825041294,0.45047235221359877
1783696640460946400,6.057946533203125,-5.373311578968167,-2.8049048600286244,0.16563176662940532
1783696640470909400,6.067909423828125,-4.011849623250961,-2.0212614969670772,-0.006098645668663084
1783696640480872400,6.07787255859375,-2.0440105043917893,-1.3694360033363102,-0.19589279365204273
1783696640490836500,6.08783642578125,0.33213995076715946,-0.8960667961925267,-0.5565737792488187
1783696640500799500,6.097799560546875,2.3481384126394986,-0.5211474418848753,-1.0794529402971267
1783696640510762500,6.107762451171875,3.642510699424147,0.05098316826224327,-1.6649200018793344
1783696640520725500,6.1177255859375,4.12617567513287,0.854654004830122,-1.9913240393429994
1783696640530688500,6.1276884765625,3.883125043660402,1.7928993160605429,-2.0154298682041465
1783696640540651300,6.1376513671875,3.344119289001822,2.651082079538703,-2.0139909214422107
1783696640550614300,6.1476142578125,2.7999118740469218,3.3637662387579677,-1.9010972404509783
1783696640560577300,6.157577392578125,2.346951248681545,3.868050224125385,-1.720432338003814
1783696640570540500,6.16754052734375,2.1327479415088892,4.252436494958401,-1.507799641148746
1783696640580504300,6.17750439453125,2.07528476357758,4.460144594892859,-1.229594694186747
1783696640590467300,6.18746728515625,2.315839486581087,4.597166462707519,-0.9725595226339995
1783696640600430600,6.1974306640625,3.187996999397874,4.519164354616404,-1.0135544539105146
1783696640610393600,6.2073935546875,4.174315144401788,4.192227817711234,-1.1870427427265793
1783696640620356400,6.2173564453125,4.986514155340195,3.988154859408736,-1.0122818036261945
1783696640630319400,6.2273193359375,5.705929084119201,3.8714106404691933,-0.6719730863854289
1783696640640282400,6.237282470703125,6.412248969003557,3.8173750988990065,-0.3851497294861823
1783696640650245400,6.247245361328125,6.9352557750195265,3.8588247151404618,-0.13098163780234753
1783696640660208400,6.25720849609375,7.15658615759313,3.9128555805355307,-0.06139204181283712
1783696640670172400,6.26717236328125,7.065086854547261,4.001564960601925,-0.14099910088256
1783696640680135400,6.277135498046875,6.9499816349864005,4.434920721787214,-0.018308979150652886
1783696640690098400,6.287098388671875,6.8677019957065575,4.558040905499458,0.1256495560593903
1783696640700061400,6.2970615234375,6.477564614000916,4.234484074160457,0.3390810020767152
1783696640710024400,6.3070244140625,5.917053714498877,3.983665731295943,0.29942104573100803
1783696640719987500,6.316987548828125,5.103822437903284,4.0162954967439175,-0.226466722548753
1783696640729950500,6.326950439453125,3.9733401521146297,4.102078175708652,-0.8561664552196859
1783696640739913500,6.33691357421875,2.89230724914968,3.984153222551942,-1.0290103086523712
1783696640749876500,6.34687646484375,1.6402210294306276,3.5695910091638563,-0.7124047577559948
1783696640759840500,6.356840576171875,0.5159264923661947,2.8975673616349695,0.008526128543913363
1783696640769803500,6.366803466796875,-0.6219897428154945,1.999493317273259,0.909243527021259
1783696640779766300,6.376766357421875,-1.714962674421072,1.0476941124647856,1.5473071834117174
1783696640789729300,6.386729248046875,-2.725615050214529,-0.17638415638804433,1.574263725528866
1783696640799692300,6.3966923828125,-3.458534188210964,-1.1293179181843995,0.9341267699956893
1783696640809655600,6.406655517578125,-4.153763939282298,-1.8076386200308798,0.02649009364917874
1783696640819618600,6.41661865234375,-5.311434091725945,-2.869968576091528,-0.7342692374311387
1783696640829582000,6.42658203125,-7.186576222187281,-4.743727727761865,-0.44452319801822304
1783696640839545000,6.436545166015625,-8.735533510893584,-6.680937899601459,0.3994157899215817
1783696640849508000,6.446508056640625,-8.543194829526543,-7.220485506051778,0.3628792262934148
1783696640859472100,6.45647216796875,-6.655714026495814,-6.949781143978238,-0.01813552227988839
1783696640869435100,6.46643505859375,-4.253876756894588,-7.242929393050074,0.22579057685285805
1783696640879398100,6.476398193359375,-2.330216971501708,-7.395370363792777,0.38574258081279694
1783696640889361200,6.486361083984375,-2.1754355751127004,-6.881496127781271,0.7629823408920318
1783696640899324000,6.496323974609375,-3.864212253397703,-5.803401031833887,1.1823522468227892
1783696640909287000,6.506286865234375,-5.8364989993155,-4.704392911717296,1.4853974013350904
1783696640919250000,6.51625,-6.687108112668991,-4.0424949368834495,1.904368809467554
1783696640929213000,6.526212890625,-6.202429576003551,-3.784157304430008,1.7557044346541166
1783696640939176200,6.53617626953125,-4.678112807556986,-3.7243922792971134,0.8704347076121717
1783696640949140000,6.546139892578125,-2.451356210529804,-3.4748259823203083,-0.23265827066525815
1783696640959103200,6.556103271484375,0.20606851603388784,-3.034517333257198,-1.286904727382958
1783696640969066200,6.566066162109375,2.432019641897082,-2.3805057277590036,-2.00424299601838
1783696640979029000,6.576029052734375,3.388829952865839,-1.5665286012321709,-1.857650605173409
1783696640988992000,6.585991943359375,2.836511712169647,-0.6182096397548914,-1.2475874469950794
1783696640998955000,6.595955078125,1.4645207636535167,0.5148959802746772,-1.024895128418505
1783696641008918000,6.60591796875,-0.16833528996706007,1.5578315000355243,-1.0856043025337159
1783696641018881000,6.615881103515625,-1.6020026501953601,2.3051818989664317,-1.0179672288514674
1783696641028844000,6.625843994140625,-2.146284299430251,2.6607524096816775,-0.9473424445953219
1783696641038808000,6.63580810546875,-1.8184283095926046,2.816899249204993,-1.2786449946902692
1783696641048771000,6.64577099609375,-0.9996996046245098,2.7544413317263126,-1.9264437170229851
1783696641058733800,6.65573388671875,0.0937245778799057,2.5476398252427574,-2.4339041404694317
1783696641068697000,6.665697021484375,1.2253776610136031,2.460704469111562,-2.513421329298615
1783696641078660000,6.67566015625,2.1942940048396586,2.498244218432903,-2.3719128175891933
1783696641088623000,6.685623046875,2.913484477213025,2.6677672568798063,-2.058434312672168
1783696641098586000,6.695586181640625,3.337178676083684,2.9881676700145006,-1.569635919597745
1783696641108549000,6.705549072265625,3.5081519133388994,3.417295584371686,-1.0207431963708251
1783696641118511900,6.715511962890625,3.5737557276278733,3.8917122547417877,-0.6196724057838321
1783696641128475000,6.725474853515625,3.5981139238148927,4.383418498086929,-0.2952695886073634
1783696641138439000,6.73543896484375,3.7135675184220074,4.839942368891835,-0.09822389859315007
1783696641148402000,6.74540185546875,4.081456827962398,5.164482950571179,-0.167174940950796
1783696641158365000,6.755364990234375,4.64011713116169,5.2747489134073255,-0.37519101085588336
1783696641168328000,6.765327880859375,5.1092584914773695,5.31399780473411,-0.5385120528575033
1783696641178291200,6.775291259765625,5.403671061396598,5.1975832561403505,-0.6799123549520969
1783696641188254200,6.785254150390625,5.558635413137078,5.058423207253218,-0.842215232887119
1783696641198217000,6.795217041015625,5.642040841576457,5.032409060552716,-0.9535194527298212
1783696641208180000,6.805179931640625,5.741845616152882,4.957430684196948,-1.0346760793291032
1783696641218143000,6.81514306640625,5.749607482326031,4.779308744230866,-0.9919592926960438
1783696641228107000,6.82510693359375,5.37974015071094,4.392044287613034,-0.7943615217570215
1783696641238070000,6.835070068359375,4.543773895215988,3.6348832732856273,-0.5647513135507702
1783696641248033000,6.845032958984375,3.4839866093754766,2.6206162141263483,-0.2771805723503232
1783696641257996000,6.85499609375,2.344427867683768,1.4771061044603586,0.06834368758164346
1783696641267959000,6.864958984375,1.2813631676077841,0.25052783548533913,0.45802937999702986
1783696641277921800,6.874921875,0.4091951333969831,-1.287148765271902,1.2371662984848022
1783696641287885000,6.884885009765625,-0.9338181424379348,-3.451206037279963,2.105455737696588
1783696641297848000,6.89484814453125,-2.2047043396949766,-5.29365118227601,1.9061933945462106
1783696641307811000,6.90481103515625,-2.9618729528069494,-6.406914622238278,0.9375700423173606
1783696641317775000,6.914775146484375,-3.7105531390368935,-7.874946024361252,0.7714386921353638
1783696641327738000,6.924738037109375,-4.027936834698915,-9.283072116097808,1.5020735185869036
1783696641337701000,6.934701171875,-3.435250343257189,-9.5797140525043,2.427391689835489
1783696641347664100,6.9446640625,-3.126995125946402,-9.522591650834679,3.381397464777529
1783696641357627000,6.954626953125,-3.781263921076059,-9.495530040907859,4.074892647141218
1783696641367590000,6.96458984375,-4.848688569927215,-8.838217055776715,4.231116643553972
1783696641377553000,6.974552978515625,-6.474419301712513,-8.003031721526384,4.098385166409612
1783696641387516000,6.984515869140625,-8.180033133029937,-7.360801154714823,4.139240323889255
1783696641397479200,6.994479248046875,-8.926575138187408,-6.783837133061885,3.9089468826591967
1783696641407442200,7.004442138671875,-8.45761556417942,-6.116289754164218,2.7399340829461813
1783696641417406200,7.01440625,-7.008834221449494,-5.425370267507434,1.0011769837006925
1783696641427369200,7.024369140625,-5.400719225853681,-4.718224453192949,-0.35962080901935695
1783696641437332000,7.03433203125,-4.18889779650569,-3.6671412828117607,-0.9886039178535342
1783696641447295000,7.044294921875,-3.1445693610817194,-2.325097144269943,-1.1426172524794935
1783696641457258000,7.054258056640625,-2.080528509449959,-0.9998580100566148,-1.0146830926142631
1783696641467221000,7.064220947265625,-0.8340081071645021,0.2340034016638994,-0.7270837098412215
1783696641477184000,7.07418408203125,0.378954308912158,1.1648206087201833,-0.5470894001320005
1783696641487147000,7.08414697265625,1.3827046502321958,1.7677140213996172,-0.5844102460056543
1783696641497110000,7.094110107421875,2.278358189448714,2.1254455095410347,-0.8199294590599835
1783696641507074000,7.104073974609375,3.0932126833319664,2.312032495513558,-1.225689211180806
1783696641517036800,7.114036865234375,3.855275498226285,2.4583102674514055,-1.5955392994001507
1783696641527000000,7.124,4.543502092537284,2.6373043140769004,-1.8878277167722581
1783696641536963000,7.133963134765625,5.159737217348813,2.9781857897043227,-2.0618105111069975
1783696641546926000,7.143926025390625,5.576088652241229,3.344600935038924,-2.0219928799815476
1783696641556889000,7.15388916015625,5.83744943190813,3.7231443250626324,-1.7429536741524934
1783696641566852000,7.16385205078125,5.965349251112341,4.085885165798664,-1.2379308531165123
1783696641576815000,7.173815185546875,5.9962792269051075,4.262347063598036,-0.7489562266923486
1783696641586777900,7.18377783203125,5.894188971740007,4.3650013823866844,-0.41633842928037046
1783696641596740900,7.193740966796875,5.629810890078544,4.3781940414369105,-0.37736265580654144
1783696641606705000,7.203704833984375,5.284369559189677,4.3625832153290505,-0.608629910504818
1783696641616668000,7.21366796875,4.972126733547449,4.450122382572293,-0.900111687669158
1783696641626631000,7.223630859375,4.674948206046223,4.493558204194903,-1.1723163713030516
1783696641636594200,7.23359423828125,4.379695093649626,4.598264194816351,-1.3812671647749841
1783696641646557200,7.24355712890625,4.233548839136958,4.70091559099555,-1.5553487433090805
1783696641656520200,7.253520263671875,4.293130324396491,4.751740938347578,-1.6064245582908392
1783696641666483000,7.26348291015625,4.579180724161863,4.713915357822179,-1.4606456757858395
1783696641676446000,7.273446044921875,4.995758369025587,4.474098301443457,-1.2126533501274883
1783696641686409000,7.283408935546875,5.281114941307902,4.267196257194876,-1.0738184415414929
1783696641696372000,7.2933720703125,5.239987981149554,4.284626115423441,-0.9729569975189865
1783696641706336000,7.3033359375,4.706786528855562,4.252097472262382,-0.848366156732291
1783696641716299000,7.313299072265625,3.543195754191279,3.744498663258552,-0.7613970444619655
1783696641726262000,7.323261962890625,2.2777678223401305,2.7164848182976242,-0.7264892510794103
1783696641736225000,7.33322509765625,1.1708505365341901,1.3213111471146344,-0.7215392274565995
1783696641746188000,7.34318798828125,0.24217560220360754,-0.3118699006766081,-0.41358825378939507
1783696641756151000,7.353151123046875,-0.6021621757954359,-1.8449053976297378,0.2762888842076063
1783696641766114000,7.363114013671875,-1.4621680630475282,-2.924094718554616,0.8666526317901909
1783696641776077000,7.3730771484375,-2.395329787403345,-3.4596453643232583,1.0382163822844623
1783696641786040000,7.3830400390625,-3.416812184768915,-4.039476465845108,0.8990738690540194
1783696641796004000,7.393004150390625,-5.137617739999294,-4.985688225910067,1.3546097517348825
1783696641805967000,7.402967041015625,-7.346603118014335,-5.544931297433376,2.2176966538675127
1783696641815930000,7.41293017578125,-8.92347483408451,-5.453266574692726,3.1673814968705174
1783696641825892900,7.422892822265625,-9.188840173217654,-5.705737945461273,4.406698835909366
1783696641835855000,7.432855224609375,-8.055969530987738,-6.151708858069777,5.218689757055044
1783696641845818000,7.442818115234375,-6.500165152865648,-6.294696356290578,5.107471023538708
1783696641855781000,7.452781005859375,-5.360714547723531,-6.896395590749383,4.970618082550168
1783696641865744100,7.462744140625,-4.91789011644721,-7.487527253964543,5.322274050170183
1783696641875707100,7.47270703125,-5.281089222344756,-7.489564312750101,5.7299424123913045
1783696641885670100,7.482670166015625,-5.938379411122202,-6.803424461585283,5.007841021007299
1783696641895634200,7.49263427734375,-6.357718337392806,-5.583909555125236,2.769332903648913
1783696641905597000,7.502596923828125,-6.27401129565835,-4.2159202434659,0.7669973486870527
1783696641915560000,7.512559814453125,-5.721846199697255,-2.817842667534947,-0.38190351410657164
1783696641925523000,7.52252294921875,-4.60007445910871,-1.4824772761046885,-0.8818871719315647
1783696641935486000,7.53248583984375,-3.1028093637168404,-0.33458559035360813,-0.61498812042512
1783696641945449200,7.54244921875,-1.4268670325636863,0.5558388160377741,-0.1468318256240338
1783696641955412200,7.552412109375,0.17585808668732641,1.3352823893219232,0.06752473588157445
1783696641965375200,7.562375244140625,1.5693588562220333,1.9943425103813408,0.06443672500466928
1783696641975338000,7.572337890625,2.6834482256144283,2.4182079741656777,-0.035452248123334716
1783696641985302000,7.582302001953125,3.5074937416911123,2.626719207176566,-0.26914416355211285
1783696641995265000,7.59226513671875,4.093265339177846,2.8176813394933937,-0.6791567142792045
1783696642005228000,7.60222802734375,4.395562524867057,3.0180203719645737,-1.1139415584195405
1783696642015191000,7.61219091796875,4.512180487078428,3.163976656863093,-1.403670573632419
1783696642025154000,7.622154052734375,4.623824752530456,3.4620541790306567,-1.49400960072726
1783696642035117000,7.632116943359375,4.685954753229022,3.97222020817399,-1.4361064239434898
1783696642045080000,7.642080078125,4.55577997483015,4.347415456813573,-1.196351911406964
1783696642055043000,7.65204296875,4.320420482382178,4.493706672754883,-0.7439020120427012
1783696642065006000,7.662006103515625,4.139916031193733,4.543908919772505,-0.31964623376652596
1783696642074969000,7.671968994140625,4.045813852173089,4.595161552625894,-0.055791682788822794
1783696642084933000,7.68193310546875,4.032946771815419,4.63892236841917,0.08647106308769434
1783696642094896000,7.691896240234375,4.1884436229974025,4.592181075510382,0.15733502639457583
1783696642104859100,7.701859130859375,4.569001859974861,4.48414623272717,0.07698620904684067
1783696642114822100,7.711822265625,4.920467857980728,4.2965076918750995,-0.09254764305502176
1783696642124785200,7.72178515625,5.145014279991388,4.108887271201611,-0.37519787898808715
1783696642134748000,7.731747802734375,5.00908897524178,3.918978447329998,-0.8078083016987889
1783696642144711000,7.7417109375,4.700518116110563,3.7478316070735453,-1.185197845512256
1783696642154674200,7.751674072265625,4.296425274288654,3.611586568850279,-1.325182873981446
1783696642164637200,7.76163720703125,3.781503575050831,3.4381992561906576,-1.2576437077157199
1783696642174600200,7.77160009765625,3.1168618544667956,3.2561516672134396,-1.316599023900926
1783696642184564200,7.781564208984375,2.344972642084956,3.045071460497379,-1.4103572117894887
1783696642194527200,7.79152734375,1.5264040961146355,2.719478739416599,-1.3708815259695053
1783696642204490200,7.801490234375,0.6344874053388834,2.160332114005089,-1.345588679280877
1783696642214453000,7.811452880859375,-0.46307285405695436,1.207248130083084,-1.2395602078840136
1783696642224416000,7.821416015625,-1.7158189989894628,-0.08766542397141457,-1.0755581978809088
1783696642234379000,7.83137890625,-3.1387457694947716,-1.4994196430772542,-0.6167899822153151
1783696642244342000,7.841342041015625,-4.134190054762363,-2.636462018033862,-0.06519567187950015
1783696642254305000,7.851304931640625,-4.409596895438432,-3.406729766693711,0.05980594166517257
1783696642264268000,7.86126806640625,-4.548001157522202,-4.468822991389036,0.42256724066734314
1783696642274232000,7.871232177734375,-5.5064300096035,-6.349917892774939,1.7151427071630954
1783696642284195000,7.881195068359375,-6.518278901705146,-7.854681819489598,3.249700299116969
1783696642294158000,7.891157958984375,-6.485061107236146,-7.880207890412211,4.028483947187662
1783696642304121000,7.90112109375,-5.685360343343019,-7.62960874325633,4.296905751281977
1783696642314084000,7.911083984375,-4.599864615750312,-7.667198176938295,4.478894303548336
1783696642324047000,7.921047119140625,-3.858823546096682,-7.733575313687324,4.481855491441488
1783696642334010000,7.931010009765625,-4.257620035076141,-7.581701329177617,4.468035932664573
1783696642343973000,7.94097314453125,-5.559398798725009,-6.882399214100837,4.290962332707643
1783696642353936000,7.950935791015625,-6.5970952487885945,-5.961459842458367,3.8435318689405915
1783696642363899000,7.96089892578125,-7.102244911074638,-5.109254399824142,3.068128510957956
1783696642373863000,7.97086279296875,-6.758787447479367,-4.205238105931878,1.7235640601582825
1783696642383826000,7.980825927734375,-6.012150749775767,-3.183133192753792,-0.032022593335062265
1783696642393789000,7.990788818359375,-5.737782604497671,-2.1879881826937195,-1.5009959524832666
1783696642403752200,8.000752197265625,-5.50273758482635,-1.1104437063664196,-2.256604622802138
1783696642413715200,8.010715087890626,-4.511024302780628,-0.10023907434046268,-2.582061734804511
1783696642423678200,8.02067822265625,-2.7046453274220226,0.4520341581702232,-2.8613118069052694
1783696642433641000,8.030640869140624,-0.8466519001603126,0.5574842451572418,-3.0346693089485166
1783696642443604000,8.04060400390625,0.4993319159179926,0.7588286552786827,-2.856542108285427
1783696642453567000,8.05056689453125,1.5951538072139024,0.9362094214886426,-2.730911403056979
1783696642463530000,8.060530029296874,2.5358587865561244,1.1585329067528247,-2.8087893002465365
1783696642473494000,8.070493896484376,3.328972573274374,1.4343348842263222,-2.866622480534017
1783696642483457000,8.08045703125,4.000377796643972,1.7704057447016237,-2.8731720483079553
1783696642493420000,8.090419921875,4.404228061881661,2.2794167585909366,-2.7575322834789753
1783696642503383000,8.100383056640625,4.610619818520545,2.928751604449749,-2.4565105245530603
1783696642513346000,8.110345947265625,4.809304069522023,3.4404484964221713,-2.1727032275393605
1783696642523309000,8.12030908203125,5.00315724710524,3.7770074326753615,-1.894890494765341
1783696642533272000,8.13027197265625,5.1111061651706695,4.026034800469875,-1.5526485444396734
1783696642543235000,8.140235107421875,5.185871191036701,4.277208532643318,-1.1470863607175648
1783696642553198000,8.150197998046876,5.267345359152555,4.482963744944334,-0.8207432596608996
1783696642563161000,8.1601611328125,5.408067835050821,4.686742688736319,-0.7421624748989939
1783696642573125000,8.170125,5.671814633071422,4.908868605601787,-0.7745363658897578
1783696642583088000,8.180088134765626,6.05921762137711,5.070043502420186,-0.9050026745811104
1783696642593051000,8.19005078125,6.490323557808995,5.2185909728556865,-1.0461522898502646
1783696642603014000,8.200013916015624,6.891258227860927,5.29743654603362,-1.209483195658773
1783696642612977200,8.20997705078125,7.081909979054331,5.183819519203901,-1.3647149661637843
1783696642622940200,8.219940185546875,7.112007011154294,5.063626036593318,-1.5111771547578274
1783696642632903200,8.229903076171874,7.20067664373219,5.003268306264281,-1.7622654006049037
1783696642642866200,8.2398662109375,7.302905430585145,4.910273796224594,-2.0616617502860723
1783696642652829200,8.2498291015625,7.257816581058502,4.592766766443848,-2.1730592013701795
1783696642662792000,8.2597919921875,6.96359631884098,4.127971326377987,-2.062782424879074
1783696642672756000,8.269755859375,6.141493753525614,3.2255829259485003,-1.8018889704629777
1783696642682719000,8.279718994140625,4.541420610088109,1.5982137793064117,-0.9846204011753201
1783696642692682000,8.289681884765624,2.8715841945946217,0.19971593213677405,0.5052369021780788
1783696642702645000,8.29964501953125,1.2527981673806905,-0.5050508780866861,1.683408429250121
1783696642712608000,8.30960791015625,-0.20078268458545206,-0.9308610461980104,2.181169150328636
1783696642722571000,8.319571044921876,-1.2831588188529013,-1.537964185526967,2.1051824737131595
1783696642732534300,8.3295341796875,-2.6434207511305807,-2.960534982201457,1.754436168283969
1783696642742497000,8.3394970703125,-5.018169522798061,-5.013693838688731,1.632702908885479
1783696642752460000,8.3494599609375,-7.687949873065948,-6.626861441498995,1.811073855176568
1783696642762423000,8.359423095703125,-9.284284999018906,-6.829162129431962,2.130234935774654
1783696642772387000,8.369386962890625,-9.533022443956137,-6.69540773898065,3.086765991410613
1783696642782350000,8.37935009765625,-8.66336259317398,-6.97797438828349,4.405326086251438
1783696642792313000,8.38931298828125,-7.262474051475524,-7.121185173866152,4.985018948346376
1783696642802276000,8.399276123046874,-6.653161419403553,-7.024990991002321,4.788137362852693
1783696642812239000,8.409239013671876,-6.931353506883978,-6.683026396313309,4.616974740505218
1783696642822201900,8.419201904296875,-7.598760600528121,-6.332692032685875,4.681399574142694
1783696642832165000,8.4291650390625,-7.848119392234087,-6.066264032757282,4.243319707044959
1783696642842128000,8.4391279296875,-7.216904724955558,-5.464558368557691,3.0030127724468705
1783696642852091000,8.4490908203125,-6.174208859169483,-4.469096547633409,1.3212220075264571
1783696642862055000,8.459054931640624,-5.286696540832519,-3.3368495902597903,-0.17994528293572365
1783696642872018000,8.469017822265625,-4.583444226825237,-2.1900451152235267,-0.9813134685844183
1783696642881981000,8.47898095703125,-3.6420413283467292,-1.1296382361799477,-1.219438772483915
1783696642891944000,8.48894384765625,-2.015117002862692,-0.47724634083807466,-1.2770195854455233
1783696642901907000,8.498906982421875,-0.025915362501144408,-0.11070727686285972,-1.3509402694419026
1783696642911870000,8.508869873046875,1.5780571264624594,0.34369419496059417,-1.3964241096355021
1783696642921832700,8.518832763671876,2.8019430876135822,0.7739993364036083,-1.6216586600407956
1783696642931795700,8.528795654296875,3.6004847445994614,1.2141472419470547,-2.0220172837704418
1783696642941759000,8.538759033203124,3.921369141858816,1.584333722513914,-2.516404729023576
1783696642951722000,8.548721923828126,3.836381997185945,1.7116022580772636,-2.946007859677076
1783696642961686000,8.55868603515625,3.5434845080047843,1.7537182292729616,-3.215742207674682
1783696642971649000,8.56864892578125,3.240309954959154,1.9659464369803665,-3.2956413815587755
1783696642981612000,8.578612060546876,2.8844214643359183,2.235987366709113,-3.129770728139579
1783696642991575000,8.588574951171875,2.6003958483964205,2.504856037788093,-2.7692341194495556
1783696643001537800,8.598537841796874,2.425000118523836,2.8327243025854227,-2.2775383974984287
1783696643011500800,8.608500732421875,2.502107323601842,3.1516026207193732,-1.779449905770272
1783696643021463800,8.6184638671875,2.830763523906469,3.448546462681889,-1.4219281148567795
1783696643031426800,8.6284267578125,3.3664994631141423,3.5586566504344344,-1.0766684241451323
1783696643041389800,8.638389892578125,3.890933671584725,3.591221826213598,-0.7767020194910467
1783696643051353000,8.64835302734375,4.435726777473092,3.665889821445942,-0.6231193313673138
1783696643061316900,8.65831689453125,4.910953595182299,3.7748593147307634,-0.6432270305030048
1783696643071280000,8.668280029296875,5.144893283960223,3.8172242922514674,-0.8489784434117377
1783696643081243000,8.678242919921875,5.319436196395754,3.8054374083459375,-1.1856200895123183
1783696643091206000,8.688205810546876,5.6257583998173475,3.825474234202504,-1.5416041494645178
1783696643101169000,8.6981689453125,5.804965796932578,3.84418770250082,-1.6509147112719713
1783696643111132000,8.7081318359375,5.767410850042104,3.795643159562349,-1.7156456882491706
1783696643121095000,8.718094970703126,5.63759730617106,3.8855169072329994,-1.696524077541381
1783696643131058000,8.728057861328125,5.445111909809708,4.107334781062603,-1.6393175047196447
1783696643141021000,8.73802099609375,5.143803735157847,4.177054213976859,-1.5658331663139164
1783696643150984000,8.74798388671875,4.781528758367895,4.1295413521736855,-1.2906225788623094
1783696643160947700,8.75794775390625,4.365988055336475,3.7767765465289354,-0.6647890201002359
1783696643170910700,8.76791064453125,3.982508962476253,3.0309301224201914,0.4366664931684732
1783696643180874000,8.7778740234375,3.6946535591155287,1.8854981047809123,1.6269561819270253
1783696643190837000,8.7878369140625,3.104435503613949,0.36490357172787186,2.7915862365111708
1783696643200800000,8.797800048828124,1.4921499443352222,-1.46154905436635,3.8664492186695334
1783696643210763000,8.807762939453125,-1.1508277392029762,-3.575743686574697,4.359508922450244
1783696643220726000,8.81772607421875,-3.7660616757690906,-5.668361862269044,4.3278155610695475
1783696643230688800,8.827688720703126,-5.9130175908505915,-7.160066985446214,3.8661113650172947
1783696643240651800,8.83765185546875,-7.6442352345019575,-7.353231011721491,2.9091096231296656
1783696643250614800,8.84761474609375,-8.808063325053453,-6.632890784791112,2.5171236909478902
1783696643260578800,8.857578857421874,-9.230057734268904,-6.537277616685628,3.2860277500391004
1783696643270541800,8.867541748046875,-8.842652992397547,-6.321329511672258,4.1037645213603975
1783696643280504800,8.8775048828125,-8.570341195127368,-5.6077738303154705,4.610148693877458
1783696643290468000,8.887468017578126,-9.660393855372071,-5.024336813256144,5.467455259042978
1783696643300431000,8.89743115234375,-11.48011746547222,-4.7110094072476025,5.951322479325532
1783696643310393900,8.907393798828124,-12.535659953349828,-4.17666199978888,5.181814609122276
1783696643320356900,8.91735693359375,-12.43628889401555,-4.319649205748736,5.267136100316048
1783696643330320000,8.92731982421875,-10.241007047182322,-3.683567516955733,1.7177184028699992
1783696643340283000,8.937282958984374,-7.673560113185644,-3.3047973324388265,0.8266986609339714
1783696643350246000,8.947245849609375,-5.725654944330453,-2.474810735875368,0.6414131129488349
1783696643360210000,8.9572099609375,-4.455347423744201,-1.4839835890144109,0.6874936038613318
1783696643370173000,8.9671728515625,-3.108976069653034,-0.5908066690444946,0.7048739238597452
1783696643380136000,8.977135986328125,-1.3141963466733693,0.04677636422216892,0.5041119898013771
1783696643390098700,8.9870986328125,0.5887468139052391,0.5424418665871024,0.32832024634853
1783696643400062000,8.99706201171875,2.3071569984316826,0.7774439238995313,-0.0015726561442017555
1783696643410025000,9.00702490234375,3.9072804107517003,1.0803706396639345,-0.6948755308061838
1783696643419988000,9.016988037109375,5.212804790669679,1.5348469302892684,-1.3453865808375178
1783696643429951000,9.026950927734376,5.99541530355215,2.0350173428580165,-1.7241517969183622
1783696643439914000,9.0369140625,6.320519948855042,2.4785157278731464,-1.9300319507732986
1783696643449877000,9.046876953125,6.519101908525824,2.789805198313296,-2.0534576933033764
1783696643459839700,9.05683984375,6.539768264457583,2.9569565391927957,-1.972093707563728
1783696643469803800,9.0668037109375,6.255470261317491,3.202380621798336,-1.6273520493768154
1783696643479766800,9.076766845703125,5.787141386428475,3.2863638501256704,-1.3161995031893252
1783696643489729800,9.086729736328126,5.391186258354783,3.2937656508147715,-1.21191845998168
1783696643499692800,9.09669287109375,5.2688925885945554,3.3233164472088217,-1.2084512222625314
1783696643509656000,9.106656005859374,5.223444258105754,3.2772508616045117,-1.220329437713325
1783696643519619000,9.116619140625,5.088680398350954,3.247781021492183,-1.0872603991776704
1783696643529582000,9.12658203125,4.875899232935905,3.172312231270969,-0.8924012594223022
1783696643539544800,9.136544921875,4.700316456058621,3.0281366923093795,-0.7186360533609986
1783696643549507800,9.1465078125,4.614212874576449,2.822600967977941,-0.7788315788656472
1783696643559471900,9.156471923828125,4.649747129294276,2.696734992688894,-1.0236199939161539
1783696643569435000,9.166434814453124,4.821075171336531,2.6860382421076294,-1.1526089235313235
1783696643579398000,9.17639794921875,5.111711729848385,2.804480497136712,-1.2995537810757756
1783696643589361000,9.18636083984375,5.134551338165998,2.869500081796944,-1.4156367596276103
1783696643599324000,9.196323974609374,4.756713466063141,2.7378894253760575,-1.3029035298950968
1783696643609287000,9.206286865234375,3.9049990218162534,2.465456047552824,-0.8367758183121681
1783696643619250000,9.21625,2.8405618643432855,2.133039033409953,-0.23839871401339768
1783696643629213000,9.226212890625,1.8602771542847156,1.6828467037141321,0.17609423353075981
1783696643639176000,9.236176025390625,0.7807727760612965,1.1087363179266452,0.5072882817499339
1783696643649139000,9.246138916015624,-0.23851064995527266,0.2122702932834625,0.7133801786594093
1783696643659102000,9.25610205078125,-0.9535656299591064,-1.068866664353013,0.6521994415096938
1783696643669066000,9.26606591796875,-2.0132897874355313,-2.2753835575520993,0.7228470951847732
1783696643679029000,9.276029052734375,-3.3964135398626327,-3.002898790678382,0.6897190248258411
1783696643688992000,9.285991943359376,-4.735338669601083,-3.1081413723945617,-0.17099954074025153
1783696643698954800,9.295954833984375,-6.187841078680753,-3.3099183287143705,-1.3235494275607167
1783696643708917800,9.305917724609374,-7.877399262732267,-4.046982895952463,-1.6771702655129133
1783696643723240000,9.320239990234375,-9.37061011429727,-5.234658310559392,-0.03427387939319014
1783696643733203000,9.330202880859375,-8.598584708315133,-5.419164398604631,1.086661702632159
1783696643743166000,9.340166015625,-6.749497056564688,-5.372179944589734,1.3728398204304277
1783696643753129000,9.35012890625,-4.719303480601311,-5.799327498784661,1.6994946177847683
1783696643763091700,9.360091796875,-2.5013281559228897,-5.8538926171869035,2.007938927926868
1783696643773055700,9.3700556640625,-1.6716788284897803,-5.718590412771701,2.1943445659831164
