time,seconds_elapsed,z,y,x
1783696772781775000,0.060775146484375,-0.018534880131483078,-0.2000964879989624,1.2287445068359375
1783696772791738000,0.070738037109375,0.007221083622425795,-0.2882343530654907,1.409692406654358
1783696772801701000,0.080701171875,0.022142093628644943,-0.33853477239608765,1.5963053703308105
1783696772811664100,0.0906640625,-0.022119909524917603,-0.41259461641311646,1.743842363357544
1783696772821627100,0.100627197265625,-0.11194935441017151,-0.5233855843544006,1.8082472085952759
1783696772831590100,0.110590087890625,-0.17330513894557953,-0.6692429184913635,1.7514902353286743
1783696772841553000,0.120552978515625,-0.19119960069656372,-0.8969125747680664,1.5687119960784912
1783696772851517000,0.130516845703125,-0.17771627008914948,-1.1732245683670044,1.3017282485961914
1783696772861480000,0.14047998046875,-0.199892058968544,-1.4054901599884033,1.0130513906478882
1783696772871443000,0.15044287109375,-0.2895790934562683,-1.4761691093444824,0.7496024370193481
1783696772881406000,0.160406005859375,-0.33593207597732544,-1.4174071550369263,0.4746353328227997
1783696772891369200,0.170369140625,-0.2901052236557007,-1.086591124534607,0.21599926054477692
1783696772901332200,0.180332275390625,-0.1982017457485199,-0.5693995356559753,-0.04003385454416275
1783696772911295200,0.190295166015625,-0.16373485326766968,0.021987861022353172,-0.3745442032814026
1783696772921258000,0.200258056640625,-0.1013391837477684,0.5565511584281921,-0.6990033984184265
1783696772931221000,0.210220947265625,0.07574264705181122,1.000759482383728,-0.9492161870002747
1783696772941184000,0.22018408203125,0.42283105850219727,1.338304042816162,-1.0940091609954834
1783696772951147000,0.23014697265625,0.9369321465492249,1.511121392250061,-1.0791095495224
1783696772961110000,0.240110107421875,1.4543720483779907,1.5460612773895264,-0.9495971202850342
1783696772971072500,0.250072509765625,1.793209195137024,1.6101592779159546,-0.8108418583869934
1783696772981035500,0.260035400390625,1.9219591617584229,1.7176170349121094,-0.7875086665153503
1783696772990998500,0.26999853515625,1.8325108289718628,1.5585438013076782,-0.8566347360610962
1783696773000961500,0.27996142578125,1.4751085042953491,1.0093259811401367,-0.9313527941703796
1783696773010924300,0.28992431640625,0.8961676955223083,0.3063354194164276,-0.8997189402580261
1783696773020887300,0.29988720703125,0.259008526802063,-0.25933945178985596,-0.7345885634422302
1783696773030850300,0.309850341796875,-0.23851816356182098,-0.632997453212738,-0.5072718262672424
1783696773040814300,0.319814453125,-0.5600805878639221,-0.8892561197280884,-0.2763041853904724
1783696773050777300,0.32977734375,-0.7378308773040771,-0.9360427856445312,-0.07575962692499161
1783696773060740400,0.339740234375,-0.844491720199585,-0.7429372072219849,0.06028822436928749
1783696773070703600,0.34970361328125,-0.8316190838813782,-0.6573171019554138,0.16033414006233215
1783696773080666600,0.35966650390625,-0.6971369385719299,-0.687648355960846,0.20697185397148132
1783696773090629400,0.36962939453125,-0.6275346875190735,-0.6002596020698547,0.14070282876491547
1783696773100592400,0.37959228515625,-0.6156534552574158,-0.5361834764480591,0.020538149401545525
1783696773110555400,0.389555419921875,-0.6285274624824524,-0.4330904185771942,-0.03003554418683052
1783696773120518400,0.399518310546875,-0.6187832951545715,-0.3138282895088196,0.02751385048031807
1783696773130481400,0.4094814453125,-0.5725113749504089,-0.14604619145393372,0.18974722921848297
1783696773140444400,0.4194443359375,-0.49674031138420105,0.03532738238573074,0.43372902274131775
1783696773150407700,0.42940771484375,-0.41095829010009766,0.2522421181201935,0.7248207330703735
1783696773160370400,0.439370361328125,-0.3314528167247772,0.537590503692627,1.0309481620788574
1783696773170333400,0.44933349609375,-0.26369401812553406,0.8700664639472961,1.3291865587234497
1783696773180296400,0.45929638671875,-0.25406908988952637,1.2051007747650146,1.5425169467926025
1783696773190259500,0.469259521484375,-0.3070438802242279,1.4698375463485718,1.5603020191192627
1783696773200222500,0.479222412109375,-0.3160514831542969,1.948215126991272,1.1398992538452148
1783696773210185500,0.489185546875,-0.2795076072216034,1.7064788341522217,0.8300454616546631
1783696773220148500,0.4991484375,-0.2083674818277359,1.5124837160110474,0.4816650152206421
1783696773230112500,0.509112548828125,-0.09468033909797668,1.4080127477645874,0.23792587220668793
1783696773240075300,0.5190751953125,0.09661658853292465,1.311562180519104,0.13699747622013092
1783696773250038300,0.529038330078125,0.2267887145280838,0.98690265417099,0.23319005966186523
1783696773260001500,0.53900146484375,0.2675926983356476,0.5360543131828308,0.38098031282424927
1783696773269964500,0.548964599609375,0.1528855413198471,0.008722860366106033,0.47782376408576965
1783696773279927600,0.558927490234375,-0.10257646441459656,-0.54827880859375,0.5413572788238525
1783696773289890600,0.568890625,-0.3686949610710144,-1.1469463109970093,0.6137771606445312
1783696773299853600,0.578853515625,-0.5916186571121216,-1.723217487335205,0.7147154808044434
1783696773309816300,0.58881640625,-0.7491166591644287,-2.105396270751953,0.8528286218643188
1783696773319779300,0.598779296875,-0.7983624935150146,-2.2284834384918213,1.011298418045044
1783696773329742300,0.608742431640625,-0.7535467743873596,-2.1880321502685547,1.167655348777771
1783696773339705300,0.618705322265625,-0.700133204460144,-2.115983724594116,1.2627677917480469
1783696773349668600,0.628668701171875,-0.6898608803749084,-1.994808554649353,1.263373613357544
1783696773359631600,0.638631591796875,-0.7047934532165527,-1.6988050937652588,1.1749550104141235
1783696773369594400,0.648594482421875,-0.650450587272644,-1.4293781518936157,0.9449667930603027
1783696773379557400,0.658557373046875,-0.4741455018520355,-1.2753229141235352,0.6075626015663147
1783696773389520400,0.668520263671875,-0.21217754483222961,-1.1575098037719727,0.25202712416648865
1783696773399483400,0.6784833984375,0.01638440228998661,-1.051339864730835,-0.13220931589603424
1783696773409447400,0.688447509765625,0.16137301921844482,-1.0053105354309082,-0.5308784246444702
1783696773419410400,0.698410400390625,0.24024954438209534,-0.9593653082847595,-0.8561455011367798
1783696773429373400,0.70837353515625,0.3041347861289978,-0.8792963027954102,-1.0712095499038696
1783696773439336400,0.71833642578125,0.36281639337539673,-0.8461890816688538,-1.2347205877304077
1783696773449299500,0.728299560546875,0.4250222444534302,-0.916547417640686,-1.410431146621704
1783696773459262500,0.738262451171875,0.5098223686218262,-1.050948143005371,-1.5681941509246826
1783696773469225500,0.7482255859375,0.6280073523521423,-1.137704849243164,-1.683297872543335
1783696773479188500,0.7581884765625,0.7399101257324219,-1.1361955404281616,-1.7748324871063232
1783696773489151500,0.7681513671875,0.7815942168235779,-1.0867797136306763,-1.8459066152572632
1783696773499114500,0.778114501953125,0.6727550029754639,-1.1203153133392334,-1.869912028312683
1783696773509077500,0.788077392578125,0.4333813190460205,-1.1940526962280273,-1.7500075101852417
1783696773519040300,0.798040283203125,0.19815392792224884,-1.2529535293579102,-1.4483827352523804
1783696773529003300,0.808003173828125,0.05703170225024223,-1.3922592401504517,-1.0322211980819702
1783696773538966500,0.817966552734375,0.03880354017019272,-1.6071856021881104,-0.5836427211761475
1783696773548929500,0.827929443359375,0.17476218938827515,-1.8372100591659546,-0.18835239112377167
1783696773558892500,0.837892578125,0.4019978940486908,-1.9620660543441772,0.12247338891029358
1783696773568855600,0.84785546875,0.5907949805259705,-1.9577301740646362,0.3424142897129059
1783696773578819600,0.857819580078125,0.6545852422714233,-1.8517956733703613,0.4486730694770813
1783696773588782600,0.867782470703125,0.5725330114364624,-1.6495338678359985,0.4730604290962219
1783696773598745300,0.877745361328125,0.31243664026260376,-1.3930399417877197,0.44948330521583557
1783696773608708400,0.887708251953125,0.014088556170463562,-1.079527497291565,0.41512158513069153
1783696773618671400,0.89767138671875,-0.12452985346317291,-0.6664230227470398,0.3619418144226074
1783696773628634400,0.90763427734375,-0.08307641744613647,-0.2023983895778656,0.3212527334690094
1783696773638597400,0.917597412109375,0.009167244657874107,0.17778663337230682,0.3196537494659424
1783696773648560600,0.927560546875,0.11599169671535492,0.4538254141807556,0.32829728722572327
1783696773658523600,0.937523681640625,0.27662578225135803,0.6352521181106567,0.30867764353752136
1783696773668486400,0.947486328125,0.4894120693206787,0.7854541540145874,0.29418498277664185
1783696773678449400,0.957449462890625,0.6989295482635498,0.8251562714576721,0.3395995795726776
1783696773688412400,0.967412353515625,0.8091098666191101,0.7534658312797546,0.43286722898483276
1783696773698375400,0.97737548828125,0.7527831196784973,0.5115879774093628,0.5923959612846375
1783696773708338400,0.98733837890625,0.5972028374671936,0.21155141294002533,0.7610992193222046
1783696773718301400,0.997301513671875,0.4297965168952942,-0.11354183405637741,0.9390690326690674
1783696773728264400,1.007264404296875,0.2780298888683319,-0.4451373517513275,1.1250466108322144
1783696773738227500,1.0172275390625,0.16710595786571503,-0.8113336563110352,1.2770370244979858
1783696773748190500,1.0271904296875,0.1289156973361969,-1.2342089414596558,1.3276495933532715
1783696773758154500,1.037154541015625,0.19392277300357819,-1.642295241355896,1.3065524101257324
1783696773768117500,1.047117431640625,0.29717111587524414,-1.927246332168579,1.2633413076400757
1783696773778080500,1.05708056640625,0.38176554441452026,-2.0143396854400635,1.282228708267212
1783696773788043500,1.06704345703125,0.3717573881149292,-1.7679963111877441,1.3956793546676636
1783696773798006500,1.077006591796875,0.2257680594921112,-1.2963780164718628,1.5377496480941772
1783696773807969300,1.08696923828125,-0.09648509323596954,-0.842739462852478,1.6506296396255493
1783696773817932300,1.096932373046875,-0.504730761051178,-0.4479639232158661,1.764504313468933
1783696773827895300,1.106895263671875,-0.8716544508934021,-0.10792432725429535,1.8563323020935059
1783696773837858600,1.116858642578125,-1.1375548839569092,0.09220593422651291,1.882777214050293
1783696773847821600,1.126821533203125,-1.2537238597869873,0.061490096151828766,1.8458490371704102
1783696773857784600,1.13678466796875,-1.1993615627288818,-0.1457401067018509,1.783957839012146
1783696773867747600,1.14674755859375,-1.0372251272201538,-0.3969153165817261,1.6457147598266602
1783696773877710300,1.15671044921875,-0.9077380895614624,-0.5987637042999268,1.4030821323394775
1783696773887673300,1.16667333984375,-0.8780989646911621,-0.7715240120887756,1.0706762075424194
1783696773897636400,1.17663623046875,-0.882729709148407,-0.8168666362762451,0.7026206254959106
1783696773907599400,1.186599365234375,-0.8350194692611694,-0.6623138189315796,0.3560701608657837
1783696773917562400,1.196562255859375,-0.7147166728973389,-0.46089664101600647,0.04107039421796799
1783696773927525600,1.206525634765625,-0.5397893190383911,-0.30363965034484863,-0.2342863380908966
1783696773937488600,1.216488525390625,-0.3564912676811218,-0.1466144174337387,-0.42467960715293884
1783696773947452700,1.22645263671875,-0.1391802579164505,0.14762651920318604,-0.5149093866348267
1783696773957415400,1.23641552734375,0.16567687690258026,0.3723735809326172,-0.5843155384063721
1783696773967379200,1.246379150390625,0.4223070740699768,0.5077873468399048,-0.6665933728218079
1783696773977342000,1.256342041015625,0.5854501724243164,0.4892713725566864,-0.7676011919975281
1783696773987305000,1.266304931640625,0.5810985565185547,0.40532559156417847,-0.8594115376472473
1783696773997268000,1.27626806640625,0.43909549713134766,0.2991623282432556,-0.9209629893302917
1783696774007231000,1.28623095703125,0.2508305013179779,0.23168447613716125,-0.9357839822769165
1783696774017194000,1.296194091796875,0.054861851036548615,0.2842329740524292,-0.8938177227973938
1783696774027157000,1.306156982421875,-0.09204237908124924,0.45346754789352417,-0.8354313969612122
1783696774037120000,1.3161201171875,-0.19309547543525696,0.6770809888839722,-0.7861325740814209
1783696774047083000,1.3260830078125,-0.260566383600235,0.8451544046401978,-0.7816755175590515
1783696774057046000,1.3360458984375,-0.3580632507801056,0.8295107483863831,-0.8010459542274475
1783696774067009000,1.346009033203125,-0.4385437071323395,0.715569019317627,-0.785163402557373
1783696774076972000,1.355971923828125,-0.4801153838634491,0.5605316162109375,-0.7358540296554565
1783696774086935000,1.36593505859375,-0.48336976766586304,0.47908076643943787,-0.6462493538856506
1783696774096898000,1.37589794921875,-0.4547024667263031,0.4855024516582489,-0.5161342620849609
1783696774106860800,1.38586083984375,-0.43029433488845825,0.49418729543685913,-0.35395920276641846
1783696774116823800,1.39582373046875,-0.4287257790565491,0.48864564299583435,-0.18061529099941254
1783696774126787000,1.405787109375,-0.4147718846797943,0.46863678097724915,0.0018591774860396981
1783696774136750000,1.41575,-0.4280421733856201,0.45255714654922485,0.13980133831501007
1783696774146713900,1.4257138671875,-0.4853043854236603,0.36024346947669983,0.1921180784702301
1783696774156677000,1.435677001953125,-0.5773358941078186,0.2048298567533493,0.14914315938949585
1783696774166640000,1.44564013671875,-0.6380735039710999,0.0640445202589035,0.05942126736044884
1783696774176603100,1.45560302734375,-0.6359995007514954,-0.11575689166784286,-0.023738423362374306
1783696774186566000,1.46556591796875,-0.6011765003204346,-0.335496723651886,-0.05762395262718201
1783696774196529000,1.47552880859375,-0.5970444679260254,-0.5912672281265259,-0.015852974727749825
1783696774206492000,1.485491943359375,-0.6269659399986267,-0.7977266907691956,0.10417808592319489
1783696774216455000,1.495454833984375,-0.6347909569740295,-0.8984783291816711,0.2942464053630829
1783696774226418000,1.50541796875,-0.5943900346755981,-0.768340528011322,0.5375086069107056
1783696774236381000,1.515380859375,-0.47412949800491333,-0.4619629979133606,0.7589204907417297
1783696774246344200,1.52534423828125,-0.3597392737865448,-0.2029799222946167,0.8340080380439758
1783696774256307000,1.535306884765625,-0.3397805094718933,-0.001086326432414353,0.7311667799949646
1783696774266270000,1.54527001953125,-0.3640322983264923,0.24916505813598633,0.555910587310791
1783696774276233000,1.55523291015625,-0.43687203526496887,0.43643495440483093,0.40847790241241455
1783696774286196000,1.565196044921875,-0.5638278722763062,0.5675423741340637,0.3820614516735077
1783696774296159000,1.575158935546875,-0.6583259105682373,0.6353986263275146,0.4737693667411804
1783696774306122000,1.5851220703125,-0.6675311326980591,0.6293106079101562,0.6052373647689819
1783696774316085000,1.5950849609375,-0.5485501289367676,0.7554761171340942,0.7512457966804504
1783696774326048000,1.605048095703125,-0.3580768406391144,1.002123475074768,0.8556307554244995
1783696774336011000,1.615010986328125,-0.1753436177968979,1.2025601863861084,0.8266360759735107
1783696774345974000,1.62497412109375,-0.03009534440934658,1.2564839124679565,0.6552610993385315
1783696774355938000,1.63493798828125,0.09266068786382675,1.1701114177703857,0.39725229144096375
1783696774365901000,1.644901123046875,0.20860806107521057,1.0205479860305786,0.12152324616909027
1783696774375864000,1.654864013671875,0.33222755789756775,0.8773090839385986,-0.14441414177417755
1783696774385827000,1.6648271484375,0.4572853446006775,0.7976949214935303,-0.40366968512535095
1783696774395790000,1.6747900390625,0.5622632503509521,0.7809374928474426,-0.6872967481613159
1783696774405752800,1.6847529296875,0.6260595321655273,0.7878537178039551,-0.9954849481582642
1783696774415715800,1.6947158203125,0.6409392952919006,0.8263764381408691,-1.280563235282898
1783696774425678800,1.704678955078125,0.6245989799499512,0.8597959280014038,-1.5043566226959229
1783696774435642000,1.71464208984375,0.6017688512802124,0.8111543655395508,-1.6283215284347534
1783696774445605000,1.724605224609375,0.5845502018928528,0.6582122445106506,-1.6093952655792236
1783696774455568100,1.734568115234375,0.5874525904655457,0.45782357454299927,-1.4732309579849243
1783696774465531000,1.74453076171875,0.5906499624252319,0.25043922662734985,-1.2769778966903687
1783696774475494000,1.754493896484375,0.5644341111183167,0.06563571840524673,-1.0613692998886108
1783696774485457000,1.764456787109375,0.5008865594863892,-0.0820208489894867,-0.8383730053901672
1783696774495420000,1.774419921875,0.4169364273548126,-0.13739649951457977,-0.624140202999115
1783696774505383000,1.7843828125,0.31021106243133545,-0.07326172292232513,-0.4184245765209198
1783696774515346200,1.79434619140625,0.1903741955757141,0.03130533918738365,-0.2319788932800293
1783696774525309200,1.80430908203125,0.06213553994894028,0.16447430849075317,-0.07870705425739288
1783696774535272000,1.81427197265625,-0.052598029375076294,0.3086576759815216,0.028761180117726326
1783696774545235000,1.82423486328125,-0.15241968631744385,0.41952186822891235,0.09399983286857605
1783696774555198000,1.834197998046875,-0.22173337638378143,0.5357608795166016,0.1395360827445984
1783696774565161000,1.844160888671875,-0.23612189292907715,0.630027174949646,0.15811295807361603
1783696774575125000,1.854125,-0.21304795145988464,0.6669901609420776,0.1320868581533432
1783696774585088000,1.864087890625,-0.16540932655334473,0.6704961657524109,0.06476853042840958
1783696774595051000,1.874051025390625,-0.12673808634281158,0.6406853199005127,-0.024269206449389458
1783696774605014000,1.884013916015625,-0.11201906204223633,0.5718812346458435,-0.07000713050365448
1783696774614976800,1.893976806640625,-0.10999973118305206,0.541490375995636,-0.0451032929122448
1783696774624940000,1.90393994140625,-0.125340074300766,0.49875542521476746,0.00987553782761097
1783696774634903000,1.913903076171875,-0.15227143466472626,0.376728355884552,0.05296902731060982
1783696774644866000,1.923865966796875,-0.20031379163265228,0.2822660505771637,0.06314816325902939
1783696774654829000,1.9338291015625,-0.23488229513168335,0.321313738822937,0.03519049286842346
1783696774664792000,1.9437919921875,-0.23418986797332764,0.4993375241756439,-0.047479089349508286
1783696774674755000,1.953755126953125,-0.2314954698085785,0.7672756910324097,-0.20611542463302612
1783696774684717800,1.9637177734375,-0.20397382974624634,1.0348948240280151,-0.3846595883369446
1783696774694680800,1.973680908203125,-0.07450666278600693,1.1490126848220825,-0.4655909240245819
1783696774704643800,1.983643798828125,0.13128937780857086,1.105716347694397,-0.4197659194469452
1783696774714607000,1.993607177734375,0.23020067811012268,0.9396774172782898,-0.2711074650287628
1783696774724570000,2.003570068359375,0.11476170271635056,0.6547585725784302,-0.07743068784475327
1783696774734533000,2.013533203125,-0.13290514051914215,0.3357813060283661,0.1694028675556183
1783696774744495900,2.023495849609375,-0.38196104764938354,0.04712582379579544,0.4545512795448303
1783696774754459000,2.033458984375,-0.5432566404342651,-0.17251096665859222,0.696347177028656
1783696774764422000,2.043421875,-0.5618167519569397,-0.2337506115436554,0.8977546095848083
1783696774774385000,2.053385009765625,-0.4255845248699188,-0.11210864782333374,1.043990969657898
1783696774784348000,2.063347900390625,-0.20047710835933685,0.12751460075378418,1.0813751220703125
1783696774794311200,2.073311279296875,0.026277147233486176,0.4717019498348236,1.0318979024887085
1783696774804274200,2.083274169921875,0.21712033450603485,0.7653764486312866,0.9201328158378601
1783696774814238000,2.093238037109375,0.30858665704727173,0.8352659344673157,0.6978074908256531
1783696774824201000,2.103200927734375,0.3132117688655853,0.7322079539299011,0.4338584244251251
1783696774834164000,2.1131640625,0.31859177350997925,0.48954230546951294,0.2060805708169937
1783696774844127000,2.123126953125,0.33923953771591187,0.18682371079921722,0.053093139082193375
1783696774854090000,2.133090087890625,0.3756736218929291,-0.11330171674489975,-0.0405735969543457
1783696774864053000,2.143052978515625,0.4194900691509247,-0.38027775287628174,-0.13347584009170532
1783696774874016000,2.15301611328125,0.46482908725738525,-0.6235020756721497,-0.277998149394989
1783696774883979000,2.16297900390625,0.5071730613708496,-0.7873996496200562,-0.47872936725616455
1783696774893941800,2.172941650390625,0.52926105260849,-0.820406973361969,-0.7054237127304077
1783696774903905000,2.182905029296875,0.4975430369377136,-0.7377214431762695,-0.9177082777023315
1783696774913868000,2.192867919921875,0.4480641186237335,-0.5843774676322937,-1.08347487449646
1783696774923831000,2.2028310546875,0.4131665825843811,-0.4214135408401489,-1.1925833225250244
1783696774933794000,2.2127939453125,0.3880397379398346,-0.28642377257347107,-1.2534006834030151
1783696774943757000,2.222757080078125,0.3434365689754486,-0.1565755009651184,-1.2951422929763794
1783696774953720000,2.232719970703125,0.27772238850593567,-0.015266859903931618,-1.3044211864471436
1783696774963682800,2.242682861328125,0.24086904525756836,0.12352271378040314,-1.258364200592041
1783696774973645800,2.252645751953125,0.24721242487430573,0.2772030830383301,-1.1505945920944214
1783696774983608800,2.26260888671875,0.30171695351600647,0.4235456585884094,-0.9911782741546631
1783696774993571800,2.27257177734375,0.34651046991348267,0.5304903984069824,-0.7910211682319641
1783696775003534800,2.282534912109375,0.3623490631580353,0.5508827567100525,-0.5736638307571411
1783696775013497900,2.292497802734375,0.3601330816745758,0.4788057506084442,-0.3838095963001251
1783696775023460900,2.3024609375,0.35365867614746094,0.32967567443847656,-0.22893880307674408
1783696775033424000,2.312423828125,0.34768813848495483,0.16475516557693481,-0.10036645829677582
1783696775043388000,2.322387939453125,0.3348703384399414,0.030105996876955032,0.003516801167279482
1783696775053351000,2.332350830078125,0.2973087728023529,-0.035770345479249954,0.08751743286848068
1783696775063313700,2.342313720703125,0.24870847165584564,-0.03674772381782532,0.15849919617176056
1783696775073276700,2.352276611328125,0.19144925475120544,0.03093641996383667,0.22388270497322083
1783696775083239700,2.36223974609375,0.12625561654567719,0.1233275979757309,0.2804117798805237
1783696775093203000,2.372202880859375,0.03994128480553627,0.17501825094223022,0.3201846778392792
1783696775103166000,2.382166015625,-0.06957375258207321,0.18867093324661255,0.31620192527770996
1783696775113129000,2.39212890625,-0.20090007781982422,0.16121737658977509,0.2585122585296631
1783696775123092000,2.402092041015625,-0.324980229139328,0.09860405325889587,0.16380836069583893
1783696775133054700,2.4120546875,-0.4275221824645996,0.01278857234865427,0.067509725689888
1783696775143017700,2.422017822265625,-0.522615373134613,-0.11947625875473022,-0.02268301136791706
1783696775152980700,2.431980712890625,-0.624342679977417,-0.26553627848625183,-0.07414008677005768
1783696775162943700,2.44194384765625,-0.6534510254859924,-0.33163565397262573,-0.02474137768149376
1783696775172906800,2.45190673828125,-0.5724055767059326,-0.24845364689826965,0.11126305907964706
1783696775182870000,2.4618701171875,-0.44895607233047485,-0.12119527906179428,0.22598059475421906
1783696775192832800,2.471832763671875,-0.32673922181129456,-0.008987701497972012,0.22060249745845795
1783696775202795800,2.481795654296875,-0.2545185387134552,-0.024220449849963188,0.04519286006689072
1783696775212758800,2.4917587890625,-0.32044684886932373,-0.2099730223417282,-0.22318923473358154
1783696775222721800,2.5017216796875,-0.49798861145973206,-0.39818447828292847,-0.3706071674823761
1783696775232684800,2.511684814453125,-0.686474621295929,-0.4052581489086151,-0.24012719094753265
1783696775242647800,2.521647705078125,-0.8155966997146606,-0.20888304710388184,0.12142408639192581
1783696775252610800,2.53161083984375,-0.8156889081001282,0.10941702127456665,0.5542078018188477
1783696775262573800,2.54157373046875,-0.7049860954284668,0.4312722682952881,0.8237902522087097
1783696775272536800,2.551536865234375,-0.5599270462989807,0.6445976495742798,0.8386424779891968
1783696775282499800,2.561499755859375,-0.45084264874458313,0.7452414631843567,0.7539600729942322
1783696775292463900,2.5714638671875,-0.3895827829837799,0.7324997186660767,0.6829313039779663
1783696775302427000,2.581427001953125,-0.41103267669677734,0.5347144603729248,0.595251739025116
1783696775312390000,2.591389892578125,-0.4581834673881531,0.2586350739002228,0.47922083735466003
1783696775322353000,2.601352783203125,-0.4775875508785248,0.004790543112903833,0.3419732451438904
1783696775332316000,2.61131591796875,-0.4459606111049652,-0.23482568562030792,0.20681938529014587
1783696775342278700,2.621278564453125,-0.3639453947544098,-0.37525683641433716,0.09657863527536392
1783696775352241700,2.63124169921875,-0.25259676575660706,-0.43014609813690186,0.001930273836478591
1783696775362204700,2.64120458984375,-0.14115650951862335,-0.4572954475879669,-0.0936838686466217
1783696775372168000,2.65116796875,-0.03577480465173721,-0.5079934597015381,-0.2246805876493454
1783696775382131000,2.661130859375,0.057119715958833694,-0.6197615265846252,-0.4371180236339569
1783696775392094000,2.671093994140625,0.10977455228567123,-0.7669197916984558,-0.7317209839820862
1783696775402057000,2.681056884765625,0.12955306470394135,-0.8843438625335693,-1.049268126487732
1783696775412019700,2.691019775390625,0.13907667994499207,-0.921812117099762,-1.330508828163147
1783696775421982700,2.700982666015625,0.14260803163051605,-0.8181205987930298,-1.5211973190307617
1783696775431945700,2.71094580078125,0.15378566086292267,-0.591789186000824,-1.6239043474197388
1783696775441908700,2.72090869140625,0.17376576364040375,-0.2922980487346649,-1.6498509645462036
1783696775451871700,2.730871826171875,0.20875093340873718,0.04775628820061684,-1.5999104976654053
1783696775461835000,2.7408349609375,0.25738877058029175,0.3822173476219177,-1.47791588306427
1783696775471797800,2.7507978515625,0.3081222474575043,0.6831935048103333,-1.289933204650879
1783696775481760800,2.7607607421875,0.3591793179512024,0.9337810277938843,-1.0673274993896484
1783696775491723800,2.770723876953125,0.37705549597740173,1.109302043914795,-0.8370714783668518
1783696775501686800,2.780686767578125,0.3587515950202942,1.1919270753860474,-0.6162977814674377
1783696775511649800,2.79064990234375,0.3018455505371094,1.143673300743103,-0.41740405559539795
1783696775521612800,2.80061279296875,0.22969678044319153,0.98325514793396,-0.2580964267253876
1783696775531575800,2.810575927734375,0.16932079195976257,0.7679702639579773,-0.1289973109960556
1783696775541538800,2.820538818359375,0.1352435201406479,0.5378893613815308,-0.02571406401693821
1783696775551502600,2.830502685546875,0.11684533208608627,0.33030709624290466,0.05527826398611069
1783696775561465900,2.8404658203125,0.0929996520280838,0.14686883985996246,0.10003907978534698
1783696775571428900,2.850428955078125,0.03662613406777382,-0.01858186349272728,0.11890943348407745
1783696775581392000,2.860391845703125,-0.03250473365187645,-0.1394672691822052,0.1087513342499733
1783696775591355000,2.87035498046875,-0.0983683243393898,-0.25827088952064514,0.0668702945113182
1783696775601318000,2.88031787109375,-0.16890986263751984,-0.3626404404640198,0.014505626633763313
1783696775611281000,2.890281005859375,-0.2344459593296051,-0.4504230320453644,-0.019053321331739426
1783696775621243600,2.90024365234375,-0.2730269134044647,-0.517503023147583,-0.02763162925839424
1783696775631206700,2.91020654296875,-0.3121168911457062,-0.5906071066856384,-0.02425847388803959
1783696775641169700,2.920169677734375,-0.3952605128288269,-0.7130632996559143,0.022992663085460663
1783696775651133000,2.9301328125,-0.48721855878829956,-0.8616833090782166,0.20807862281799316
1783696775661096000,2.940095947265625,-0.5166512727737427,-0.917905867099762,0.5808596611022949
1783696775671059000,2.950058837890625,-0.4556806981563568,-0.8567720055580139,1.0683262348175049
1783696775681022000,2.96002197265625,-0.3162229359149933,-0.6986814141273499,1.492248773574829
1783696775690984700,2.969984619140625,-0.15812619030475616,-0.49093443155288696,1.6964995861053467
1783696775700947700,2.97994775390625,-0.05110972002148628,-0.32999053597450256,1.6584349870681763
1783696775710910700,2.98991064453125,-0.05019664019346237,-0.1981574296951294,1.4398043155670166
1783696775720873700,2.999873779296875,-0.1642736792564392,-0.07563790678977966,1.175349473953247
1783696775730837000,3.0098369140625,-0.3310185968875885,0.03661947324872017,1.061466097831726
1783696775740800000,3.019800048828125,-0.4571339190006256,0.1827516406774521,1.2177726030349731
1783696775750763000,3.029762939453125,-0.43611082434654236,0.3933950960636139,1.5266269445419312
1783696775760725800,3.039725830078125,-0.2755853235721588,0.664420485496521,1.6946923732757568
1783696775770688800,3.049688720703125,-0.03209797665476799,0.9197654724121094,1.543033480644226
1783696775780651800,3.05965185546875,0.22126930952072144,1.0750693082809448,1.1226588487625122
1783696775790614800,3.06961474609375,0.3866552412509918,1.0800420045852661,0.6041441559791565
1783696775800577800,3.079577880859375,0.451426237821579,0.9044358134269714,0.1777297705411911
1783696775810540800,3.089540771484375,0.4714915454387665,0.6005997061729431,-0.07360684126615524
1783696775820504800,3.0995048828125,0.4896273910999298,0.28553545475006104,-0.21810704469680786
1783696775830467800,3.1094677734375,0.525995135307312,0.07326056063175201,-0.3078896403312683
1783696775840430800,3.119430908203125,0.5807228088378906,-0.030172886326909065,-0.34892573952674866
1783696775850393900,3.129393798828125,0.6541876792907715,-0.05220538377761841,-0.3493618071079254
1783696775860356900,3.13935693359375,0.754428505897522,-0.06704878062009811,-0.3183431625366211
1783696775870319900,3.14931982421875,0.8572139739990234,-0.11455569416284561,-0.2611578404903412
1783696775880283000,3.159282958984375,0.9366110563278198,-0.22632217407226562,-0.22734954953193665
1783696775890246000,3.169245849609375,0.9644501805305481,-0.4003084897994995,-0.28704383969306946
1783696775900208600,3.179208740234375,0.9146650433540344,-0.6235136389732361,-0.46930524706840515
1783696775910171600,3.189171630859375,0.8096160888671875,-0.8247645497322083,-0.7097029089927673
1783696775920134700,3.199134765625,0.7101760506629944,-0.9344984889030457,-0.9347392320632935
1783696775930098000,3.209097900390625,0.6681485772132874,-0.9001104831695557,-1.0942691564559937
1783696775940061000,3.21906103515625,0.675042450428009,-0.7449638247489929,-1.1697099208831787
1783696775950024000,3.22902392578125,0.6667845249176025,-0.47004568576812744,-1.1407184600830078
1783696775959987000,3.238987060546875,0.62064129114151,-0.14171043038368225,-1.0013624429702759
1783696775969949200,3.24894921875,0.5210762023925781,0.1819416582584381,-0.7889770269393921
1783696775979912200,3.258912109375,0.3743954300880432,0.4499318301677704,-0.5496046543121338
1783696775989875200,3.268875244140625,0.2138369381427765,0.5831924080848694,-0.3362661898136139
1783696775999838500,3.27883837890625,0.07222866266965866,0.5923818945884705,-0.1750064492225647
1783696776009801500,3.288801513671875,-0.04339853674173355,0.49112939834594727,-0.07573853433132172
1783696776019764500,3.298764404296875,-0.13076592981815338,0.32338911294937134,-0.02064492367208004
1783696776029727200,3.308727294921875,-0.18904435634613037,0.17609690129756927,0.003595051821321249
1783696776039690200,3.318690185546875,-0.21417313814163208,0.0727287009358406,0.02023155242204666
1783696776049653200,3.3286533203125,-0.22985336184501648,0.005004022270441055,0.030091747641563416
1783696776059616300,3.3386162109375,-0.22906187176704407,-0.010941654443740845,0.03108404204249382
1783696776069579300,3.348579345703125,-0.21913941204547882,0.04837685823440552,-0.004296659026294947
1783696776079542300,3.358542236328125,-0.20028609037399292,0.14243091642856598,-0.10969311743974686
1783696776089505500,3.368505615234375,-0.2052881419658661,0.1885669231414795,-0.27098026871681213
1783696776099468300,3.37846826171875,-0.27081921696662903,0.1858648806810379,-0.4479452073574066
1783696776109432300,3.388432373046875,-0.38372573256492615,0.1532576084136963,-0.5862409472465515
1783696776119395300,3.398395263671875,-0.4962799847126007,0.11528679728507996,-0.6457818150520325
1783696776129358300,3.4083583984375,-0.5895591378211975,0.0754992663860321,-0.6306008696556091
1783696776139321300,3.4183212890625,-0.6692851185798645,0.004598993808031082,-0.5585789084434509
1783696776149284400,3.428284423828125,-0.7206493020057678,-0.13181696832180023,-0.44251158833503723
1783696776159247400,3.438247314453125,-0.74349445104599,-0.2503689229488373,-0.26646146178245544
1783696776169210400,3.44821044921875,-0.711072564125061,-0.17714476585388184,-0.052327852696180344
1783696776179173000,3.458173095703125,-0.6067312359809875,0.013506939634680748,0.113839291036129
1783696776189136400,3.468136474609375,-0.42995506525039673,0.09033393859863281,0.14408904314041138
1783696776199099400,3.478099365234375,-0.19303812086582184,-0.13026688992977142,0.017524991184473038
1783696776209062400,3.4880625,-0.01205162238329649,-0.6256952285766602,-0.216299906373024
1783696776219025400,3.498025390625,-0.007086690980941057,-1.1407591104507446,-0.4279024302959442
1783696776228988400,3.507988525390625,-0.18940886855125427,-1.5027679204940796,-0.42726922035217285
1783696776238951200,3.517951171875,-0.4336031675338745,-1.5664435625076294,-0.08503038436174393
1783696776248914200,3.5279140625,-0.5857774615287781,-1.3652291297912598,0.5000137090682983
1783696776258877200,3.537877197265625,-0.5035797953605652,-1.052122950553894,1.014772653579712
1783696776268840200,3.547840087890625,-0.2530176043510437,-0.6625329852104187,1.1985894441604614
1783696776278803500,3.557803466796875,-0.012647881172597408,-0.2331763356924057,1.0256885290145874
1783696776288766500,3.567766357421875,0.1110539361834526,0.10064805299043655,0.6933338642120361
1783696776298729500,3.5777294921875,0.0651458352804184,0.14498089253902435,0.3645612895488739
1783696776308692200,3.587692138671875,-0.06711504608392715,-0.061123330146074295,0.12164563685655594
1783696776318655200,3.5976552734375,-0.13868430256843567,-0.2749791741371155,-0.02723146229982376
1783696776328618200,3.6076181640625,-0.10789570957422256,-0.27290791273117065,-0.1549799144268036
1783696776338581200,3.617581298828125,0.010927611030638218,-0.030804725363850594,-0.33876943588256836
1783696776348544300,3.627544189453125,0.1956198662519455,0.40984776616096497,-0.5986695289611816
1783696776358507500,3.637507568359375,0.410258948802948,0.9017785787582397,-0.9273038506507874
1783696776368470500,3.647470458984375,0.6367018818855286,1.3243576288223267,-1.2866169214248657
1783696776378433300,3.657433349609375,0.8756715655326843,1.6130908727645874,-1.5973724126815796
1783696776388396300,3.667396240234375,1.0742275714874268,1.8055728673934937,-1.8009612560272217
1783696776398360300,3.6773603515625,1.1807057857513428,1.9479055404663086,-1.8966025114059448
1783696776408323300,3.6873232421875,1.159608244895935,1.9981493949890137,-1.9432885646820068
1783696776418286300,3.697286376953125,1.0011290311813354,1.9454467296600342,-1.995429277420044
1783696776428249300,3.707249267578125,0.764224112033844,1.8061729669570923,-2.0822486877441406
1783696776438212400,3.71721240234375,0.5525097250938416,1.7075380086898804,-2.2279303073883057
1783696776448175400,3.72717529296875,0.3526466488838196,1.7503304481506348,-2.3756656646728516
1783696776458138000,3.73713818359375,0.12202197313308716,1.916947603225708,-2.4824166297912598
1783696776468101400,3.747101318359375,-0.10109047591686249,2.005643367767334,-2.5484189987182617
1783696776478064400,3.757064453125,-0.25923484563827515,2.02136492729187,-2.5318543910980225
1783696776488027400,3.76702734375,-0.3123895823955536,1.955446720123291,-2.4211909770965576
1783696776497990400,3.776990478515625,-0.2678191661834717,1.775740385055542,-2.245225429534912
1783696776507953400,3.786953369140625,-0.15057237446308136,1.5725975036621094,-2.014552593231201
1783696776517916200,3.796916259765625,-0.0060165151953697205,1.4064018726348877,-1.7506179809570312
1783696776527879200,3.806879150390625,0.12344793975353241,1.281585454940796,-1.4824328422546387
1783696776537842200,3.81684228515625,0.23716971278190613,1.1452041864395142,-1.253097653388977
1783696776547805200,3.82680517578125,0.31947246193885803,0.9611645936965942,-1.0736075639724731
1783696776557768400,3.8367685546875,0.32738471031188965,0.6580979228019714,-0.9312344789505005
1783696776567731500,3.8467314453125,0.2794758975505829,0.21213386952877045,-0.7976641058921814
1783696776577694500,3.856694580078125,0.23791725933551788,-0.33187136054039,-0.6289246082305908
1783696776587657200,3.8666572265625,0.21815533936023712,-0.8467432856559753,-0.41675838828086853
1783696776597620200,3.8766201171875,0.14836320281028748,-0.9890402555465698,-0.17427437007427216
1783696776607583200,3.886583251953125,-0.027082180604338646,-0.30282944440841675,0.04130437970161438
1783696776617546200,3.896546142578125,-0.26047202944755554,0.5865382552146912,0.2413562387228012
1783696776627509200,3.90650927734375,-0.4513087868690491,1.2377805709838867,0.39185771346092224
1783696776637472500,3.916472412109375,-0.5475365519523621,0.9816274046897888,0.42156368494033813
1783696776647435500,3.926435546875,-0.6819104552268982,-1.4786351919174194,0.036298513412475586
1783696776657398300,3.936398193359375,-0.8936054110527039,-3.388705015182495,-0.1754869669675827
1783696776667361300,3.946361328125,-0.679323673248291,-3.260547399520874,0.08296988159418106
1783696776677324300,3.95632421875,-0.46543535590171814,-2.2871315479278564,0.7219911217689514
1783696776687287300,3.966287353515625,-0.2394081950187683,-1.794083595275879,1.1471385955810547
1783696776697250300,3.976250244140625,-0.2911805808544159,-2.1170623302459717,1.239553451538086
1783696776707214300,3.98621435546875,-0.5973002910614014,-2.5344643592834473,1.399722933769226
1783696776717177300,3.99617724609375,-0.8199732899665833,-2.6830317974090576,1.8719128370285034
1783696776727140400,4.006140380859375,-0.5793157815933228,-2.1635472774505615,2.0588161945343018
1783696776737103000,4.01610302734375,-0.27754953503608704,-1.3227579593658447,2.202791929244995
1783696776747066400,4.02606640625,-0.07344774901866913,-0.537251353263855,2.2857580184936523
1783696776757029400,4.036029296875,0.06525393575429916,-0.001157569931820035,2.0686700344085693
1783696776766992400,4.045992431640625,0.29048657417297363,0.561629056930542,1.8346117734909058
1783696776776955400,4.055955322265625,0.5856726765632629,0.9280693531036377,1.58339262008667
1783696776786918400,4.06591845703125,0.7633467316627502,0.7673190832138062,1.3249536752700806
1783696776796881400,4.07588134765625,0.7830722332000732,0.32328760623931885,1.1881678104400635
1783696776806844200,4.08584423828125,0.7384587526321411,-0.1904088258743286,1.2821177244186401
1783696776816807200,4.09580712890625,0.6005772948265076,-0.7946680784225464,1.5777299404144287
1783696776826770400,4.1057705078125,0.35761773586273193,-1.4575475454330444,2.0079879760742188
1783696776836733400,4.1157333984375,0.2275335192680359,-2.1122183799743652,2.4172558784484863
1783696776846696400,4.125696533203125,0.17725904285907745,-2.5822203159332275,2.7519261837005615
1783696776856659500,4.135659423828125,0.19217140972614288,-2.8432583808898926,2.9671411514282227
1783696776866622200,4.145622314453125,0.2528705596923828,-2.8349430561065674,2.9948248863220215
1783696776876585200,4.155585205078125,0.36463862657546997,-2.4630982875823975,2.855039596557617
1783696776886548200,4.16554833984375,0.5628029704093933,-1.5768539905548096,2.551816940307617
1783696776896511200,4.17551123046875,0.784148633480072,-0.3582010269165039,2.1605136394500732
1783696776906474200,4.18547412109375,1.0111761093139648,0.8492069840431213,1.766390085220337
1783696776916437500,4.1954375,1.2445186376571655,1.9451334476470947,1.3710321187973022
1783696776926400500,4.205400390625,1.4750467538833618,2.7907662391662598,1.0224934816360474
1783696776936363300,4.21536328125,1.656590461730957,3.3156399726867676,0.7357692718505859
1783696776946326300,4.225326171875,1.7736941576004028,3.5160412788391113,0.48835915327072144
1783696776956289300,4.235289306640625,1.8339502811431885,3.5064902305603027,0.27666741609573364
1783696776966252300,4.245252197265625,1.844887137413025,3.431797981262207,0.12038639187812805
1783696776976216000,4.255216064453125,1.8032469749450684,3.387448787689209,0.013429585844278336
1783696776986178800,4.2651787109375,1.720077633857727,3.3845973014831543,-0.05426221713423729
1783696776996141800,4.275141845703125,1.6025391817092896,3.3773763179779053,-0.08939144015312195
1783696777006104800,4.285104736328125,1.4728180170059204,3.3354456424713135,-0.12877051532268524
1783696777016068000,4.295068115234375,1.3751024007797241,3.2403221130371094,-0.15099671483039856
1783696777026031000,4.305031005859375,1.3489294052124023,3.18341326713562,-0.14074231684207916
1783696777035994000,4.314994140625,1.361721396446228,3.1482012271881104,-0.13115227222442627
1783696777045958100,4.324958251953125,1.386423110961914,3.15946364402771,-0.13433504104614258
1783696777055921200,4.334921142578125,1.4297618865966797,3.2483110427856445,-0.11694459617137909
1783696777065884000,4.3448837890625,1.49049711227417,3.3502516746520996,-0.04662993550300598
1783696777075847000,4.354846923828125,1.5624957084655762,3.385410785675049,0.04206877201795578
1783696777085810000,4.364809814453125,1.6403487920761108,3.2668309211730957,0.1364986151456833
1783696777095773000,4.37477294921875,1.7325772047042847,2.9664688110351562,0.35669729113578796
1783696777105736000,4.38473583984375,1.764131784439087,2.7487099170684814,0.6319209337234497
1783696777115699000,4.394698974609375,1.6325998306274414,2.480644702911377,0.8449517488479614
1783696777125662200,4.404662109375,1.3222088813781738,2.0917301177978516,1.0196552276611328
1783696777135625000,4.414625,0.8770380020141602,1.5811889171600342,1.1189801692962646
1783696777145588000,4.424587890625,0.38522034883499146,1.0016916990280151,1.1660094261169434
1783696777155551000,4.434551025390625,-0.029627978801727295,0.36344414949417114,1.2357174158096313
1783696777165514000,4.444513916015625,-0.31744641065597534,-0.32932278513908386,1.2899223566055298
1783696777175477000,4.45447705078125,-0.48785701394081116,-1.018258810043335,1.2878738641738892
1783696777185440000,4.46443994140625,-0.5826565027236938,-1.642632007598877,1.2714228630065918
1783696777195403000,4.474403076171875,-0.6952981352806091,-2.0794923305511475,1.2110340595245361
1783696777205366000,4.484365966796875,-0.8636676669120789,-2.036931037902832,1.1129093170166016
1783696777215329000,4.4943291015625,-1.0566389560699463,-1.616719126701355,1.1132051944732666
1783696777225292000,4.5042919921875,-1.3200434446334839,-1.228261113166809,1.2096847295761108
1783696777235255000,4.514255126953125,-1.6952383518218994,-1.5383965969085693,1.223114013671875
1783696777245218000,4.524218017578125,-2.2072343826293945,-2.4505629539489746,1.0704718828201294
1783696777255181000,4.53418115234375,-2.83660626411438,-2.9393391609191895,0.8943125009536743
1783696777265143800,4.544143798828125,-3.416757345199585,-2.9562325477600098,0.6858627796173096
1783696777275106800,4.55410693359375,-3.7622647285461426,-3.0146050453186035,0.38971206545829773
1783696777285069800,4.56406982421875,-3.773263931274414,-3.292646884918213,0.046961721032857895
1783696777295033000,4.574033203125,-3.4288222789764404,-3.5131852626800537,-0.24258007109165192
1783696777304996000,4.58399609375,-2.8202829360961914,-3.3752758502960205,-0.39315006136894226
1783696777314959000,4.593958984375,-2.086369752883911,-2.9115824699401855,-0.4346192181110382
1783696777324922000,4.603922119140625,-1.3763467073440552,-2.4295198917388916,-0.4719831049442291
1783696777334884900,4.613884765625,-0.786836564540863,-2.1096580028533936,-0.56946861743927
1783696777344848000,4.623847900390625,-0.3630666434764862,-1.8564468622207642,-0.7349258065223694
1783696777354811000,4.633810791015625,-0.09143485128879547,-1.7164908647537231,-0.9235865473747253
1783696777364775000,4.64377490234375,0.08034510165452957,-1.6810487508773804,-1.0678197145462036
1783696777374738000,4.653738037109375,0.16975487768650055,-1.7209950685501099,-1.1298836469650269
1783696777384701000,4.663700927734375,0.16912376880645752,-1.84857177734375,-1.1196364164352417
1783696777394664000,4.673663818359375,0.11216247826814651,-1.9893553256988525,-1.0363545417785645
1783696777404627200,4.683627197265625,0.011004636995494366,-2.1225686073303223,-0.8934522271156311
1783696777414590000,4.69358984375,-0.14320489764213562,-2.287539005279541,-0.7234285473823547
1783696777424553000,4.703552978515625,-0.3496459424495697,-2.4360649585723877,-0.5254964828491211
1783696777434516000,4.713515869140625,-0.5976016521453857,-2.554988384246826,-0.3059596121311188
1783696777444479000,4.72347900390625,-0.8419708609580994,-2.617873430252075,-0.08449546992778778
1783696777454442000,4.73344189453125,-1.0466954708099365,-2.5810811519622803,0.10502944886684418
1783696777464405000,4.743405029296875,-1.1570870876312256,-2.4270057678222656,0.24373671412467957
1783696777474368000,4.753367919921875,-1.1408274173736572,-2.171933174133301,0.3205665051937103
1783696777484331000,4.7633310546875,-0.9955215454101562,-1.874354362487793,0.3319505751132965
1783696777494294000,4.7732939453125,-0.7663533091545105,-1.5106112957000732,0.30129972100257874
1783696777504257000,4.783257080078125,-0.5151858925819397,-1.0529305934906006,0.27329498529434204
1783696777514220000,4.793219970703125,-0.27860984206199646,-0.48068496584892273,0.2749653160572052
1783696777524183000,4.80318310546875,-0.0816914439201355,0.20810018479824066,0.27816322445869446
1783696777534146000,4.81314599609375,0.05921081453561783,0.9557267427444458,0.2818754017353058
1783696777544109000,4.823109130859375,0.17175543308258057,1.69002103805542,0.3005691170692444
1783696777554071800,4.83307177734375,0.2685706913471222,2.3449251651763916,0.33842727541923523
1783696777564034800,4.843034912109375,0.3299756646156311,2.852933645248413,0.42575109004974365
1783696777573998000,4.852998046875,0.33852148056030273,3.1896770000457764,0.5506940484046936
1783696777583961000,4.862961181640625,0.3022007346153259,3.319553852081299,0.6883518099784851
1783696777593924000,4.872924072265625,0.21469645202159882,3.2390551567077637,0.8289145231246948
1783696777603887000,4.88288720703125,0.05737113207578659,2.9588096141815186,0.9647672772407532
1783696777613849900,4.892849853515625,-0.13823804259300232,2.369241714477539,1.016792893409729
1783696777623812900,4.902812744140625,-0.2968231439590454,1.3308792114257812,0.9613446593284607
1783696777633775900,4.91277587890625,-0.401758074760437,0.5896095633506775,0.9741491079330444
1783696777643739000,4.92273876953125,-0.520937442779541,0.28859037160873413,1.0856757164001465
1783696777653702100,4.9327021484375,-0.6664578914642334,0.3029157817363739,1.2049018144607544
1783696777663665200,4.9426650390625,-0.8106417059898376,0.47395840287208557,1.2894495725631714
1783696777673628200,4.952628173828125,-0.8723564743995667,0.5325178503990173,1.2537403106689453
1783696777683591000,4.9625908203125,-0.798065721988678,0.0712154284119606,0.9393084049224854
1783696777693554000,4.972553955078125,-0.5867220759391785,-0.9841119647026062,0.35916033387184143
1783696777703518000,4.98251806640625,-0.3722524642944336,-1.734334111213684,-0.2025347501039505
1783696777713481000,4.99248095703125,-0.3200981914997101,-1.494060754776001,-0.5477305054664612
1783696777723444000,5.00244384765625,-0.309028685092926,-0.7029178142547607,-0.7628020644187927
1783696777733407000,5.012406982421875,-0.19112759828567505,0.03790406510233879,-1.0013600587844849
1783696777743370000,5.022369873046875,-0.009314749389886856,0.5160132050514221,-1.3022791147232056
1783696777753333000,5.0323330078125,0.1194368377327919,0.7313923835754395,-1.6348040103912354
1783696777763296000,5.0422958984375,0.22449743747711182,0.8019734621047974,-1.9227733612060547
1783696777773259000,5.052259033203125,0.4022789001464844,0.8283092379570007,-2.070089817047119
1783696777783222000,5.062221923828125,0.622687041759491,0.8341125249862671,-2.0782508850097656
1783696777793185000,5.07218505859375,0.7738707065582275,0.8069821000099182,-2.0275115966796875
1783696777803148000,5.08214794921875,0.7784815430641174,0.5765302181243896,-1.9732807874679565
1783696777813111000,5.092111083984375,0.6782992482185364,0.1524529755115509,-1.8976582288742065
1783696777823074000,5.102073974609375,0.5377964377403259,-0.3617682158946991,-1.7434139251708984
1783696777833036800,5.112036865234375,0.40901583433151245,-0.8557731509208679,-1.5487490892410278
1783696777842999800,5.121999755859375,0.2788613736629486,-1.2078825235366821,-1.4215295314788818
1783696777852963000,5.131963134765625,0.1599738746881485,-1.3490644693374634,-1.3910413980484009
1783696777862926000,5.141926025390625,0.07246033102273941,-1.277417540550232,-1.4568003416061401
1783696777872889000,5.15188916015625,0.021988635882735252,-1.082093596458435,-1.5843082666397095
1783696777882852000,5.16185205078125,0.023144125938415527,-0.8514432907104492,-1.7207258939743042
1783696777892814800,5.17181494140625,0.04416924715042114,-0.6357466578483582,-1.8074243068695068
1783696777902777900,5.18177783203125,0.030676785856485367,-0.4038591980934143,-1.8045412302017212
1783696777912740900,5.191740966796875,-0.04162484407424927,-0.20378045737743378,-1.6954666376113892
1783696777922704000,5.201703857421875,-0.15720443427562714,-0.04442994296550751,-1.4792683124542236
1783696777932667100,5.211667236328125,-0.2861453592777252,0.08844581991434097,-1.189934253692627
1783696777942630100,5.221630126953125,-0.3852905333042145,0.16927964985370636,-0.8668316006660461
1783696777952593200,5.23159326171875,-0.4062778353691101,0.21730709075927734,-0.5711144804954529
1783696777962556000,5.241555908203125,-0.3535691499710083,0.24629829823970795,-0.35283714532852173
1783696777972518700,5.2515185546875,-0.264413446187973,0.27323272824287415,-0.20602162182331085
1783696777982481400,5.2614814453125,-0.1769411414861679,0.33380886912345886,-0.10285352915525436
1783696777992444400,5.2714443359375,-0.09395651519298553,0.41492316126823425,-0.008311314508318901
1783696778002407400,5.281407470703125,-0.028506970033049583,0.4566550850868225,0.09784834831953049
1783696778012370700,5.29137060546875,0.01953965052962303,0.4464637041091919,0.20793303847312927
1783696778022334500,5.30133447265625,0.04677183926105499,0.39816415309906006,0.2947729229927063
1783696778032297700,5.311297607421875,0.050567377358675,0.3317957818508148,0.34215083718299866
1783696778042260700,5.3212607421875,0.030497640371322632,0.20282013714313507,0.3668339252471924
1783696778052846600,5.3318466796875,-0.009076932445168495,0.013853407464921474,0.43031010031700134
1783696778062809300,5.341809326171875,-0.03347453474998474,-0.11974728852510452,0.5559467673301697
1783696778072772600,5.351772705078125,-0.04668834060430527,-0.24924138188362122,0.6906390190124512
1783696778082735600,5.361735595703125,-0.06013934314250946,-0.39860886335372925,0.8016137480735779
1783696778092698600,5.37169873046875,-0.05431181192398071,-0.4644009470939636,0.8917630910873413
1783696778102661600,5.38166162109375,-0.015172908082604408,-0.38392138481140137,0.9889957308769226
1783696778112624600,5.391624755859375,0.03145797550678253,-0.28839993476867676,1.0542361736297607
1783696778122587600,5.401587646484375,0.06340327113866806,-0.28626710176467896,1.0776935815811157
1783696778132550400,5.41155029296875,0.07801736891269684,-0.36165717244148254,1.0245405435562134
1783696778142513400,5.421513427734375,0.06226110830903053,-0.43004658818244934,0.8837354779243469
1783696778152476700,5.4314765625,0.0012406326131895185,-0.49985525012016296,0.7345885634422302
1783696778162439700,5.441439697265625,-0.14979103207588196,-0.5657625794410706,0.6568637490272522
1783696778172402700,5.451402587890625,-0.32293030619621277,-0.42331889271736145,0.770828127861023
1783696778182365700,5.46136572265625,-0.4134887754917145,0.14643773436546326,1.1238915920257568
1783696778192328400,5.471328369140625,-0.3821931779384613,0.9682889580726624,1.5586817264556885
1783696778202291500,5.48129150390625,-0.2825779318809509,1.58367121219635,1.8184019327163696
1783696778212254500,5.49125439453125,-0.1742141991853714,1.9068125486373901,1.818895936012268
1783696778222217500,5.501217529296875,-0.061638351529836655,1.974708914756775,1.641658067703247
1783696778232180500,5.511180419921875,-0.029869772493839264,1.6740342378616333,1.3176484107971191
1783696778242143700,5.521143798828125,-0.06906646490097046,1.0653492212295532,0.8960501551628113
1783696778252106800,5.531106689453125,-0.13044993579387665,0.3912654221057892,0.4912312924861908
1783696778262069500,5.541069580078125,-0.16484776139259338,-0.06720775365829468,0.2126004695892334
1783696778272032500,5.551032470703125,-0.14180903136730194,-0.29864630103111267,0.10033891350030899
1783696778281995500,5.56099560546875,-0.0648709237575531,-0.3683874309062958,0.13446280360221863
1783696778291958500,5.57095849609375,0.027193492278456688,-0.3739071190357208,0.2461019903421402
1783696778301922600,5.580922607421875,0.12021137028932571,-0.4045748710632324,0.34913933277130127
1783696778311885600,5.590885498046875,0.19904866814613342,-0.42776408791542053,0.3932684361934662
1783696778321848600,5.6008486328125,0.22226765751838684,-0.4767339825630188,0.32432952523231506
1783696778331811600,5.6108115234375,0.18181584775447845,-0.57317715883255,0.12477245926856995
1783696778341774300,5.6207744140625,0.0811205506324768,-0.7104593515396118,-0.190268412232399
1783696778351737600,5.630737548828125,-0.05305589362978935,-0.8392492532730103,-0.5661062002182007
1783696778362322700,5.64132275390625,-0.1705339401960373,-0.8693299293518066,-0.9510956406593323
1783696778372285700,5.65128564453125,-0.23729991912841797,-0.771793782711029,-1.249409794807434
1783696778382248700,5.661248779296875,-0.23560066521167755,-0.5858758687973022,-1.4611135721206665
1783696778392211700,5.671211669921875,-0.15716604888439178,-0.3177059292793274,-1.5683178901672363
1783696778402174500,5.681174560546875,-0.028653616085648537,0.059412840753793716,-1.5901451110839844
1783696778412137500,5.691137451171875,0.13173311948776245,0.5520910024642944,-1.5314546823501587
1783696778422100500,5.7011005859375,0.278889924287796,1.1074035167694092,-1.421183466911316
1783696778432063500,5.7110634765625,0.3871847093105316,1.646789312362671,-1.2527531385421753
1783696778442026500,5.721026611328125,0.4208582043647766,2.0749526023864746,-1.013597846031189
1783696778451989800,5.73098974609375,0.3354298770427704,2.333588123321533,-0.6896694898605347
1783696778461953500,5.74095361328125,0.16647469997406006,2.4162206649780273,-0.35397759079933167
1783696778471916800,5.750916748046875,-0.034815799444913864,2.2447640895843506,-0.038378097116947174
1783696778481879600,5.760879638671875,-0.19994109869003296,1.8196430206298828,0.21654605865478516
1783696778491842600,5.770842529296875,-0.28061115741729736,1.3130147457122803,0.40978822112083435
1783696778501805600,5.7808056640625,-0.27364876866340637,0.9455348253250122,0.5891388654708862
1783696778511768600,5.7907685546875,-0.2182464897632599,0.7375169396400452,0.741790235042572
1783696778521731600,5.800731689453125,-0.161164790391922,0.5845332741737366,0.8330560326576233
1783696778531694600,5.810694580078125,-0.11895875632762909,0.4457761347293854,0.8758730292320251
1783696778541657600,5.82065771484375,-0.11546240746974945,0.3517356216907501,0.8931789398193359
1783696778551620600,5.83062060546875,-0.1616581380367279,0.3001278042793274,0.8821138143539429
1783696778561583600,5.84058349609375,-0.24394389986991882,0.2809270918369293,0.8394504189491272
1783696778571546600,5.850546630859375,-0.34100547432899475,0.23449410498142242,0.765280544757843
1783696778581509600,5.860509521484375,-0.4353582561016083,0.13998977839946747,0.7015055418014526
1783696778591472600,5.87047265625,-0.49157702922821045,0.05325007811188698,0.6635672450065613
1783696778601435600,5.880435546875,-0.508056104183197,-0.04371236637234688,0.6545886397361755
1783696778611398400,5.8903984375,-0.4837814271450043,-0.09197018295526505,0.6907464265823364
1783696778621361400,5.900361328125,-0.45134708285331726,-0.15085187554359436,0.723025381565094
1783696778631324400,5.910324462890625,-0.3973730802536011,-0.22597245872020721,0.7279820442199707
1783696778641287700,5.92028759765625,-0.28187400102615356,-0.2605658769607544,0.7236208915710449
1783696778651250700,5.930250732421875,-0.141508087515831,-0.26521068811416626,0.68118816614151
1783696778661213700,5.940213623046875,-0.04891418293118477,-0.3211486041545868,0.5548077821731567
1783696778671176700,5.9501767578125,-0.06691820919513702,-0.45334580540657043,0.3662584125995636
1783696778681139500,5.960139404296875,-0.19912706315517426,-0.5593241453170776,0.20232051610946655
1783696778691103500,5.970103515625,-0.4083718955516815,-0.47871553897857666,0.11894974112510681
1783696778701066500,5.98006640625,-0.5839483141899109,-0.14891183376312256,0.05427904427051544
1783696778711029500,5.990029541015625,-0.6657675504684448,0.2338685691356659,-0.10553565621376038
1783696778720992500,5.999992431640625,-0.7020549774169922,0.526627242565155,-0.4050898551940918
1783696778730955500,6.00995556640625,-0.7522004246711731,0.5772725939750671,-0.8133900165557861
1783696778740918500,6.01991845703125,-0.8038537502288818,0.39156052470207214,-1.2347478866577148
1783696778750881800,6.0298818359375,-0.7757254838943481,0.14272062480449677,-1.5484877824783325
1783696778760844500,6.039844482421875,-0.6177710294723511,-0.05883302539587021,-1.722521185874939
1783696778770807600,6.0498076171875,-0.3994549810886383,-0.09290231764316559,-1.7886682748794556
1783696778780770600,6.0597705078125,-0.2414376139640808,-0.005797767546027899,-1.8071999549865723
1783696778790733600,6.069733642578125,-0.16188447177410126,0.1396941840648651,-1.7830653190612793
1783696778800696600,6.079696533203125,-0.10262026637792587,0.2967720031738281,-1.7217415571212769
1783696778810659600,6.08965966796875,-0.03308272734284401,0.41745394468307495,-1.623340129852295
1783696778820622600,6.09962255859375,0.03657832369208336,0.47476351261138916,-1.5115253925323486
1783696778830585600,6.109585693359375,0.07125827670097351,0.42790839076042175,-1.4267250299453735
1783696778840548600,6.119548583984375,0.023469557985663414,0.16181117296218872,-1.4165385961532593
1783696778850511600,6.12951171875,-0.12839320302009583,-0.3262231945991516,-1.4543195962905884
1783696778860474600,6.139474609375,-0.301001638174057,-0.868627667427063,-1.4343407154083252
1783696778870437600,6.149437744140625,-0.38403767347335815,-1.2500522136688232,-1.3043560981750488
1783696778880400600,6.159400634765625,-0.3556147813796997,-1.5041555166244507,-1.0636446475982666
1783696778890363400,6.16936328125,-0.2637442350387573,-1.6677812337875366,-0.7422833442687988
1783696778900326400,6.179326416015625,-0.15784093737602234,-1.743423342704773,-0.36327728629112244
1783696778910289400,6.189289306640625,-0.034984786063432693,-1.7189582586288452,0.041762880980968475
1783696778920252700,6.199252685546875,0.10747725516557693,-1.651288390159607,0.4134010672569275
1783696778930216400,6.209216552734375,0.1968473494052887,-1.5738346576690674,0.7278441786766052
1783696778940179700,6.2191796875,0.21243439614772797,-1.519520878791809,0.9681545495986938
1783696778950142700,6.229142822265625,0.16399122774600983,-1.485775113105774,1.1247239112854004
1783696778960105700,6.239105712890625,0.07190056145191193,-1.4983577728271484,1.2031404972076416
1783696778970068500,6.249068359375,-0.04588092863559723,-1.552472472190857,1.2284584045410156
1783696778980031500,6.259031494140625,-0.14973574876785278,-1.5914077758789062,1.241562843322754
1783696778989994500,6.268994384765625,-0.20927311480045319,-1.5601621866226196,1.2681912183761597
1783696778999957500,6.27895751953125,-0.20728909969329834,-1.4362120628356934,1.3061814308166504
1783696779009920500,6.28892041015625,-0.17369811236858368,-1.2437893152236938,1.3450042009353638
1783696779019883500,6.298883544921875,-0.14545811712741852,-1.0573612451553345,1.375792145729065
1783696779029846800,6.3088466796875,-0.1535610407590866,-0.8892278075218201,1.3960444927215576
1783696779039809500,6.3188095703125,-0.20320500433444977,-0.7398293614387512,1.4177769422531128
1783696779049772500,6.3287724609375,-0.2619503438472748,-0.6298714280128479,1.4318909645080566
1783696779059735600,6.338735595703125,-0.31193313002586365,-0.596146821975708,1.4215010404586792
1783696779069698600,6.348698486328125,-0.3462088406085968,-0.6203331351280212,1.3973896503448486
1783696779079661600,6.35866162109375,-0.3677927851676941,-0.6247546076774597,1.3896093368530273
1783696779089624600,6.36862451171875,-0.3743620216846466,-0.5102258920669556,1.4265657663345337
1783696779099587600,6.378587646484375,-0.37263861298561096,-0.30053940415382385,1.4812754392623901
1783696779109550600,6.388550537109375,-0.3506757915019989,-0.10145694017410278,1.5293699502944946
1783696779119513600,6.398513671875,-0.2685004472732544,-0.05664663016796112,1.535217523574829
1783696779129476600,6.4084765625,-0.1171756461262703,-0.26196542382240295,1.4733890295028687
1783696779139439600,6.418439697265625,0.035543978214263916,-0.6687121987342834,1.324297547340393
1783696779149402600,6.428402587890625,0.09928061813116074,-1.2003682851791382,1.1420598030090332
1783696779159365600,6.43836572265625,0.00839512050151825,-1.5649608373641968,1.0235282182693481
1783696779169328600,6.44832861328125,-0.19208978116512299,-1.5369372367858887,1.0429203510284424
1783696779179292700,6.458292724609375,-0.37971431016921997,-1.2086690664291382,1.1439409255981445
1783696779189255400,6.46825537109375,-0.47080880403518677,-0.8291054368019104,1.2270314693450928
1783696779199218400,6.478218505859375,-0.4503975212574005,-0.42553770542144775,1.2413856983184814
1783696779209181400,6.488181396484375,-0.3414851427078247,-0.004412289243191481,1.14192533493042
1783696779219144700,6.498144775390625,-0.200220987200737,0.32284218072891235,0.9287280440330505
1783696779229107700,6.508107666015625,-0.09529616683721542,0.4474661350250244,0.6139224171638489
1783696779239070700,6.51807080078125,-0.03629014268517494,0.4026666581630707,0.22888171672821045
1783696779249033700,6.52803369140625,-0.023555705323815346,0.2598794102668762,-0.17333203554153442
1783696779258996500,6.53799658203125,-0.029994778335094452,0.09762080013751984,-0.5756057500839233
1783696779268959500,6.54795947265625,-0.009230111725628376,-0.031272996217012405,-0.9579379558563232
1783696779278922500,6.557922607421875,0.044965971261262894,-0.14587804675102234,-1.3012452125549316
1783696779288885500,6.567885498046875,0.09161496162414551,-0.2694647014141083,-1.5870403051376343
1783696779298848500,6.5778486328125,0.09106174111366272,-0.3881301283836365,-1.8202178478240967
1783696779308811800,6.587811767578125,0.02138945646584034,-0.45564818382263184,-2.0187981128692627
1783696779318774500,6.5977744140625,-0.0861005187034607,-0.4644581973552704,-2.1994242668151855
1783696779328737500,6.607737548828125,-0.21266378462314606,-0.5238900780677795,-2.3714253902435303
1783696779338700500,6.617700439453125,-0.3069845139980316,-0.6433300375938416,-2.504580497741699
1783696779348663600,6.62766357421875,-0.3301311135292053,-0.7333738803863525,-2.5908362865448
1783696779358626600,6.63762646484375,-0.25999554991722107,-0.7940306067466736,-2.6098995208740234
1783696779368589600,6.647589599609375,-0.11821072548627853,-0.7979134917259216,-2.5494027137756348
1783696779378552600,6.657552490234375,0.06794459372758865,-0.6741719245910645,-2.411010265350342
1783696779388515600,6.667515625,0.24219414591789246,-0.3862791955471039,-2.211447238922119
1783696779398478600,6.677478515625,0.3668442666530609,0.03918721154332161,-1.9823297262191772
1783696779408441600,6.687441650390625,0.3939190208911896,0.4918116629123688,-1.7513800859451294
1783696779418404600,6.697404541015625,0.34654685854911804,0.9038628935813904,-1.524680733680725
1783696779428367600,6.70736767578125,0.2590676248073578,1.227188229560852,-1.2867153882980347
1783696779438330600,6.71733056640625,0.19857613742351532,1.403788447380066,-1.0310633182525635
1783696779448294700,6.727294677734375,0.18724997341632843,1.4050222635269165,-0.7596502304077148
1783696779458257700,6.737257568359375,0.22051933407783508,1.2639250755310059,-0.46561431884765625
1783696779468220400,6.747220458984375,0.27010980248451233,1.0473216772079468,-0.1560511291027069
1783696779478183400,6.757183349609375,0.311923623085022,0.8015096783638,0.14928258955478668
1783696779488146400,6.767146484375,0.3557126522064209,0.5614891052246094,0.41689085960388184
1783696779498109700,6.777109619140625,0.40179264545440674,0.32270047068595886,0.6252071857452393
1783696779508072700,6.78707275390625,0.44186151027679443,0.09524653106927872,0.7624635696411133
1783696779518035700,6.79703564453125,0.4543808400630951,-0.0891035795211792,0.8055266737937927
1783696779527998700,6.806998779296875,0.42052486538887024,-0.25649842619895935,0.7574555277824402
1783696779537961500,6.81696142578125,0.34514373540878296,-0.3716775178909302,0.6376150846481323
1783696779547924500,6.826924560546875,0.2649644911289215,-0.4013744294643402,0.4793253242969513
1783696779557887500,6.836887451171875,0.21803651750087738,-0.39103952050209045,0.3220072388648987
1783696779567850500,6.8468505859375,0.21300821006298065,-0.34889712929725647,0.1981276273727417
1783696779577813500,6.8568134765625,0.22774344682693481,-0.28911709785461426,0.1455777883529663
1783696779587776800,6.86677685546875,0.2457195222377777,-0.20786617696285248,0.22492320835590363
1783696779597739500,6.876739501953125,0.3052409887313843,0.04973917454481125,0.4937141537666321
1783696779607702500,6.88670263671875,0.348712295293808,0.4796479344367981,0.8267108201980591
1783696779617665500,6.89666552734375,0.3535173535346985,0.9257717132568359,1.0219917297363281
1783696779627628500,6.906628662109375,0.32474082708358765,1.2610194683074951,0.9638163447380066
1783696779637591600,6.916591552734375,0.2676199972629547,1.3429690599441528,0.6866356134414673
1783696779647554600,6.926554443359375,0.21142464876174927,1.1952104568481445,0.3718246519565582
1783696779657517600,6.936517578125,0.1792764961719513,1.0889267921447754,0.22380200028419495
1783696779667480600,6.94648046875,0.13187755644321442,1.2128894329071045,0.32076820731163025
1783696779677443600,6.956443603515625,0.06221708282828331,1.5158582925796509,0.5476961135864258
1783696779687406600,6.966406494140625,0.005990827921777964,1.657219648361206,0.7265039682388306
1783696779697369600,6.97636962890625,-0.03287336230278015,1.4654051065444946,0.7663798332214355
1783696779707332600,6.98633251953125,-0.12662889063358307,0.980036735534668,0.7106255292892456
1783696779717295600,6.996295654296875,-0.331461638212204,0.17017292976379395,0.581571638584137
1783696779727259600,7.006259765625,-0.5865547060966492,-0.6362429261207581,0.44802772998809814
1783696779737222700,7.01622265625,-0.7746180295944214,-1.0031006336212158,0.3533431887626648
1783696779747185400,7.026185302734375,-0.8560574650764465,-0.9055498838424683,0.24649398028850555
1783696779757148400,7.0361484375,-0.8001153469085693,-0.46815556287765503,0.10377854108810425
1783696779767111400,7.046111328125,-0.6146703362464905,0.1477806270122528,-0.07782986760139465
1783696779777074700,7.05607470703125,-0.3937310576438904,0.7477566599845886,-0.28269413113594055
1783696779787037700,7.06603759765625,-0.23931460082530975,1.1744331121444702,-0.4985976815223694
1783696779797000700,7.076000732421875,-0.18548397719860077,1.3514537811279297,-0.7220987677574158
1783696779806963700,7.085963623046875,-0.17855815589427948,1.303159475326538,-0.9262908101081848
1783696779816926500,7.095926513671875,-0.1732764095067978,1.0323773622512817,-1.097625970840454
1783696779826889500,7.105889404296875,-0.16485202312469482,0.4937320053577423,-1.2111259698867798
1783696779836852500,7.1158525390625,-0.14660602807998657,-0.11918506771326065,-1.2103228569030762
1783696779846815500,7.1258154296875,-0.13334588706493378,-0.6013546586036682,-1.1157222986221313
1783696779856778500,7.135778564453125,-0.10270990431308746,-1.0151711702346802,-0.9901107549667358
1783696779866741800,7.14574169921875,-0.07609560340642929,-1.3008449077606201,-0.8950886726379395
1783696779876704500,7.15570458984375,-0.04443873092532158,-1.3433058261871338,-0.8504701852798462
1783696779886667500,7.16566748046875,0.0516345389187336,-1.1323046684265137,-0.8512219786643982
1783696779896630500,7.175630615234375,0.17454157769680023,-0.7687321901321411,-0.8886038064956665
1783696779906593500,7.185593505859375,0.2652650773525238,-0.32481470704078674,-0.9447608590126038
1783696779916556500,7.195556640625,0.31105825304985046,0.16264450550079346,-0.99289870262146
1783696779926519600,7.20551953125,0.3196629285812378,0.6644015908241272,-0.999544620513916
1783696779936482600,7.215482666015625,0.29029205441474915,1.1491053104400635,-0.9445944428443909
1783696779946445600,7.225445556640625,0.22568243741989136,1.5892925262451172,-0.7952555418014526
1783696779956408600,7.23540869140625,0.14403177797794342,1.9760063886642456,-0.5729550719261169
1783696779966371600,7.24537158203125,0.060794953256845474,2.2105371952056885,-0.3094661831855774
1783696779976334300,7.255334228515625,0.004492827225476503,2.1721768379211426,-0.037520334124565125
1783696779986298600,7.265298583984375,-0.03341460973024368,1.8700517416000366,0.23876424133777618
1783696779996261400,7.275261474609375,-0.04737276956439018,1.482289433479309,0.5174912214279175
1783696780006224400,7.285224365234375,-0.05630341172218323,1.1247352361679077,0.7760726809501648
1783696780016187400,7.2951875,-0.04455238953232765,0.7856429815292358,0.9879756569862366
1783696780026150400,7.305150390625,-0.03811313211917877,0.3844694197177887,1.168609857559204
1783696780036113400,7.315113525390625,-0.036557313054800034,-0.11970129609107971,1.3509907722473145
1783696780046076400,7.325076416015625,-0.0129579808562994,-0.6492372751235962,1.5381183624267578
1783696780056039400,7.335039306640625,0.025673454627394676,-1.1454291343688965,1.680366039276123
1783696780066002400,7.34500244140625,0.06823130697011948,-1.4978079795837402,1.7722208499908447
1783696780075965400,7.35496533203125,0.10106262564659119,-1.5743452310562134,1.7966266870498657
1783696780085928400,7.364928466796875,0.09699118882417679,-1.4143182039260864,1.7343252897262573
1783696780095891500,7.374891357421875,0.06346989423036575,-1.106150507926941,1.6156154870986938
1783696780105854500,7.3848544921875,0.03942288085818291,-0.7897042036056519,1.4966187477111816
1783696780115817500,7.3948173828125,0.0646321251988411,-0.5702723860740662,1.372159481048584
1783696780125780200,7.4047802734375,0.13999372720718384,-0.4186823070049286,1.2420384883880615
1783696780135743500,7.414743408203125,0.20019355416297913,-0.18333163857460022,1.1557111740112305
1783696780145706500,7.42470654296875,0.1823088377714157,0.1664908081293106,1.1576776504516602
1783696780155669500,7.43466943359375,0.04670349135994911,0.6649787425994873,1.1924406290054321
1783696780165632500,7.444632568359375,-0.09661957621574402,1.1840264797210693,1.1913378238677979
1783696780175595500,7.454595458984375,-0.12241268157958984,1.5462170839309692,1.1351735591888428
1783696780185558500,7.46455859375,-0.05775539204478264,1.6213390827178955,0.9823645353317261
1783696780195521300,7.474521240234375,0.025088150054216385,1.3878002166748047,0.7589060068130493
1783696780205484300,7.484484375,0.12122240662574768,0.9694913029670715,0.532372772693634
1783696780215447600,7.494447509765625,0.22184544801712036,0.44241854548454285,0.33317190408706665
1783696780225410600,7.50441064453125,0.3369145095348358,-0.08271953463554382,0.22066639363765717
1783696780235373600,7.51437353515625,0.4742109775543213,-0.5447220206260681,0.2241661548614502
1783696780245336600,7.524336669921875,0.5828759074211121,-0.9382812976837158,0.3222125470638275
1783696780255300600,7.534300537109375,0.6194943785667419,-1.2681440114974976,0.43932682275772095
1783696780265263600,7.544263671875,0.5904374122619629,-1.5255351066589355,0.5023859739303589
1783696780275226400,7.554226318359375,0.4714566767215729,-1.6682573556900024,0.46830031275749207
1783696780285189400,7.564189453125,0.2571941912174225,-1.6836519241333008,0.33878466486930847
1783696780295152400,7.57415234375,-0.007159598171710968,-1.6050375699996948,0.14152655005455017
1783696780305115400,7.584115478515625,-0.23019854724407196,-1.5194889307022095,-0.0719580203294754
1783696780315078400,7.594078369140625,-0.3301750719547272,-1.5291751623153687,-0.22682370245456696
1783696780325041400,7.60404150390625,-0.30386385321617126,-1.5920923948287964,-0.27011391520500183
1783696780335004400,7.61400439453125,-0.2099606990814209,-1.6185247898101807,-0.1787768006324768
1783696780344967400,7.623967529296875,-0.13736692070960999,-1.5615028142929077,0.0036175125278532505
1783696780354930400,7.633930419921875,-0.15397469699382782,-1.4169092178344727,0.22260782122612
1783696780364893400,7.6438935546875,-0.23502694070339203,-1.182142734527588,0.43288248777389526
1783696780374856400,7.6538564453125,-0.3780055344104767,-0.8634664416313171,0.59284508228302
1783696780384819500,7.6638193359375,-0.5592074990272522,-0.5038755536079407,0.6998814940452576
1783696780394782500,7.673782470703125,-0.7342621088027954,-0.1308487504720688,0.7798289060592651
1783696780404745200,7.6837451171875,-0.8603177666664124,0.23875753581523895,0.8725127577781677
1783696780414708500,7.69370849609375,-0.8875735998153687,0.6286695599555969,0.9823195338249207
1783696780424671500,7.70367138671875,-0.8111243844032288,0.9806278347969055,1.1016594171524048
1783696780434634500,7.713634521484375,-0.6681877374649048,1.254197597503662,1.2273465394973755
1783696780444597500,7.723597412109375,-0.5292708873748779,1.438220500946045,1.3613882064819336
1783696780454560500,7.733560546875,-0.421294242143631,1.4931919574737549,1.4972789287567139
1783696780464523500,7.7435234375,-0.3606330156326294,1.4123698472976685,1.625787615776062
1783696780474486300,7.753486328125,-0.3521835505962372,1.218207836151123,1.7240852117538452
1783696780484449300,7.76344921875,-0.3695968985557556,0.9165675044059753,1.7774784564971924
1783696780494412500,7.77341259765625,-0.36676856875419617,0.5193129181861877,1.772531509399414
1783696780504375600,7.78337548828125,-0.3646228611469269,0.08102056384086609,1.704893946647644
1783696780514338600,7.793338623046875,-0.37257906794548035,-0.30221304297447205,1.6325386762619019
1783696780524301600,7.803301513671875,-0.3858112394809723,-0.6240406036376953,1.5446525812149048
1783696780534264600,7.8132646484375,-0.34956878423690796,-0.9689984917640686,1.3890836238861084
1783696780544227300,7.823227294921875,-0.23669549822807312,-1.2343305349349976,1.1757830381393433
1783696780554190300,7.8331904296875,-0.08316969871520996,-1.2500708103179932,0.9579235315322876
1783696780564153300,7.8431533203125,0.07217009365558624,-0.9409453868865967,0.8004252314567566
1783696780574117400,7.853117431640625,0.23957456648349762,-0.8038822412490845,0.6801223754882812
1783696780584080400,7.863080322265625,0.4062703251838684,-1.1026533842086792,0.5357761383056641
1783696780594043400,7.87304345703125,0.6161183714866638,-1.5540729761123657,0.42731621861457825
1783696780604006700,7.883006591796875,0.8100627660751343,-1.754461646080017,0.3399437665939331
1783696780613969700,7.8929697265625,0.8223626017570496,-1.5575039386749268,0.1434726119041443
1783696780623932400,7.902932373046875,0.6747348308563232,-1.0427119731903076,-0.17346379160881042
1783696780633895400,7.9128955078125,0.49108684062957764,-0.5069838762283325,-0.4975821077823639
1783696780643858400,7.9228583984375,0.34896138310432434,0.008947654627263546,-0.6688913106918335
1783696780653821400,7.932821533203125,0.29249945282936096,0.4267728626728058,-0.6572779417037964
1783696780663784400,7.942784423828125,0.31203535199165344,0.6092169880867004,-0.5361421704292297
1783696780673747500,7.95274755859375,0.3272792100906372,0.6354926228523254,-0.4589778184890747
1783696780683710500,7.96271044921875,0.3033815920352936,0.5599443316459656,-0.5426897406578064
1783696780693673500,7.972673583984375,0.2616400718688965,0.5034082531929016,-0.767754077911377
1783696780703636500,7.982636474609375,0.24817222356796265,0.5325128436088562,-1.036321759223938
1783696780713599500,7.992599609375,0.27450326085090637,0.6051836609840393,-1.2550939321517944
1783696780723562500,8.0025625,0.29114827513694763,0.6694348454475403,-1.409813404083252
1783696780733525500,8.012525390625,0.24402108788490295,0.6701865792274475,-1.5554540157318115
1783696780743488500,8.022488525390624,0.12249252945184708,0.5926070809364319,-1.7515153884887695
1783696780753451300,8.032451171875,-0.009930673986673355,0.45764845609664917,-2.0071563720703125
1783696780763414300,8.042414306640625,-0.07971667498350143,0.21754024922847748,-2.2576169967651367
1783696780773377500,8.05237744140625,-0.012609008699655533,-0.13813510537147522,-2.36230206489563
1783696780783340500,8.062340576171875,0.1804209053516388,-0.4616412818431854,-2.2390058040618896
1783696780793303600,8.072303466796875,0.42868009209632874,-0.699410080909729,-1.9238612651824951
1783696780803266600,8.0822666015625,0.6758387684822083,-0.8745696544647217,-1.5367015600204468
1783696780813229600,8.0922294921875,0.8661494851112366,-0.9824486970901489,-1.1949812173843384
1783696780823192300,8.1021923828125,0.9564186334609985,-0.9436405897140503,-0.9958566427230835
1783696780833155300,8.1121552734375,0.9487156271934509,-0.7252329587936401,-0.9262701272964478
1783696780843118300,8.122118408203125,0.8755987882614136,-0.39622974395751953,-0.9328507781028748
1783696780853081300,8.132081298828124,0.8045912384986877,-0.07646171003580093,-0.9468812942504883
1783696780863044600,8.142044677734376,0.7413288950920105,0.13994409143924713,-0.9112972021102905
1783696780873007600,8.152007568359375,0.6707635521888733,0.22550994157791138,-0.766867995262146
1783696780882970400,8.161970458984374,0.6003437042236328,0.14656773209571838,-0.5158618688583374
1783696780892933400,8.171933349609375,0.5332934856414795,-0.11531172692775726,-0.19171328842639923
1783696780902896400,8.181896484375,0.4575558602809906,-0.3905699551105499,0.1964368373155594
1783696780912859400,8.191859375,0.35349586606025696,-0.4699893295764923,0.6125996708869934
1783696780922822400,8.201822509765625,0.24954362213611603,-0.376840204000473,1.0077329874038696
1783696780932785400,8.211785400390625,0.14966827630996704,-0.17853130400180817,1.3303898572921753
1783696780942748700,8.221748779296876,0.039285581558942795,0.04688052460551262,1.5326350927352905
1783696780952711400,8.23171142578125,-0.04941621050238609,0.25827446579933167,1.6038233041763306
1783696780962674400,8.24167431640625,-0.10524911433458328,0.5078904628753662,1.553807258605957
1783696780972638000,8.251637939453126,-0.14151795208454132,0.7722080945968628,1.4097955226898193
1783696780982601000,8.26160107421875,-0.14065907895565033,0.9868205189704895,1.2232706546783447
1783696780992564000,8.27156396484375,-0.10259435325860977,1.1250667572021484,1.0359280109405518
1783696781002527000,8.28152685546875,-0.06372524797916412,1.101407766342163,0.8650665283203125
1783696781012491000,8.291490966796875,-0.03663666918873787,0.9111918210983276,0.7160490155220032
1783696781022454000,8.3014541015625,-0.008817021735012531,0.6963503360748291,0.5878886580467224
1783696781032417000,8.3114169921875,0.012699184939265251,0.5678894519805908,0.5081954002380371
1783696781042380000,8.321380126953125,0.011415807530283928,0.505394697189331,0.47636908292770386
1783696781052342800,8.3313427734375,0.020200215280056,0.446150541305542,0.4873574674129486
1783696781062306000,8.34130615234375,0.039731837809085846,0.3696800172328949,0.501713216304779
1783696781072269000,8.35126904296875,0.05503101274371147,0.2005801796913147,0.4637156128883362
1783696781082232000,8.361232177734376,0.03936496749520302,-0.05306967720389366,0.3674468696117401
1783696781092195000,8.371195068359375,-0.020652854815125465,-0.28016212582588196,0.28746458888053894
1783696781102158000,8.381157958984375,-0.11763026565313339,-0.32069650292396545,0.2530735731124878
1783696781112121000,8.39112109375,-0.2270365208387375,-0.0906548798084259,0.2520533800125122
1783696781122083800,8.401083740234375,-0.3094073235988617,0.38081440329551697,0.31014809012413025
1783696781132046800,8.411046875,-0.3706863522529602,0.8715600371360779,0.3802836239337921
1783696781142009900,8.421009765625,-0.39041051268577576,1.1371631622314453,0.40206271409988403
1783696781151973000,8.43097314453125,-0.3511962890625,1.1903626918792725,0.356137216091156
1783696781161936100,8.44093603515625,-0.2961503565311432,1.0104966163635254,0.19647830724716187
1783696781171899100,8.450899169921875,-0.27606600522994995,0.6318634152412415,-0.10173708945512772
1783696781181862000,8.46086181640625,-0.2592816948890686,0.16594524681568146,-0.5019944906234741
1783696781191825000,8.470824951171876,-0.1625821441411972,-0.25154128670692444,-0.8729422092437744
1783696781201788000,8.480787841796875,0.0062140654772520065,-0.5216100215911865,-1.1036255359649658
1783696781211751000,8.4907509765625,0.12091954797506332,-0.5649606585502625,-1.179993987083435
1783696781221714000,8.5007138671875,0.11841884255409241,-0.4603665769100189,-1.1681466102600098
1783696781231677000,8.510677001953125,0.06362485885620117,-0.32752636075019836,-1.159188151359558
1783696781241640200,8.52064013671875,-0.015972228720784187,-0.20409442484378815,-1.1893717050552368
1783696781251603000,8.53060302734375,-0.11783242970705032,-0.10493705421686172,-1.2516645193099976
1783696781261566000,8.54056591796875,-0.2117418795824051,-0.03252756968140602,-1.3107414245605469
1783696781271529000,8.550529052734374,-0.25681477785110474,-0.0011735325679183006,-1.3443056344985962
1783696781281492000,8.560491943359375,-0.258326917886734,-0.07744060456752777,-1.3374383449554443
1783696781291455000,8.570455078125,-0.2254762500524521,-0.25958147644996643,-1.2932262420654297
1783696781301418000,8.58041796875,-0.16071297228336334,-0.46197718381881714,-1.2181816101074219
1783696781311381000,8.590381103515625,-0.06952037662267685,-0.5844228863716125,-1.1183247566223145
1783696781321344000,8.600343994140625,0.0022347685880959034,-0.5742291212081909,-1.021894097328186
1783696781331307000,8.61030712890625,0.034735362976789474,-0.4470475912094116,-0.9494023323059082
1783696781341270000,8.62027001953125,0.031256210058927536,-0.2188439816236496,-0.8898947834968567
1783696781351233000,8.63023291015625,-0.014031048864126205,0.044908806681632996,-0.8261218070983887
1783696781361196000,8.640196044921876,-0.08291637152433395,0.26971688866615295,-0.7382955551147461
1783696781371159000,8.650158935546875,-0.14902687072753906,0.4010978937149048,-0.6147916913032532
1783696781381121800,8.660121826171874,-0.20802919566631317,0.4157465994358063,-0.4699186682701111
1783696781391084800,8.670084716796875,-0.24748177826404572,0.3610624074935913,-0.3165492117404938
1783696781401048000,8.680048095703125,-0.27091705799102783,0.3225054144859314,-0.1581214964389801
1783696781411011000,8.690010986328126,-0.27126842737197876,0.3367983400821686,0.012260597199201584
1783696781420974000,8.69997412109375,-0.26999062299728394,0.3695099651813507,0.17742185294628143
1783696781430937000,8.70993701171875,-0.29129934310913086,0.3849889934062958,0.3274337947368622
1783696781440900000,8.719900146484376,-0.3303564786911011,0.446433424949646,0.4887334704399109
1783696781450862800,8.72986279296875,-0.3968336284160614,0.5614750981330872,0.6821984648704529
1783696781460825900,8.739825927734374,-0.48364493250846863,0.6433976292610168,0.8950603604316711
1783696781470788900,8.749788818359375,-0.5710085034370422,0.6324852108955383,1.0915724039077759
1783696781480751900,8.759751953125,-0.6575772166252136,0.5035791397094727,1.2451437711715698
1783696781490715100,8.769715087890624,-0.7307161688804626,0.2664977014064789,1.3132225275039673
1783696781500678100,8.77967822265625,-0.7842784523963928,-0.0513409785926342,1.2989096641540527
1783696781510641200,8.78964111328125,-0.7711378335952759,-0.3930497467517853,1.2420614957809448
1783696781520604000,8.79960400390625,-0.6755610108375549,-0.6648095846176147,1.1437498331069946
1783696781530567000,8.80956689453125,-0.5426542162895203,-0.8236329555511475,0.9882955551147461
1783696781540530000,8.819530029296875,-0.3850259482860565,-0.8781582713127136,0.75653475522995
1783696781550493000,8.829492919921876,-0.19750630855560303,-0.93316251039505,0.4626182019710541
1783696781560456000,8.8394560546875,-0.007814669981598854,-0.9352365732192993,0.19491669535636902
1783696781570419200,8.849419189453124,0.06149335950613022,-0.7707749605178833,-0.02354278787970543
1783696781580382000,8.8593818359375,-0.018369778990745544,-0.3618420362472534,-0.15536420047283173
1783696781590345000,8.869344970703125,-0.16719955205917358,0.21427226066589355,-0.15933042764663696
1783696781600308000,8.879307861328124,-0.2815370559692383,0.8337221741676331,0.0005210155504755676
1783696781610271000,8.88927099609375,-0.29531753063201904,1.3689264059066772,0.2799283266067505
1783696781620234000,8.89923388671875,-0.19621890783309937,1.5142886638641357,0.5320047736167908
1783696781630197000,8.909197021484376,-0.06250794976949692,1.310629963874817,0.6492873430252075
1783696781640160000,8.919159912109375,0.04048021882772446,0.8426148295402527,0.6259220838546753
1783696781650123000,8.929123046875,0.08810970187187195,0.14865164458751678,0.46175870299339294
1783696781660086000,8.9390859375,0.10162737220525742,-0.4774916172027588,0.2270047664642334
1783696781670049000,8.949049072265625,0.133863627910614,-0.7688239812850952,0.012947442010045052
1783696781680012000,8.959011962890624,0.22579407691955566,-0.7252261638641357,-0.1624842882156372
1783696781689975000,8.96897509765625,0.3281721770763397,-0.5369060635566711,-0.33185774087905884
1783696781699938000,8.97893798828125,0.40310102701187134,-0.3602311611175537,-0.4988725483417511
1783696781709901000,8.988901123046874,0.4632203280925751,-0.2612529993057251,-0.6406769156455994
1783696781719863800,8.99886376953125,0.5475887656211853,-0.24951112270355225,-0.7368593215942383
1783696781729826800,9.008826904296875,0.6461166143417358,-0.28683575987815857,-0.7842073440551758
1783696781739790000,9.0187900390625,0.709311842918396,-0.33986037969589233,-0.8057640194892883
1783696781749753000,9.028753173828125,0.6864621639251709,-0.41427910327911377,-0.8281019330024719
1783696781759716000,9.038716064453125,0.5802619457244873,-0.534268856048584,-0.8714140057563782
1783696781769680100,9.04868017578125,0.42601820826530457,-0.690406322479248,-0.9514492154121399
1783696781779643100,9.05864306640625,0.26241809129714966,-0.8406177163124084,-1.0626771450042725
1783696781789606100,9.068606201171875,0.10611002892255783,-0.9267690777778625,-1.1765928268432617
1783696781799569000,9.07856884765625,-0.015386835671961308,-0.915390133857727,-1.2376229763031006
1783696781809532000,9.088531982421875,-0.0840788409113884,-0.7779729962348938,-1.2103911638259888
1783696781819495000,9.098494873046874,-0.1011052280664444,-0.5977494120597839,-1.0962027311325073
1783696781829458000,9.1084580078125,-0.10910584777593613,-0.37824779748916626,-0.9073325395584106
1783696781839421000,9.1184208984375,-0.1193089485168457,-0.11991690844297409,-0.6706052422523499
1783696781849384200,9.12838427734375,-0.13443003594875336,0.12347648292779922,-0.4117852449417114
1783696781859347200,9.13834716796875,-0.14385895431041718,0.2735338807106018,-0.11820398271083832
1783696781869310000,9.14831005859375,-0.15764208137989044,0.24926096200942993,0.20760531723499298
1783696781879273000,9.15827294921875,-0.16788432002067566,0.005617151036858559,0.4841122627258301
1783696781889236000,9.168236083984375,-0.14907008409500122,-0.34533748030662537,0.6815205812454224
1783696781899199000,9.178198974609375,-0.11824507266283035,-0.564389705657959,0.7880382537841797
1783696781909162000,9.188161865234376,-0.09588459879159927,-0.6190228462219238,0.8003708720207214
1783696781919125000,9.198125,-0.08642186224460602,-0.5251424312591553,0.727557897567749
1783696781929088000,9.208087890625,-0.07605352997779846,-0.30267393589019775,0.5848376750946045
1783696781939051000,9.218051025390626,-0.08285471051931381,0.04422514885663986,0.3949017822742462
1783696781949014000,9.228013916015625,-0.12450704723596573,0.45263150334358215,0.20826540887355804
1783696781958977000,9.23797705078125,-0.19210340082645416,0.7691287398338318,0.07897774130105972
1783696781968940000,9.24793994140625,-0.27416354417800903,0.8533626198768616,0.017936326563358307
1783696781978902800,9.25790283203125,-0.3473469316959381,0.7185457348823547,0.03558589145541191
1783696781988865800,9.26786572265625,-0.3873829245567322,0.4813678562641144,0.1222822442650795
1783696781998828500,9.27782861328125,-0.3722423315048218,0.2466544210910797,0.25936153531074524
1783696782008791800,9.287791748046875,-0.31739798188209534,0.0730365589261055,0.4252746105194092
1783696782018754800,9.2977548828125,-0.21526281535625458,0.004156562499701977,0.6000850796699524
1783696782028717800,9.3077177734375,-0.07880362868309021,0.010602123104035854,0.7529895901679993
1783696782038680800,9.317680908203124,0.033893097192049026,0.01615135185420513,0.7992563843727112
1783696782049266700,9.3282666015625,0.09253498911857605,0.04629784822463989,0.6660074591636658
1783696782059230000,9.33822998046875,0.0871676579117775,0.08924877643585205,0.4191347658634186
1783696782069192700,9.348192626953125,0.0033543615136295557,0.034279752522706985,0.1442391276359558
1783696782079155700,9.35815576171875,-0.1390874683856964,-0.009486633352935314,0.005335313268005848
1783696782089118700,9.36811865234375,-0.3202238380908966,0.24697256088256836,0.14803804457187653
1783696782099081700,9.378081787109375,-0.45221835374832153,0.7515614628791809,0.49165773391723633
1783696782109044700,9.388044677734374,-0.43331843614578247,1.257853627204895,0.8298808932304382
1783696782119007700,9.3980078125,-0.22161337733268738,1.554331660270691,0.9702409505844116
1783696782128970500,9.407970458984375,0.06749497354030609,1.6519614458084106,0.904291033744812
1783696782138933800,9.417933837890626,0.2833665609359741,1.4495034217834473,0.6198595762252808
1783696782148896800,9.427896728515625,0.31001943349838257,0.9866249561309814,0.18276424705982208
1783696782158859800,9.43785986328125,0.22031459212303162,0.4475580155849457,-0.26501595973968506
1783696782168822800,9.44782275390625,0.12127922475337982,-0.023195719346404076,-0.5883964896202087
1783696782178785800,9.457785888671875,0.03394059091806412,-0.306494802236557,-0.766663670539856
1783696782188748800,9.467748779296874,-0.039919961243867874,-0.43354684114456177,-0.8917989730834961
1783696782198711600,9.477711669921876,-0.09440051764249802,-0.516690194606781,-1.0380887985229492
1783696782208674600,9.487674560546875,-0.12306760996580124,-0.582046627998352,-1.1817837953567505
1783696782218637800,9.497637939453124,-0.1365719586610794,-0.5607996582984924,-1.290680170059204
1783696782228600800,9.507600830078125,-0.12434882670640945,-0.3793947100639343,-1.3474370241165161
1783696782238563800,9.517563720703125,-0.050650641322135925,-0.059220168739557266,-1.3319193124771118
1783696782248526800,9.52752685546875,0.056815337389707565,0.264840304851532,-1.2786471843719482
1783696782258489900,9.53748974609375,0.14679822325706482,0.4672309458255768,-1.209837794303894
1783696782268452600,9.54745263671875,0.20179052650928497,0.4743841886520386,-1.1246765851974487
1783696782278415600,9.55741552734375,0.21989761292934418,0.3284698724746704,-1.0188266038894653
1783696782288378600,9.567378662109375,0.20422305166721344,0.13894985616207123,-0.8906630277633667
1783696782298341600,9.577341552734374,0.17510271072387695,-0.0019468007376417518,-0.7526564598083496
1783696782308305000,9.587304931640626,0.15696221590042114,-0.07022075355052948,-0.6161437034606934
1783696782318268000,9.597267822265625,0.13944846391677856,-0.0608203262090683,-0.4906582236289978
1783696782328230700,9.607230712890624,0.12714409828186035,0.006256153807044029,-0.3714248538017273
1783696782338193700,9.617193603515625,0.11019547283649445,0.07210227847099304,-0.24423734843730927
1783696782348156700,9.62715673828125,0.08599260449409485,0.1545780748128891,-0.09145462512969971
1783696782358741800,9.63774169921875,0.055699415504932404,0.2578336000442505,0.09621407091617584
1783696782368704800,9.647704833984376,0.01910482905805111,0.3362089991569519,0.2882192134857178
1783696782378667800,9.657667724609375,-0.0223494041711092,0.38425639271736145,0.4818185269832611
1783696782388630500,9.667630615234375,-0.053756650537252426,0.40097033977508545,0.6580407023429871
1783696782398593800,9.67759375,-0.078915536403656,0.3882300555706024,0.806282103061676
1783696782408556800,9.687556884765625,-0.10536517202854156,0.3454202115535736,0.9217125773429871
1783696782418519800,9.697519775390624,-0.11854887753725052,0.30274224281311035,0.9925857186317444
1783696782428482800,9.70748291015625,-0.09977024793624878,0.3151237368583679,1.0080982446670532
1783696782438445800,9.71744580078125,-0.06559629738330841,0.36629822850227356,0.9754462838172913
1783696782448408800,9.727408935546874,-0.053187355399131775,0.4342786967754364,0.8912566900253296
1783696782458371600,9.73737158203125,-0.0746721401810646,0.5068961977958679,0.7706173658370972
1783696782468334600,9.74733447265625,-0.11726967245340347,0.560114324092865,0.6467050313949585
1783696782478297600,9.757297607421876,-0.16492906212806702,0.5239638090133667,0.510899007320404
1783696782488260900,9.7672607421875,-0.1832028329372406,0.3803556263446808,0.3592366576194763
1783696782498223900,9.777223876953125,-0.16100618243217468,0.19982551038265228,0.21397267282009125
1783696782508187000,9.787186767578126,-0.12655580043792725,0.04047899320721626,0.11187746375799179
1783696782518150000,9.79714990234375,-0.1942400336265564,0.35770517587661743,0.37823137640953064
1783696782528112600,9.807112548828124,-0.3643050491809845,0.06869858503341675,0.42062249779701233
1783696782538075600,9.81707568359375,-0.38593125343322754,-0.7275269031524658,0.16444294154644012
1783696782548038700,9.82703857421875,-0.3045538365840912,-1.3384454250335693,-0.048731911927461624
1783696782558001700,9.837001708984374,-0.28100696206092834,-1.4921587705612183,-0.1429034173488617
1783696782567964700,9.846964599609375,-0.2992616891860962,-1.3481537103652954,-0.19487237930297852
1783696782577928700,9.8569287109375,-0.33488544821739197,-0.9108206033706665,-0.16676057875156403
1783696782587891700,9.8668916015625,-0.3868420422077179,-0.09073006361722946,0.07131282240152359
1783696782597855000,9.87685498046875,-0.45851701498031616,0.7243314385414124,0.48576435446739197
1783696782607817700,9.886817626953125,-0.3945688009262085,1.0230525732040405,0.9594741463661194
