time,seconds_elapsed,z,y,x
1783696772781775000,0.060775146484375,1.7735533950775861,1.1688903423771262,-0.6561679067492485
1783696772791738000,0.070738037109375,1.2263771934449672,0.614310586489737,-0.3972620459537953
1783696772801701000,0.080701171875,0.223358673530817,-0.0742658441722393,-0.0685505717979744
1783696772811664100,0.0906640625,-0.54126200915277,-0.49689182928949593,0.08929565552175045
1783696772821627100,0.100627197265625,-0.9136737645536661,-0.870086844022572,0.15975870987754315
1783696772831590100,0.110590087890625,-1.1528858407765625,-1.1775041492044924,0.24329313499145208
1783696772841553000,0.120552978515625,-1.7094313437789677,-1.4022671365752815,0.5850178565099835
1783696772851517000,0.130516845703125,-2.6252146478325127,-1.5865826704844832,0.9798277600713073
1783696772861480000,0.14047998046875,-4.055233422425389,-2.037647399100661,0.7902839701198041
1783696772871443000,0.15044287109375,-6.187973765149712,-3.2024040026739238,0.4544431920733303
1783696772881406000,0.160406005859375,-8.03375302300453,-3.8963454675003883,0.795793381191045
1783696772891369200,0.170369140625,-9.292416867548226,-3.9850191917315123,0.4732448866443708
1783696772901332200,0.180332275390625,-10.178404752796888,-3.7604885518118736,-0.35496385005898773
1783696772911295200,0.190295166015625,-9.677465986204147,-3.1523215826436877,-1.3423906138919293
1783696772921258000,0.200258056640625,-8.427802609717846,-2.775108272179961,-1.789000408925861
1783696772931221000,0.210220947265625,-7.68690240983963,-2.8733482816576954,-1.2394023869737982
1783696772941184000,0.22018408203125,-7.655175146189332,-2.6975018854081627,-0.10214436910566874
1783696772951147000,0.23014697265625,-7.658299415689706,-2.1893597633078694,1.2791633194759486
1783696772961110000,0.240110107421875,-6.383329748511314,-1.5990306486472488,1.9857504769943652
1783696772971072500,0.250072509765625,-3.967255279242992,-0.7582561160877347,1.9194824997082351
1783696772981035500,0.260035400390625,-1.410143861299753,0.229677355158329,1.4377157588362692
1783696772990998500,0.26999853515625,0.561327476581931,0.5575654936999083,0.6119706723000854
1783696773000961500,0.27996142578125,1.2430179471224545,-0.2403369885995984,-0.506389287083596
1783696773010924300,0.28992431640625,1.0027402874946594,-1.1447414050266147,-1.7627791953459382
1783696773020887300,0.29988720703125,0.6660504183381796,-1.499319689834118,-2.5622210160419345
1783696773030850300,0.309850341796875,0.36424306199252604,-1.3072346909672021,-2.708469854146242
1783696773040814300,0.319814453125,0.4615595268845558,-0.9115019734725356,-2.375968522720784
1783696773050777300,0.32977734375,0.7812240269601345,-0.3215492909088731,-1.9034004028268157
1783696773060740400,0.339740234375,1.5411568440884351,0.6578396393537521,-1.4102427916295825
1783696773070703600,0.34970361328125,2.3712083225816487,1.429525438117981,-1.3136813828885554
1783696773080666600,0.35966650390625,3.7440176017433404,1.5883423736333846,-1.534308877889812
1783696773090629400,0.36962939453125,4.5231250749409195,1.3595342025250197,-1.2250960675932465
1783696773100592400,0.37959228515625,5.46329170962274,1.2420496866121888,-1.1261401649311185
1783696773110555400,0.389555419921875,6.1523325429260725,1.7668121041238307,-1.4922548660144208
1783696773120518400,0.399518310546875,6.05466828750968,2.0157865726873276,-1.5090176386363803
1783696773130481400,0.4094814453125,5.767092285612225,2.08572958522439,-1.1018967542301863
1783696773140444400,0.4194443359375,5.246103833681345,2.1970918188646436,-0.7445921131987124
1783696773150407700,0.42940771484375,4.62038367216587,2.2971108207136393,-0.5562804588580503
1783696773160370400,0.439370361328125,4.27367977399528,2.602148245021701,-0.5290773946339264
1783696773170333400,0.44933349609375,4.084499264398217,2.968312922726571,-0.5485163276625796
1783696773180296400,0.45929638671875,4.27325015040636,3.1951407336726785,-0.6352469915345311
1783696773190259500,0.469259521484375,5.524858231219649,3.2707460097551344,-0.9200961988165974
1783696773200222500,0.479222412109375,6.917882615414261,3.0479759497672316,-1.032156497723609
1783696773210185500,0.489185546875,8.149584803274273,3.056489511090517,-0.7582881186611949
1783696773220148500,0.4991484375,8.441694356948137,3.001982260355353,-0.22879984167143702
1783696773230112500,0.509112548828125,8.034774182745814,2.813710682296753,0.14187785647846757
1783696773240075300,0.5190751953125,6.917450069215893,2.9809459020674227,0.37555100327469404
1783696773250038300,0.529038330078125,5.60880025075376,2.5557234707161784,0.5594662858199327
1783696773260001500,0.53900146484375,4.496500687387585,2.175219594274461,0.06372267671748995
1783696773269964500,0.548964599609375,3.7416432738274334,2.1844158771649003,-0.7283243575520814
1783696773279927600,0.558927490234375,2.6852923921763896,1.7600778274327515,-1.1191568819150328
1783696773289890600,0.568890625,1.4429343702673911,1.3452294905796647,-1.0747286882542073
1783696773299853600,0.578853515625,-0.11996610359549521,0.9886682152613997,-0.5713434783574194
1783696773309816300,0.58881640625,-1.8386603657603262,0.6149804485753179,0.14352745031639932
1783696773319779300,0.598779296875,-3.5232074436515566,0.30573066726922987,0.8049000861018896
1783696773329742300,0.608742431640625,-5.071132466700673,-0.12371756508350372,1.3397741477832197
1783696773339705300,0.618705322265625,-6.103640700471401,-0.8240572065144777,1.5877935075789689
1783696773349668600,0.628668701171875,-6.761562757411599,-1.779767447286844,1.3796613370135427
1783696773359631600,0.638631591796875,-7.477643573331832,-2.7742180453419683,1.3414888427466154
1783696773369594400,0.648594482421875,-7.730830398893356,-3.5730905417174097,1.9712623713061213
1783696773379557400,0.658557373046875,-7.675272762322425,-4.40137559505999,3.009526976646483
1783696773389520400,0.668520263671875,-8.07388863403797,-5.384357289117574,3.854325357894599
1783696773399483400,0.6784833984375,-8.413830198466778,-5.90304272480309,3.897372472460568
1783696773409447400,0.688447509765625,-8.349842587202787,-6.132670980122685,3.4661420328661796
1783696773419410400,0.698410400390625,-8.373490589293837,-6.306700097817182,3.0145529881149526
1783696773429373400,0.70837353515625,-8.487168990921974,-6.031224868080019,2.6590239784538743
1783696773439336400,0.71833642578125,-7.9635542821407315,-5.146951385533809,2.290356524147838
1783696773449299500,0.728299560546875,-6.62739218737483,-4.126079229021072,1.9679520777143538
1783696773459262500,0.738262451171875,-4.89593898140192,-3.0732895469829438,1.7818962760090826
1783696773469225500,0.7482255859375,-3.314874489817023,-2.05393159442544,1.6635585042677818
1783696773479188500,0.7581884765625,-1.8014648998320102,-1.1278890544250606,1.3836881083115935
1783696773489151500,0.7681513671875,-0.43027825343608855,-0.5065615749105811,0.8844024426881223
1783696773499114500,0.778114501953125,0.6011369244009256,-0.30044921973496674,0.14508015965111554
1783696773509077500,0.788077392578125,0.8899836768865584,-0.11272446190416813,-0.596623684760183
1783696773519040300,0.798040283203125,0.6492313854843378,0.6558551875382661,-0.9522883034996688
1783696773529003300,0.808003173828125,1.2851666515439748,1.9011504319429398,-0.763455876687914
1783696773538966500,0.817966552734375,2.534604987102747,2.999104659092426,0.22277765877246855
1783696773548929500,0.827929443359375,3.879796191498637,3.7382501242578026,1.5227484962165354
1783696773558892500,0.837892578125,4.978811910399794,4.098365584926307,2.5084827038526534
1783696773568855600,0.84785546875,5.754388286861777,3.9515032910987733,3.014771014779806
1783696773578819600,0.857819580078125,6.439476583147049,3.6446629090219735,2.7587562723159786
1783696773588782600,0.867782470703125,7.019708666685223,3.352612976580858,1.9976462281018494
1783696773598745300,0.877745361328125,7.404626852437853,3.1211665659233927,0.7153834813058376
1783696773608708400,0.887708251953125,7.47369454344511,2.732309871678054,-0.20761106930077075
1783696773618671400,0.89767138671875,7.341119133645296,2.4306916081637144,1.406305890572071
1783696773628634400,0.90763427734375,7.0312874607980245,2.033218184481561,2.4502590629428624
1783696773638597400,0.917597412109375,7.0029790656805035,1.8759663063257932,2.7878105173647403
1783696773648560600,0.927560546875,7.1623138875901695,2.1135303230807185,3.149950177337229
1783696773658523600,0.937523681640625,7.3701102503299705,2.3185662811964747,3.4836250825867054
1783696773668486400,0.947486328125,7.434430454549193,2.4113620537936686,3.7228085172370076
1783696773678449400,0.957449462890625,6.696122609251737,2.3231866344735024,4.038304499456286
1783696773688412400,0.967412353515625,5.842016301432252,2.027576671463251,3.437209952892363
1783696773698375400,0.97737548828125,5.35586769221425,2.2116437835693357,2.1246713102981447
1783696773708338400,0.98733837890625,4.8361330397367475,2.249367365024984,1.13727121527642
1783696773718301400,0.997301513671875,4.35482660985291,1.9261565706446766,0.5141062912017107
1783696773728264400,1.007264404296875,3.6845237947672604,1.5579539573714136,0.29637247181534765
1783696773738227500,1.0172275390625,2.9020068053871393,1.2898629926666616,0.15767127261161804
1783696773748190500,1.0271904296875,2.198326036834717,0.8132248468548059,0.20776070690453052
1783696773758154500,1.037154541015625,1.0436661721229552,0.07460077521502971,0.29387977821677924
1783696773768117500,1.047117431640625,-1.2371277200400828,-0.7017062536090612,-0.11339286268502473
1783696773778080500,1.05708056640625,-4.00815953656137,-1.2589581513151527,-1.1435215078428387
1783696773788043500,1.06704345703125,-6.992694403031468,-1.8891890682533383,-3.0080647951394317
1783696773798006500,1.077006591796875,-9.423133497738837,-2.6287454523071645,-5.154488210779428
1783696773807969300,1.08696923828125,-11.070781462299824,-3.402677276432514,-7.188486439722776
1783696773817932300,1.096932373046875,-12.276030527520179,-4.307524175930023,-8.754919763886928
1783696773827895300,1.106895263671875,-12.378632823860645,-4.146455662095547,-8.769853129124641
1783696773837858600,1.116858642578125,-12.476936546224355,-3.9709786836802956,-8.823309994024038
1783696773847821600,1.126821533203125,-12.574887217366694,-3.791380241420865,-8.895392064416408
1783696773857784600,1.13678466796875,-11.465413232815266,-6.830973562768102,-5.566639271372557
1783696773867747600,1.14674755859375,-10.208899259781838,-7.385782451236247,-4.114368625222146
1783696773877710300,1.15671044921875,-8.541064247238635,-7.821886049824952,-3.4641765780121085
1783696773887673300,1.16667333984375,-7.04170305635035,-8.075622325962781,-3.301239932218194
1783696773897636400,1.17663623046875,-5.928962763479352,-7.814341041272878,-3.170597244046628
1783696773907599400,1.186599365234375,-5.150749608772993,-6.992891386908292,-2.4377441570237277
1783696773917562400,1.196562255859375,-4.431772486889362,-6.102593821766972,-1.348615333625674
1783696773927525600,1.206525634765625,-3.407535237857699,-5.176795904177427,-0.1968012137338519
1783696773937488600,1.216488525390625,-2.3449808253914117,-4.199169015151262,0.8846586824715137
1783696773947452700,1.22645263671875,-1.4528987149208783,-3.174691527622938,1.8775310714244842
1783696773957415400,1.23641552734375,0.04506722221672535,-1.8173060275644062,2.985585252305865
1783696773967379200,1.246379150390625,1.5994816072851419,-0.4671750286787748,3.3818525150686503
1783696773977342000,1.256342041015625,3.26452435876131,0.9581529577493667,3.117741559910774
1783696773987305000,1.266304931640625,4.575394191360473,2.064943986827135,2.1829463891342282
1783696773997268000,1.27626806640625,5.355916792052984,2.837808181720972,1.2928075216859578
1783696774007231000,1.28623095703125,5.808557683944702,3.660094871431589,0.908319544044137
1783696774017194000,1.296194091796875,5.999240414798259,4.288573391744494,0.9752046303153038
1783696774027157000,1.306156982421875,6.30038200071156,4.762414308053255,1.4812015570804475
1783696774037120000,1.3161201171875,6.882360635656118,5.238306311672925,2.2145967881560322
1783696774047083000,1.3260830078125,7.733926611343025,5.694886881101131,2.919328819327056
1783696774057046000,1.3360458984375,8.620967220515013,6.125041800418495,3.0160698224186895
1783696774067009000,1.346009033203125,9.038665978363156,6.426198583900928,2.9517914115145802
1783696774076972000,1.355971923828125,9.162380620837212,6.477943968707323,3.475999994535744
1783696774086935000,1.36593505859375,9.015212622061371,6.643622606685757,3.6595305155470963
1783696774096898000,1.37589794921875,8.558858262604474,6.385045320257544,3.9058889563933015
1783696774106860800,1.38586083984375,8.206765657132863,5.8135249509632585,3.9070872262671585
1783696774116823800,1.39582373046875,7.998882200631499,5.383785042187571,3.5705776821136475
1783696774126787000,1.405787109375,7.713265516108274,5.1139434344232075,3.3100276343077417
1783696774136750000,1.41575,6.8653130547434085,4.784720832407475,3.192071701490879
1783696774146713900,1.4257138671875,7.183691022139787,4.282024408492446,2.6751705188736317
1783696774156677000,1.435677001953125,7.939569010919332,4.179599806806445,2.3632789908871055
1783696774166640000,1.44564013671875,7.868694562751054,4.014560051253437,2.542717274148762
1783696774176603100,1.45560302734375,7.579027141532301,3.935253290304541,2.8134298195287584
1783696774186566000,1.46556591796875,6.8485419526845215,3.9463329027235505,2.9021684256896374
1783696774196529000,1.47552880859375,5.511712918442488,3.80601023979783,2.557522336831689
1783696774206492000,1.485491943359375,3.704449561464786,3.5613749694824217,1.8938553064987063
1783696774216455000,1.495454833984375,1.443233060953021,2.880485293930769,1.3780916034787893
1783696774226418000,1.50541796875,-1.0832733753681183,1.6062287434577942,1.1345885520637036
1783696774236381000,1.515380859375,-3.5352474255353212,-0.10017010075747966,1.240920974843204
1783696774246344200,1.52534423828125,-5.230661349877715,-2.303750989380479,1.0202727293148637
1783696774256307000,1.535306884765625,-6.4609928339064115,-4.977729960381985,0.09948796371221542
1783696774266270000,1.54527001953125,-7.8970929742395874,-7.238893853923678,-1.2091191846519709
1783696774276233000,1.55523291015625,-9.875829334688186,-8.67119577101767,-2.586131176200509
1783696774286196000,1.565196044921875,-12.327255687844753,-9.801515559720993,-3.8806735588550567
1783696774296159000,1.575158935546875,-14.872246459883451,-10.605284595966339,-4.381177441161871
1783696774306122000,1.5851220703125,-14.890491726148127,-10.550682068163155,-4.467705385535955
1783696774316085000,1.5950849609375,-14.917076950734852,-10.487688144111633,-4.555226724861562
1783696774326048000,1.605048095703125,-14.948755699068307,-10.419486130023001,-4.646617014575004
1783696774336011000,1.615010986328125,-14.979568185961245,-10.352836606073378,-4.74319581284225
1783696774345974000,1.62497412109375,-15.002987639993428,-10.297171417474747,-4.838455929726362
1783696774355938000,1.63493798828125,-15.014199938881397,-10.259895287525653,-4.923642396363616
1783696774365901000,1.644901123046875,-11.76313127402067,-10.452487066870928,-3.2796906559720633
1783696774375864000,1.654864013671875,-9.362626129806042,-9.50002267615199,-2.604279996353388
1783696774385827000,1.6648271484375,-7.079858891743421,-8.179978187972306,-1.8691916976243257
1783696774395790000,1.6747900390625,-4.739238015127182,-6.533287670266628,-1.3266051618695258
1783696774405752800,1.6847529296875,-2.216212406659126,-4.932480951857567,-0.8237683065705
1783696774415715800,1.6947158203125,0.2660147429525852,-3.359571125155687,-0.5122869668200611
1783696774425678800,1.704678955078125,2.0874889961123464,-1.7370622780263423,-0.37426015974655746
1783696774435642000,1.71464208984375,3.240592863553762,-0.08824643872976302,-0.24335604415982962
1783696774445605000,1.724605224609375,4.0686359248340125,1.4450690442085266,-0.04256941405162215
1783696774455568100,1.734568115234375,4.62431808900535,2.7457056520849465,0.2804625166304409
1783696774465531000,1.74453076171875,5.160379022383689,3.757270466548204,0.5168168653346598
1783696774475494000,1.754493896484375,5.860616372483968,4.402665050348639,0.5030721253596246
1783696774485457000,1.764456787109375,6.632139674162865,4.711262797486782,0.26264833525940773
1783696774495420000,1.774419921875,7.288550157496332,4.843873278599977,-0.02035568254739046
1783696774505383000,1.7843828125,7.696051346457004,4.9236669462829825,-0.34315321995168924
1783696774515346200,1.79434619140625,7.803824323433637,4.796415361854434,-0.49498701858147975
1783696774525309200,1.80430908203125,8.000598941421508,4.574820775386691,-0.4500748407959938
1783696774535272000,1.81427197265625,8.201516650563478,4.474496360850334,-0.2898188123881817
1783696774545235000,1.82423486328125,8.32887578701973,4.411126004701853,0.05062397956103086
1783696774555198000,1.834197998046875,8.47964327159226,4.363566381147503,0.36258711147904393
1783696774565161000,1.844160888671875,8.462758187764882,4.27966761623323,0.8659542742624878
1783696774575125000,1.854125,8.592626092171669,4.131780071011185,1.404039699205756
1783696774585088000,1.864087890625,8.892345536327362,3.8663404975980518,1.8007567515626548
1783696774595051000,1.874051025390625,9.118360861846805,3.5072634400665756,2.1031610508881506
1783696774605014000,1.884013916015625,9.061573975741863,3.2045243558287617,2.0699398954182864
1783696774614976800,1.893976806640625,8.358932487109303,3.1084342178612947,1.7138495986126363
1783696774624940000,1.90393994140625,7.312814245659112,2.9659166752398014,1.5070862321823835
1783696774634903000,1.913903076171875,6.46513709410429,2.8375796336621044,1.304509942178428
1783696774644866000,1.923865966796875,5.94757861662209,2.805293567085266,0.8531075791057199
1783696774654829000,1.9338291015625,5.38212733810842,2.802033103984594,0.39578262105099854
1783696774664792000,1.9437919921875,4.797437690639495,2.737703547415137,0.05368818943724036
1783696774674755000,1.953755126953125,4.133550587815046,2.6179420264810322,-0.2612650642074644
1783696774684717800,1.9637177734375,3.4181355423271653,2.3446049778163434,-0.4574652433082461
1783696774694680800,1.973680908203125,2.3766233333677054,1.8623358403801917,-0.15048779084831476
1783696774704643800,1.983643798828125,0.8964970043033361,1.299495036625862,0.43241753048710524
1783696774714607000,1.993607177734375,-0.9069967710077762,0.554192217874527,0.8253648550469428
1783696774724570000,2.003570068359375,-3.181561997914314,-0.7409101367503405,0.3419171022854745
1783696774734533000,2.013533203125,-5.774121161335707,-2.0668571269720792,-1.1002461374789476
1783696774744495900,2.023495849609375,-8.284428158006072,-2.880365466943383,-2.4827450360059737
1783696774754459000,2.033458984375,-10.49616137342453,-3.1332033329367635,-2.9608395181059834
1783696774764422000,2.043421875,-12.05987667080164,-3.319119287779927,-2.2933048525594173
1783696774774385000,2.053385009765625,-12.112756028074026,-3.237269856610894,-2.3051427359998224
1783696774784348000,2.063347900390625,-12.170832953989505,-3.149111096164584,-2.3222340099237857
1783696774794311200,2.073311279296875,-12.228106746828555,-3.063430708530545,-2.350692188775539
1783696774804274200,2.083274169921875,-12.280912454342841,-2.985268441441655,-2.3939459318295118
1783696774814238000,2.093238037109375,-10.718495964604616,-6.064672964173555,1.5198805395647883
1783696774824201000,2.103200927734375,-8.687243234977126,-6.2778340688169,0.9787424490526317
1783696774834164000,2.1131640625,-7.215413609614968,-6.145796419155597,0.9329100876823068
1783696774844127000,2.123126953125,-6.157629480290413,-6.054239832964539,1.2877267112903297
1783696774854090000,2.133090087890625,-5.132917014962435,-5.95524345216155,1.6228449472159145
1783696774864053000,2.143052978515625,-3.825401753488183,-5.693699132621288,1.7928104687333106
1783696774874016000,2.15301611328125,-2.21917067194283,-5.123259544301033,1.741333671735227
1783696774883979000,2.16297900390625,-0.5759715034842491,-4.265872315114736,1.3652759610474108
1783696774893941800,2.172941650390625,0.7232979076921939,-3.114263654667139,0.8297149400152265
1783696774903905000,2.182905029296875,1.5655664782017469,-1.8022855685651302,0.15775387286115436
1783696774913868000,2.192867919921875,2.1655261755168436,-0.36835458896458145,-0.4722490440074354
1783696774923831000,2.2028310546875,2.654142636153102,1.142383151462674,-0.7856751611500978
1783696774933794000,2.2127939453125,3.095608054035902,2.4600679247736927,-0.8295120378542691
1783696774943757000,2.222757080078125,3.620910277512669,3.4729648646235463,-0.9380913627777248
1783696774953720000,2.232719970703125,3.9516783554047343,4.180311754468083,-1.0415011030435561
1783696774963682800,2.242682861328125,4.0138633011609315,4.7480157803446055,-0.8001881820838898
1783696774973645800,2.252645751953125,4.0196892308354375,5.162198054504394,-0.3551432252138853
1783696774983608800,2.26260888671875,4.080283108007908,5.399672347149252,0.02435293549001217
1783696774993571800,2.27257177734375,4.296625180774927,5.452734075251222,0.11982311492823064
1783696775003534800,2.282534912109375,4.8111879835724825,5.325529837095737,0.08285656238496303
1783696775013497900,2.292497802734375,5.5941533012419935,5.156504811298847,0.07747465015091001
1783696775023460900,2.3024609375,6.357127385762333,4.940856566014886,0.07761376636065542
1783696775033424000,2.312423828125,6.905307211479545,4.661025771416724,0.09423734970763326
1783696775043388000,2.322387939453125,7.280441669842601,4.279382661812007,0.12758790371082723
1783696775053351000,2.332350830078125,7.525646849000453,3.9181662541642783,0.04667319610863924
1783696775063313700,2.342313720703125,7.713637272030114,3.704101186418533,-0.11248429647274315
1783696775073276700,2.352276611328125,7.86073805078864,3.6732676567375657,-0.24561741322055458
1783696775083239700,2.36223974609375,8.039455034038424,3.573300969597697,-0.310938976502046
1783696775093203000,2.372202880859375,8.371084112673998,3.394775417266786,-0.47517589123956855
1783696775103166000,2.382166015625,8.824666084808111,3.3146517869770524,-0.8181907986991107
1783696775113129000,2.39212890625,9.265307911348343,3.344071065945923,-1.0628970153588801
1783696775123092000,2.402092041015625,9.420247128647565,3.3522146249130365,-1.1255325544267891
1783696775133054700,2.4120546875,9.210936854213475,3.3746345465138554,-1.1336207299448549
1783696775143017700,2.422017822265625,8.70474498939812,3.3632015906125305,-1.0921852883592247
1783696775152980700,2.431980712890625,7.607839979040622,3.408843397846818,-1.1444756667625158
1783696775162943700,2.44194384765625,5.6265007426172495,3.378427801316976,-1.0488995427317918
1783696775172906800,2.45190673828125,3.5448493666172025,3.1143148003324863,-0.6997073348768055
1783696775182870000,2.4618701171875,2.013957895955443,2.4197119489878416,-0.32486455293670297
1783696775192832800,2.471832763671875,0.7238485273122787,1.3016452003970742,-0.09355725848898291
1783696775202795800,2.481795654296875,-0.35008243469297884,-0.08330313710868358,0.0015699892630800605
1783696775212758800,2.4917587890625,-1.6907102766960858,-1.1867296581894158,-0.5888120611611753
1783696775222721800,2.5017216796875,-4.594395828950405,-1.9560826300919054,-1.6672708027891814
1783696775232684800,2.511684814453125,-8.63825854705572,-2.65248668563962,-2.4234321385547517
1783696775242647800,2.521647705078125,-12.68543199714422,-3.3494454524606465,-2.2493078899227084
1783696775252610800,2.53161083984375,-15.587297932755947,-3.918905089832842,-1.4620944132894276
1783696775262573800,2.54157373046875,-15.619695643013715,-3.854914848220348,-1.5220442934699356
1783696775272536800,2.551536865234375,-15.65832786374688,-3.780464295130968,-1.5989594831071794
1783696775282499800,2.561499755859375,-15.694980893361567,-3.7114889585822817,-1.682662579318881
1783696775292463900,2.5714638671875,-15.72867741125822,-3.6500212211847303,-1.7663146759957074
1783696775302427000,2.581427001953125,-15.75971084742546,-3.5955887892514466,-1.8401105645686386
1783696775312390000,2.591389892578125,-15.786684194546938,-3.549968024805188,-1.8953988826788961
1783696775322353000,2.601352783203125,-15.807721137356758,-3.515304707702994,-1.9305157887674866
1783696775332316000,2.61131591796875,-9.890888956654072,-7.541838105344772,1.1677501593660562
1783696775342278700,2.621278564453125,-8.714246392714976,-7.281304424151778,1.8015750822082162
1783696775352241700,2.63124169921875,-7.434941911202669,-6.730307787448168,2.1538091419771312
1783696775362204700,2.64120458984375,-5.84218639730215,-6.114997376266121,2.2164390550218522
1783696775372168000,2.65116796875,-3.8208243625700473,-5.423678076636791,2.2403182355202733
1783696775382131000,2.661130859375,-1.5196744955986736,-4.6396372386902565,2.2497499346017835
1783696775392094000,2.671093994140625,0.715847007164359,-3.630622108709812,2.0034765416905285
1783696775402057000,2.681056884765625,2.3357377807497977,-2.409462942174077,1.6338834969721734
1783696775412019700,2.691019775390625,3.2806764521390197,-0.9373439784765243,1.2132584764137864
1783696775421982700,2.700982666015625,3.6719232563912865,0.5920332882300019,0.7512301629737019
1783696775431945700,2.71094580078125,3.780765908426046,2.033080237315595,0.4488229775713756
1783696775441908700,2.72090869140625,3.9588884329140184,3.23448899372071,0.20961671003475785
1783696775451871700,2.730871826171875,4.039534918034076,4.068147264534235,0.21407390863932668
1783696775461835000,2.7408349609375,4.206355127263069,4.538712520173192,0.28611323586851356
1783696775471797800,2.7507978515625,4.551029565432668,4.791926818263531,0.3352378802498802
1783696775481760800,2.7607607421875,5.033207517454028,4.858612290309369,0.33985421493891627
1783696775491723800,2.770723876953125,5.680885243755578,4.755069498248398,0.23838117835670708
1783696775501686800,2.780686767578125,6.408872186046838,4.437591986823081,0.059471777807362375
1783696775511649800,2.79064990234375,7.247803136566281,3.9273488007903095,-0.014804076302237807
1783696775521612800,2.80061279296875,8.08347479302883,3.288266176615655,0.062081942039448765
1783696775531575800,2.810575927734375,8.702256679713726,2.6355408115357157,0.3771229287665337
1783696775541538800,2.820538818359375,9.095890086841584,2.0669106107249853,0.7857330288171768
1783696775551502600,2.830502685546875,9.362933588320017,1.542118967118859,1.0774950111623853
1783696775561465900,2.8404658203125,9.54763490667641,1.1184431806877255,1.2136654497794805
1783696775571428900,2.850428955078125,9.678419341406226,0.796200939078629,1.1457374303266405
1783696775581392000,2.860391845703125,9.578519874283671,0.6348623761311173,1.0408630974009632
1783696775591355000,2.87035498046875,9.408205393198132,0.7048702705979347,0.8092587927680462
1783696775601318000,2.88031787109375,9.131025697630644,0.8981579232528806,0.5691398308333009
1783696775611281000,2.890281005859375,8.569435186198353,1.072115729276836,0.4198879384554922
1783696775621243600,2.90024365234375,7.813751258686184,1.4454358316943048,0.2912520417953841
1783696775631206700,2.91020654296875,6.962405647751688,1.8885978243619201,0.06740876308539882
1783696775641169700,2.920169677734375,5.759544354450703,2.239462057082355,-0.3248412451263517
1783696775651133000,2.9301328125,3.661926178511977,2.52566530932188,-0.7041067388795316
1783696775661096000,2.940095947265625,1.0676724861323832,2.5193317223861813,-0.7531225525915622
1783696775671059000,2.950058837890625,-1.3149012800723314,2.2766540158793327,-0.5831381437106058
1783696775681022000,2.96002197265625,-2.7684663499474524,1.8906451122805474,-0.2679722336959094
1783696775690984700,2.969984619140625,-3.2274294305980202,0.9604989363536238,0.1826398923145607
1783696775700947700,2.97994775390625,-3.36422859557271,-0.31218232762664555,0.32143172894380984
1783696775710910700,2.98991064453125,-3.8655741894006725,-1.383621765077114,-0.3821779836663976
1783696775720873700,2.999873779296875,-5.201573202559351,-1.8704878749147056,-1.6167660656936467
1783696775730837000,3.0098369140625,-7.650518260294199,-2.0724495401516556,-2.742936479632556
1783696775740800000,3.019800048828125,-10.976638366746903,-2.552527012762427,-3.0353742423474785
1783696775750763000,3.029762939453125,-13.69057817673683,-3.3051252492189405,-2.028850344660878
1783696775760725800,3.039725830078125,-13.769347177547216,-3.1668110035061834,-2.090962809702754
1783696775770688800,3.049688720703125,-13.850323333013057,-3.0298171927422284,-2.16527190849483
1783696775780651800,3.05965185546875,-13.917932641905546,-2.9191438181489704,-2.243151413119584
1783696775790614800,3.06961474609375,-10.340755707657337,-6.9854796493470666,1.2282242826163767
1783696775800577800,3.079577880859375,-10.313761317747831,-7.631023870751261,0.7894810562390834
1783696775810540800,3.089540771484375,-10.848490125739573,-7.704490088978409,0.284148676063586
1783696775820504800,3.0995048828125,-11.076668766772746,-7.4559607338339084,0.28341058931369334
1783696775830467800,3.1094677734375,-11.062277837848663,-7.478012991166114,0.29660671896263957
1783696775840430800,3.119430908203125,-10.092614475047588,-5.786799441123009,0.5918133618690073
1783696775850393900,3.129393798828125,-9.190367528915404,-4.556730407422781,0.5919491536105052
1783696775860356900,3.13935693359375,-7.690508325377106,-3.5715754609793424,0.7119985150426625
1783696775870319900,3.14931982421875,-5.653968010735511,-2.87035611410439,0.9043414341934025
1783696775880283000,3.159282958984375,-3.2480952020078897,-2.2382710937321186,0.8990504881784319
1783696775890246000,3.169245849609375,-0.5195967053115368,-1.541962899774313,0.6456532347366214
1783696775900208600,3.179208740234375,2.2628818033754823,-0.7437555893093347,0.09859883285276591
1783696775910171600,3.189171630859375,4.509287103724479,0.3053992433577776,-0.5044095845084637
1783696775920134700,3.199134765625,5.833765190437436,1.5691817460894584,-0.8900876487176865
1783696775930098000,3.209097900390625,6.316489085903763,2.884780360776186,-1.0056860586229712
1783696775940061000,3.21906103515625,6.336995867359638,4.0536087438330055,-1.0064267209224402
1783696775950024000,3.22902392578125,6.058558280685544,4.7086453084647655,-1.15005346689485
1783696775959987000,3.238987060546875,5.787802480685711,4.812676760825514,-1.3033981815442441
1783696775969949200,3.24894921875,5.8989399656593795,4.6236970344975585,-1.4913744299180804
1783696775979912200,3.258912109375,6.480211329117417,4.425414642295241,-1.6614356668949126
1783696775989875200,3.268875244140625,7.406448222646117,4.169175443425774,-1.635108800983429
1783696775999838500,3.27883837890625,8.527606799772382,3.9313846321776507,-1.3633069990620017
1783696776009801500,3.288801513671875,9.517246198153495,3.6125121592625975,-0.9340225789688527
1783696776019764500,3.298764404296875,10.255095193767547,3.321235841542482,-0.4324477064296603
1783696776029727200,3.308727294921875,10.580655181622504,3.125928958019614,0.12650544223636387
1783696776039690200,3.318690185546875,10.529387935721873,2.9808251982972025,0.6460871691744774
1783696776049653200,3.3286533203125,10.290946259349584,2.8726325346037744,0.9101970283538102
1783696776059616300,3.3386162109375,10.084010312831401,2.771826181769371,1.0489293533481656
1783696776069579300,3.348579345703125,9.89076036183834,2.7952050115302205,1.1067634104184805
1783696776079542300,3.358542236328125,9.807671744263171,2.907538720551133,1.0140301816634834
1783696776089505500,3.368505615234375,9.897346754491329,2.9180764811784026,0.742079691986367
1783696776099468300,3.37846826171875,9.815438871133328,2.8261209587976337,0.31815314566455777
1783696776109432300,3.388432373046875,9.250787803086638,2.7799323313355444,-0.11517075907774268
1783696776119395300,3.398395263671875,8.388558394566179,2.780164678786695,-0.3450499934837222
1783696776129358300,3.4083583984375,7.397142634162306,2.9139433268964288,-0.34208274117596443
1783696776139321300,3.4183212890625,6.4248910084337,3.130353496463597,-0.2899870816271752
1783696776149284400,3.428284423828125,5.413679245191812,3.3241838776931165,-0.18556491291578858
1783696776159247400,3.438247314453125,4.091589514920115,3.338655178377032,-0.046824916071631015
1783696776169210400,3.44821044921875,2.4758745657145975,2.8368299843385816,0.3154674502445385
1783696776179173000,3.458173095703125,1.3138842119842766,1.9611215010419487,1.0653097025237976
1783696776189136400,3.468136474609375,0.5810924997597933,0.8251713052362203,1.9664216532766818
1783696776199099400,3.478099365234375,-0.1604962669044733,-0.4534983855038881,2.954737694099545
1783696776209062400,3.4880625,-1.2581371903210878,-1.6467179902344942,3.1560832732647657
1783696776219025400,3.498025390625,-3.4775556995451447,-2.491547058881819,1.856544689758122
1783696776228988400,3.507988525390625,-7.476724120399355,-2.9201906968533993,-0.4471378374960273
1783696776238951200,3.517951171875,-12.780372380554676,-3.0567975541263817,-2.023738846866041
1783696776248914200,3.5279140625,-17.711093921524284,-2.8975302444949746,-2.2533348073512314
1783696776258877200,3.537877197265625,-17.75500437492132,-2.8239374772787094,-2.169600293087959
1783696776268840200,3.547840087890625,-17.811803535985945,-2.720825477850437,-2.1100039025202393
1783696776278803500,3.557803466796875,-17.865401855182647,-2.62113526956439,-2.076703836595267
1783696776288766500,3.567766357421875,-17.903921847712994,-2.54711317102015,-2.069344852134585
1783696776298729500,3.5777294921875,-17.925645019221303,-2.502916594158113,-2.077511353585869
1783696776308692200,3.587692138671875,-17.935696457636354,-2.482529931950569,-2.081788446383178
1783696776318655200,3.5976552734375,-17.93960574003458,-2.477591014243662,-2.0717158190496265
1783696776328618200,3.6076181640625,-17.93893237081766,-2.4837866540133953,-2.0525407245889307
1783696776338581200,3.617581298828125,-9.375953228890895,-6.298409239333868,0.4079712176252156
1783696776348544300,3.627544189453125,-7.521208574292063,-5.446196197915077,1.0102142035719006
1783696776358507500,3.637507568359375,-5.451570292168856,-4.401736537326872,1.4405666182227432
1783696776368470500,3.647470458984375,-3.2711762178659436,-3.2712793859794735,1.9466554610550402
1783696776378433300,3.657433349609375,-1.3370137431591749,-2.1624735099479553,2.445439533831924
1783696776388396300,3.667396240234375,0.12091770523190498,-1.1493328244701027,2.4170816004842517
1783696776398360300,3.6773603515625,1.1810603803813458,-0.47969694886058567,1.8378072560623286
1783696776408323300,3.6873232421875,2.0981723026901484,-0.02849894925355911,0.8632356629535556
1783696776418286300,3.697286376953125,3.287434694227576,0.2995569470703602,-0.44538178760893643
1783696776428249300,3.707249267578125,4.665414069503545,0.609086714361608,-1.688257330586016
1783696776438212400,3.71721240234375,5.944544363492727,1.344421389067173,-2.119701559061557
1783696776448175400,3.72717529296875,6.8089142911732194,1.671543219411373,-2.1598975219801066
1783696776458138000,3.73713818359375,7.285529348370432,1.5170000156924128,-2.5496897435098886
1783696776468101400,3.747101318359375,7.574027725809812,1.934872668802738,-2.721963541969657
1783696776478064400,3.757064453125,7.646345358523726,2.4208945829011497,-2.556845460483432
1783696776488027400,3.76702734375,7.446189865925907,2.7373522497594354,-2.1184338772132993
1783696776497990400,3.776990478515625,7.30724199848473,2.8341347539052366,-1.58364194085747
1783696776507953400,3.786953369140625,7.203872809424996,2.7483190494537353,-1.1238698088463395
1783696776517916200,3.796916259765625,7.1333052352488036,2.3896873976022004,-0.7670745055764913
1783696776527879200,3.806879150390625,7.1485571649163955,1.7703054991975427,-0.5777984266504645
1783696776537842200,3.81684228515625,7.352811325004696,1.1250313999716193,-0.6005947803482413
1783696776547805200,3.82680517578125,7.72332572235167,0.4817518355637789,-0.660923722974211
1783696776557768400,3.8367685546875,7.880570878505706,-0.06845233558788895,-0.7988098064027727
1783696776567731500,3.8467314453125,7.67034115113914,-0.40531222754903135,-0.8980230448268354
1783696776577694500,3.856694580078125,7.143298221474885,-0.5680911254979669,-0.7830613253898918
1783696776587657200,3.8666572265625,6.390577235421538,-0.6556438828751444,-0.5380240501448512
1783696776597620200,3.8766201171875,5.432061289578676,-0.7940278328232466,-0.5879121166467667
1783696776607583200,3.886583251953125,4.651206680452823,-0.851316530970484,-1.1711777226619422
1783696776617546200,3.896546142578125,4.5749663213372225,-1.0475107187218964,-1.2185391932956873
1783696776627509200,3.90650927734375,5.228709046766162,-1.0340991562239825,-0.8112833573982119
1783696776637472500,3.916472412109375,5.83914688347578,-0.7085181255809962,-0.4390302996903658
1783696776647435500,3.926435546875,6.057541797119379,-0.7644555552497506,0.4515731165297329
1783696776657398300,3.936398193359375,4.914199445235729,-0.4434839911635965,1.303783819860965
1783696776667361300,3.946361328125,0.38596097280383107,-0.12392017498351633,1.8321556600414215
1783696776677324300,3.95632421875,-4.6733331720650195,-1.4093965500637888,2.5322818048521873
1783696776687287300,3.966287353515625,-6.295612886613607,-1.0616755107399076,1.7390630964547396
1783696776697250300,3.976250244140625,-5.4262827061772345,1.1409078182131052,0.6441787782698869
1783696776707214300,3.98621435546875,-6.0315276504188775,1.3590642469257115,-0.22219611429115757
1783696776717177300,3.99617724609375,-9.04457023397088,0.5391180559266359,0.07474856792157515
1783696776727140400,4.006140380859375,-12.814608996677398,1.4356279927767812,0.6546447888351976
1783696776737103000,4.01610302734375,-12.850385243457556,1.6419751796215771,0.8234316219620406
1783696776747066400,4.02606640625,-12.891270211553573,1.8607541241466998,0.9051686787977814
1783696776757029400,4.036029296875,-12.933051836228369,2.0701548533432184,0.9314192646026611
1783696776766992400,4.045992431640625,-12.971610407203435,2.2553061074241993,0.9081595311768352
1783696776776955400,4.055955322265625,-13.006237483948468,2.4161457809388636,0.8447446052342653
1783696776786918400,4.06591845703125,-13.037290793859958,2.550999657064676,0.7779390139400959
1783696776796881400,4.07588134765625,-13.066502859818934,2.665980957984924,0.7451569805398583
1783696776806844200,4.08584423828125,-13.098092760825157,2.7784774563521144,0.7584877328865229
1783696776816807200,4.09580712890625,-13.138487899577617,2.9090844886884093,0.822248549657315
1783696776826770400,4.1057705078125,-13.194928164201974,3.0738156166836617,0.941236236674711
1783696776836733400,4.1157333984375,-8.902555964696408,-3.118815911144018,-1.142059764727205
1783696776846696400,4.125696533203125,-7.411708919653296,-1.7554320474535225,-0.424409215272218
1783696776856659500,4.135659423828125,-5.35234302521944,-1.4831652583688497,-0.26747802043817936
1783696776866622200,4.145622314453125,-3.1287907771915195,-0.9862436184629797,-0.26707828053086996
1783696776876585200,4.155585205078125,-1.6654197680950165,-0.6452347170636058,-0.24463629322871563
1783696776886548200,4.16554833984375,-0.47757776474952696,-0.07266308515071869,-0.48210225643664595
1783696776896511200,4.17551123046875,0.4535410556018352,0.7196949147641658,-1.0891564420573412
1783696776906474200,4.18547412109375,1.602230029210448,1.082988420946896,-1.79091866363734
1783696776916437500,4.1954375,3.1082033317148685,1.7855346325114367,-1.8700212803162632
1783696776926400500,4.205400390625,4.333276456823945,2.3874176991045473,-1.1929685525789857
1783696776936363300,4.21536328125,5.327966124331951,2.8063854539752007,-0.4663555289894342
1783696776946326300,4.225326171875,6.114694009405374,3.3008021253228184,0.10493497707173227
1783696776956289300,4.235289306640625,6.651736355036497,3.8569776259690522,0.42676732270568607
1783696776966252300,4.245252197265625,6.980417689782381,4.398128575962781,0.5195706210222095
1783696776976216000,4.255216064453125,7.198273089721798,4.926321260184049,0.3702790542211383
1783696776986178800,4.2651787109375,7.283046883904934,5.361123713046312,0.09711801971048116
1783696776996141800,4.275141845703125,7.351922267210483,5.635293120881915,-0.2508565925156698
1783696777006104800,4.285104736328125,7.584629783844948,5.596349349981546,-0.5274605340218171
1783696777016068000,4.295068115234375,7.685951977246999,5.617412011754513,-0.41199287435673176
1783696777026031000,4.305031005859375,7.616191043278574,5.5976843979775905,-0.4683826509028673
1783696777035994000,4.314994140625,7.594020712524652,5.498162531995773,-0.6146767163883894
1783696777045958100,4.324958251953125,7.705297898229956,5.608215144342184,-0.7160584579579532
1783696777055921200,4.334921142578125,7.723947653642297,5.689207081899046,-0.8197005456749349
1783696777065884000,4.3448837890625,7.652167196545005,5.554182525381446,-0.9298947584491223
1783696777075847000,4.354846923828125,7.586967871403694,5.39171349709928,-1.1255063240069896
1783696777085810000,4.364809814453125,7.6439575866043565,5.341168720254302,-1.352968560399115
1783696777095773000,4.37477294921875,6.6389820874035355,5.346325956887006,-1.4929175677068531
1783696777105736000,4.38473583984375,5.639733149155974,4.942652217260003,-2.0698187532566488
1783696777115699000,4.394698974609375,5.651518864017724,4.236614656448364,-3.235276636967063
1783696777125662200,4.404662109375,5.550072751975059,3.294073693850636,-4.144278318056464
1783696777135625000,4.414625,5.245307130345702,2.6157798800110816,-4.431607067194581
1783696777145588000,4.424587890625,4.946342303949594,2.218329544943571,-4.292412823776901
1783696777155551000,4.434551025390625,4.305421066170931,2.0544360368162393,-3.522405479618907
1783696777165514000,4.444513916015625,3.4435458779156205,1.7693068435490131,-2.4729928727984425
1783696777175477000,4.45447705078125,2.3742875838965176,0.9655056585997343,-1.1813646240249276
1783696777185440000,4.46443994140625,1.1010030933260917,-0.37394670988321305,0.20007029853239655
1783696777195403000,4.474403076171875,-0.09271101692318916,-2.1122522659689187,0.9660276366472244
1783696777205366000,4.484365966796875,-1.6816496028840542,-4.543200479242206,0.9965839568220078
1783696777215329000,4.4943291015625,-4.621732164165377,-7.605702967011928,0.5895902789920568
1783696777225292000,4.5042919921875,-6.9713026554346085,-10.134356352233887,0.6508231847204268
1783696777235255000,4.514255126953125,-8.910356993836164,-11.829827559721469,0.7465329450681805
1783696777245218000,4.524218017578125,-9.140009214553237,-12.394857982474564,0.3321833515174687
1783696777255181000,4.53418115234375,-8.594718680536747,-11.977038228595257,-0.10354337658286095
1783696777265143800,4.544143798828125,-8.164202526691556,-10.628845504295825,-0.28076237635985013
1783696777275106800,4.55410693359375,-7.169031797668337,-8.518614515021444,-0.06877031549587845
1783696777285069800,4.56406982421875,-6.452408545434475,-6.55769730437994,0.8733727338254451
1783696777295033000,4.574033203125,-6.726032594347,-5.1076183230549095,2.488724110415578
1783696777304996000,4.58399609375,-7.510921573555469,-4.059474713256955,4.00280531605184
1783696777314959000,4.593958984375,-7.85958186649084,-3.421062243428826,4.8236622652202845
1783696777324922000,4.603922119140625,-7.09996586022675,-3.031563744148612,4.7306654170930384
1783696777334884900,4.613884765625,-5.446622314372658,-2.59841957988739,4.065967582407594
1783696777344848000,4.623847900390625,-3.755951785165071,-1.8609861793369054,3.2607252587392925
1783696777354811000,4.633810791015625,-2.299330834850669,-1.0781553017020225,2.329056987811625
1783696777364775000,4.64377490234375,-1.2058955464303494,-0.5010059866100549,1.4526470782473682
1783696777374738000,4.653738037109375,-0.4379489341944456,-0.0236281283468008,0.5892528637312352
1783696777384701000,4.663700927734375,0.4031576067984104,0.5687719473689794,-0.3864955546045676
1783696777394664000,4.673663818359375,1.2995318615049123,1.0888795248121022,-1.292177845480293
1783696777404627200,4.683627197265625,1.8301947352319954,1.5174766932934523,-1.9434306537896393
1783696777414590000,4.69358984375,2.312786528751254,2.1276298678427934,-2.4968670848608014
1783696777424553000,4.703552978515625,2.7838264161646364,2.835717931443453,-2.7277921019926668
1783696777434516000,4.713515869140625,3.128555214869976,3.2774948994934556,-2.632936766517162
1783696777444479000,4.72347900390625,3.3278596435964105,3.6136475930333134,-2.269048217050731
1783696777454442000,4.73344189453125,3.417047162568569,3.9478012217104435,-1.7049816708937287
1783696777464405000,4.743405029296875,3.6488790654122827,4.336767806071043,-1.0463673208404332
1783696777474368000,4.753367919921875,3.9473575695961713,4.730298921868205,-0.31839521079212424
1783696777484331000,4.7633310546875,4.147689587804675,4.783798456865549,0.31489377854242917
1783696777494294000,4.7732939453125,4.339705028566718,4.525894539654255,0.9379993005800992
1783696777504257000,4.783257080078125,4.477722921681404,4.165613367030025,1.4375503391414879
1783696777514220000,4.793219970703125,4.4371752227157355,3.766753749686479,1.5920697235934436
1783696777524183000,4.80318310546875,4.517845088711381,3.586708732703328,1.3640468576438725
1783696777534146000,4.81314599609375,4.839775780153274,3.5984348263323307,0.9713444477558135
1783696777544109000,4.823109130859375,5.024647194379567,3.6374750433444976,0.5537914550539106
1783696777554071800,4.83307177734375,5.239606872877478,3.7827965374708175,0.23218553858697413
1783696777564034800,4.843034912109375,5.392558131229877,3.8565982712626456,-0.05542363492771983
1783696777573998000,4.852998046875,5.411432343047857,3.898363529324531,-0.349465581436269
1783696777583961000,4.862961181640625,5.431579059019684,3.943585065320134,-0.6335429640956223
1783696777593924000,4.872924072265625,5.470783526682854,3.841587749135494,-0.9652892393700778
1783696777603887000,4.88288720703125,5.403289953124522,3.581760170385241,-1.3766576251529157
1783696777613849900,4.892849853515625,5.277427192705869,3.525408168566227,-1.6136474952816962
1783696777623812900,4.902812744140625,5.3356391431778665,3.5776731933325525,-1.5482669683545827
1783696777633775900,4.91277587890625,4.905386608704925,2.990212327584624,-0.8469645463060587
1783696777643739000,4.92273876953125,3.5619939781635996,1.9188912558168172,-0.105477267254889
1783696777653702100,4.9327021484375,2.6456629770994184,1.0564894133388996,0.1901240009922534
1783696777663665200,4.9426650390625,2.069757524588704,-0.06174772338271141,0.8582499834954738
1783696777673628200,4.952628173828125,1.6314117000311612,-1.2721890965491534,1.5929774860881267
1783696777683591000,4.9625908203125,0.9391337845027447,-2.641357388859987,2.1622556294135746
1783696777693554000,4.972553955078125,-0.3308171777307987,-4.159352553069591,2.5522163393780586
1783696777703518000,4.98251806640625,-3.2279122456789016,-5.478589816519618,2.882999030317366
1783696777713481000,4.99248095703125,-7.367317404741049,-6.0528702981770035,2.567388189546764
1783696777723444000,5.00244384765625,-10.512897404170035,-5.596887110120058,1.650416552491486
1783696777733407000,5.012406982421875,-11.913159338402748,-5.461879504737258,1.6319348471224306
1783696777743370000,5.022369873046875,-11.994964345908164,-5.702443580090999,1.9904317666783928
1783696777753333000,5.0323330078125,-11.911316925406455,-5.813609706637263,1.9455822788655757
1783696777763296000,5.0422958984375,-10.517461351084709,-4.932275784674286,0.8636187439870089
1783696777773259000,5.052259033203125,-10.077243887436389,-4.628711940050125,1.1034748172018676
1783696777783222000,5.062221923828125,-9.470955571621657,-4.725003738069534,1.7802574227608738
1783696777793185000,5.07218505859375,-8.217658222547174,-4.846313072967529,1.8248191796734927
1783696777803148000,5.08214794921875,-6.313317470130324,-4.840924950188398,1.3123051260992884
1783696777813111000,5.092111083984375,-4.278177085414528,-4.552914064005017,0.6869244987364858
1783696777823074000,5.102073974609375,-2.64564193431139,-3.838042623874545,0.25602935551106926
1783696777833036800,5.112036865234375,-1.447488964831829,-3.127346131341159,0.09479030741527676
1783696777842999800,5.121999755859375,-0.312543269893527,-2.4758079302191733,-0.13319836400374768
1783696777852963000,5.131963134765625,0.7153975098311901,-1.8313056190833448,-0.571044276215136
1783696777862926000,5.141926025390625,1.6998177122592926,-1.242686815471947,-0.9332759983852505
1783696777872889000,5.15188916015625,2.629996036890149,-0.7848977470368147,-1.141297694313526
1783696777882852000,5.16185205078125,3.3447710309088228,-0.33203532134890557,-1.286969901573658
1783696777892814800,5.17181494140625,3.8395354927808043,-0.031363983295857906,-1.2428601262122392
1783696777902777900,5.18177783203125,3.9800037016570564,0.3064505059763789,-1.2675447778746485
1783696777912740900,5.191740966796875,3.9698686766117808,0.7046475677579641,-1.4775411348767578
1783696777922704000,5.201703857421875,3.8825206480264662,1.1528598295524715,-1.5845478036560117
1783696777932667100,5.211667236328125,3.8011756592482326,1.6548650563329457,-1.4723269073598086
1783696777942630100,5.221630126953125,3.9000171417504546,1.9760700638487934,-1.1923641569450496
1783696777952593200,5.23159326171875,4.114562394228577,2.0665134281009436,-0.7555559172183275
1783696777962556000,5.241555908203125,4.4167625492841,1.9727929418742656,-0.1816901173090562
1783696777972518700,5.2515185546875,4.812891864880919,1.864849284505844,0.1516850378088653
1783696777982481400,5.2614814453125,5.065893397003412,1.8396993534192443,0.2925271214988083
1783696777992444400,5.2714443359375,5.106583719310164,1.7373118688732385,0.3600850655302405
1783696778002407400,5.281407470703125,5.100087927550077,1.600413919699192,0.49605804534647613
1783696778012370700,5.29137060546875,5.1695361423075195,1.4621259774714708,0.5143340355429799
1783696778022334500,5.30133447265625,5.352310876515507,1.3420277719289064,0.4201767653342336
1783696778032297700,5.311297607421875,5.591832749339938,1.1750196389123797,0.2813514648267999
1783696778042260700,5.3212607421875,5.736824573120474,1.0331287037566304,0.15023542352244257
1783696778052846600,5.3318466796875,5.4691538796544075,1.0976114050611854,0.005221753236278891
1783696778062809300,5.341809326171875,4.71370960611701,1.471709798374772,-0.14618117969557642
1783696778072772600,5.351772705078125,3.9040339761763807,1.8079454940229653,-0.3605830051150173
1783696778082735600,5.361735595703125,3.3320167632758615,2.0350448153868315,-0.6131503105387092
1783696778092698600,5.37169873046875,2.5060715510576963,2.0107237363398074,-0.6820832692503929
1783696778102661600,5.38166162109375,1.2229893045723437,1.7587652835294603,-0.47200193737857044
1783696778112624600,5.391624755859375,0.18088965111374855,1.5137717012956737,-0.3043209100691601
1783696778122587600,5.401587646484375,-0.6574392418593168,1.22819973269701,-0.217699149931781
1783696778132550400,5.41155029296875,-1.4788982485741375,0.5239858801811933,-0.06945438876990229
1783696778142513400,5.421513427734375,-2.3510610220879316,-0.4423176507979631,-0.10508059608750045
1783696778152476700,5.4314765625,-3.7879590348005294,-1.1702969943046568,-0.5818433911923319
1783696778162439700,5.441439697265625,-5.847970241400599,-1.3846727354347705,-1.39761215037629
1783696778172402700,5.451402587890625,-8.528162095567584,-1.1269716473191975,-1.922624450995773
1783696778182365700,5.46136572265625,-11.683252850663662,-0.8302537230670451,-1.5092650375261902
1783696778192328400,5.471328369140625,-13.979613729792833,-1.0360717714712022,-0.48425033784862603
1783696778202291500,5.48129150390625,-14.213243621969221,-1.8611928078249096,0.5264917255222797
1783696778212254500,5.49125439453125,-12.550043868011235,-2.7380539682880043,1.3381257960543036
1783696778222217500,5.501217529296875,-10.489527049976587,-3.6016648942947387,2.1693235219731926
1783696778232180500,5.511180419921875,-8.462437285247445,-4.477836318928003,2.829351903542876
1783696778242143700,5.521143798828125,-6.532042638641595,-5.178247856551408,2.7433479830428955
1783696778252106800,5.531106689453125,-5.653292303431034,-5.6685150070041415,2.637028419744968
1783696778262069500,5.541069580078125,-5.755207786551118,-5.437115065836906,2.5854835259467364
1783696778272032500,5.551032470703125,-6.139758892557024,-4.77937596424818,2.542759944246709
1783696778281995500,5.56099560546875,-6.24898265286386,-4.037036671477556,2.469273267753422
1783696778291958500,5.57095849609375,-5.718538974845409,-3.4080887800872324,2.369840833620727
1783696778301922600,5.580922607421875,-4.302405517742038,-2.92612008690238,2.185539620497823
1783696778311885600,5.590885498046875,-2.377373859474063,-2.4184774387568235,1.8367016329079866
1783696778321848600,5.6008486328125,-0.02978606645464897,-1.9591969627201555,1.225444881030917
1783696778331811600,5.6108115234375,2.434677462929487,-1.6187036096274852,0.47442193106710906
1783696778341774300,5.6207744140625,4.540231692564487,-1.4288082297593354,-0.13981390968598426
1783696778351737600,5.630737548828125,5.973099426847696,-1.0975380475640297,-0.6458158048871904
1783696778362322700,5.64132275390625,6.565251080760359,-0.04819032267332077,-1.023023927719146
1783696778372285700,5.65128564453125,6.453093020567297,1.3458581438720225,-1.2355838515989481
1783696778382248700,5.661248779296875,5.9040030942678445,2.5450422099649903,-1.2937196680948138
1783696778392211700,5.671211669921875,5.020905669763684,3.287349061770737,-1.2061188337922095
1783696778402174500,5.681174560546875,4.17071332051754,3.6201398776620626,-1.1237979857191442
1783696778412137500,5.691137451171875,3.6848785995543003,3.7254791977509853,-1.0889207336053253
1783696778422100500,5.7011005859375,3.6201024682611225,3.7665126344069835,-1.3562401294156907
1783696778432063500,5.7110634765625,3.991256917077303,3.860879017321765,-1.8156053611263632
1783696778442026500,5.721026611328125,4.5113662480860945,3.8452082777202126,-2.382940553690493
1783696778451989800,5.73098974609375,5.326189177787303,3.691353933048248,-2.9468714907690883
1783696778461953500,5.74095361328125,6.191350548106431,3.48946357948184,-3.1281770292073485
1783696778471916800,5.750916748046875,6.901452289617061,3.149394004759192,-2.9994395901352164
1783696778481879600,5.760879638671875,7.325026076978444,2.834666961085796,-2.6751769486144186
1783696778491842600,5.770842529296875,7.554906261232495,2.757670815166831,-2.128090324961394
1783696778501805600,5.7808056640625,7.5144567619442935,3.0116195650115607,-1.6264314274005591
1783696778511768600,5.7907685546875,7.325210201373696,3.291228533552587,-1.390668614848703
1783696778521731600,5.800731689453125,7.278544311788678,3.3305975441277025,-1.3884674515426159
1783696778531694600,5.810694580078125,7.208948212993144,3.1888919024109836,-1.4447516488224268
1783696778541657600,5.82065771484375,6.923932416972518,3.053353551152348,-1.7119848276540637
1783696778551620600,5.83062060546875,6.722075381153822,2.9956419514179227,-2.1188215613566337
1783696778561583600,5.84058349609375,6.550019024837017,2.994882365222275,-2.474946929475665
1783696778571546600,5.850546630859375,6.3230848309069865,3.0824595263883467,-2.653446470582485
1783696778581509600,5.860509521484375,5.830001453989744,3.2057416226640343,-2.6950001317203043
1783696778591472600,5.87047265625,4.984198864135146,3.4478546810254453,-2.492832130256295
1783696778601435600,5.880435546875,3.97826299546957,3.606927637128532,-2.023978208579868
1783696778611398400,5.8903984375,2.6570214064598083,3.4569051257044077,-1.4174480468332766
1783696778621361400,5.900361328125,1.4098627062708138,3.0907109296441075,-0.7241087856836617
1783696778631324400,5.910324462890625,0.3598778525203466,2.6430682844310995,0.10584887704625726
1783696778641287700,5.92028759765625,-0.7134341008037328,2.005565330663323,1.0093823558576405
1783696778651250700,5.930250732421875,-1.7674100700169801,1.2227654326885937,1.7428754943497478
1783696778661213700,5.940213623046875,-2.754026321184635,0.3774947577536106,2.086834769987315
1783696778671176700,5.9501767578125,-3.8492666132003066,-0.7360580205440521,2.144517728149146
1783696778681139500,5.960139404296875,-5.468539547148347,-2.0359592998832463,2.329339165753871
1783696778691103500,5.970103515625,-7.5768240785300724,-3.0353672280848025,2.6270985618829727
1783696778701066500,5.98006640625,-9.404389634302257,-3.662048928108811,3.1087738250792025
1783696778711029500,5.990029541015625,-10.253592972511052,-4.3985944399088615,4.000888084253669
1783696778720992500,5.999992431640625,-10.170360562551021,-5.337194555926323,4.553116308578849
1783696778730955500,6.00995556640625,-9.840452900880575,-6.406836880826949,4.819286826615035
1783696778740918500,6.01991845703125,-9.770252406451105,-7.065418862980604,5.207582672107219
1783696778750881800,6.0298818359375,-10.123135870039462,-6.991231344741583,5.755526935502886
1783696778760844500,6.039844482421875,-10.786304010939597,-6.325104938557744,6.259242181071639
1783696778770807600,6.0498076171875,-11.09225445843935,-5.372497339975833,6.0917415883630515
1783696778780770600,6.0597705078125,-11.01134727655649,-5.53033929297924,6.082244861221313
1783696778790733600,6.069733642578125,-9.586884382525087,-3.7591166789367794,3.5617338659226894
1783696778800696600,6.079696533203125,-8.067960997554659,-3.1879560828655955,2.3904171731814743
1783696778810659600,6.08965966796875,-6.162403270563483,-2.6649296953663226,1.5996692388117313
1783696778820622600,6.09962255859375,-3.9605461369931696,-2.3764497303664682,0.9043950640767813
1783696778830585600,6.109585693359375,-1.576124112573266,-2.2573633322149513,0.08275134844481945
1783696778840548600,6.119548583984375,0.8107757001370192,-2.015189191316068,-0.9740028533101082
1783696778850511600,6.12951171875,2.7502263443797825,-1.5470993858799338,-2.076538855291903
1783696778860474600,6.139474609375,3.7376989201158284,-0.8668307648360729,-2.7978850443944334
1783696778870437600,6.149437744140625,3.890484174251556,-0.09836889655441045,-2.861793452942371
1783696778880400600,6.159400634765625,3.8198090480476616,0.46653585399240255,-2.5303625272274015
1783696778890363400,6.16936328125,3.9027152947932477,0.82699968970716,-2.186744027851522
1783696778900326400,6.179326416015625,3.8591853651463985,0.8643249194949865,-2.1481366492986678
1783696778910289400,6.189289306640625,3.8389720136791468,0.8509998662367463,-2.2586169855378566
1783696778920252700,6.199252685546875,4.124094192683697,0.7255959555014968,-2.1675753631316126
1783696778930216400,6.209216552734375,4.8790971521943804,0.7392471719741821,-2.150727396444231
1783696778940179700,6.2191796875,5.857563414654136,1.0841077803656458,-2.5071675296008586
1783696778950142700,6.229142822265625,6.78401599676013,1.2839224967017768,-2.757068757620454
1783696778960105700,6.239105712890625,7.440662042415141,1.3953802996709943,-2.8645822068780658
1783696778970068500,6.249068359375,7.758528553158045,1.4090046281367539,-2.7542729894220828
1783696778980031500,6.259031494140625,7.657446013730764,1.3498770241245626,-2.433279432699829
1783696778989994500,6.268994384765625,7.307243752050399,1.3211045186266301,-1.904603787267208
1783696778999957500,6.27895751953125,6.849900966078042,1.3995932411909102,-1.3369266493976115
1783696779009920500,6.28892041015625,6.589257979291677,1.6151985241159796,-0.9776304692227393
1783696779019883500,6.298883544921875,6.5513920667558905,1.957471161840856,-0.843943956375867
1783696779029846800,6.3088466796875,6.674549075347184,2.40769505571872,-0.895350172355771
1783696779039809500,6.3188095703125,6.606677316126227,2.66760212944597,-1.0103091153137385
1783696779049772500,6.3287724609375,6.363408657988906,2.7406816864430903,-1.0263078447606413
1783696779059735600,6.338735595703125,6.08918722770512,2.783118560156226,-0.9478022441267967
1783696779069698600,6.348698486328125,5.63153406060934,2.6753534742251035,-0.7913331138465554
1783696779079661600,6.35866162109375,4.949351422637701,2.5610870435759425,-0.5443668798329309
1783696779089624600,6.36862451171875,3.962147142449021,2.3214926900371906,-0.07729571338742972
1783696779099587600,6.378587646484375,2.861799298161268,1.9245655020609498,0.39430882217139
1783696779109550600,6.388550537109375,1.7207319054722785,1.2630273004502057,1.0252742639292032
1783696779119513600,6.398513671875,0.3878448868542909,0.4358335494756698,1.8303164619155228
1783696779129476600,6.4084765625,-0.8079086202681064,-0.5541992321372032,2.640610077624023
1783696779139439600,6.418439697265625,-2.171246891251206,-1.9135966565400362,3.236469646143913
1783696779149402600,6.428402587890625,-3.8801848985552785,-3.272716433045268,3.2603128785461184
1783696779159365600,6.43836572265625,-6.328926542672515,-4.104656501764059,2.4491810584478078
1783696779169328600,6.44832861328125,-9.226886703017353,-4.187359334892034,1.33859385195747
1783696779179292700,6.458292724609375,-11.721146235728263,-4.366867176258563,0.7467310979887842
1783696779189255400,6.46825537109375,-13.187335224854946,-4.683755197358131,0.7506310280367732
1783696779199218400,6.478218505859375,-13.261180213266611,-4.58588109858334,0.7726023290872573
1783696779209181400,6.488181396484375,-13.333056531953812,-4.49205247580707,0.7653357721503824
1783696779219144700,6.498144775390625,-13.39566817868948,-4.411493084448575,0.7359940153971314
1783696779229107700,6.508107666015625,-9.958352135074138,-5.793620227053761,1.5042022011786698
1783696779239070700,6.51807080078125,-7.913076725313067,-6.2327569097280495,1.5477591649629174
1783696779249033700,6.52803369140625,-6.110797001966834,-6.52718643078208,1.6492318727515638
1783696779258996500,6.53799658203125,-4.484616188326478,-6.554498216077685,1.781478781249374
1783696779268959500,6.54795947265625,-3.1232319740206003,-6.216631119835377,1.9256062432855368
1783696779278922500,6.557922607421875,-1.888473321199417,-5.514227531611919,2.0006015707761047
1783696779288885500,6.567885498046875,-0.8064782952040433,-4.723475797849893,1.8984395655490456
1783696779298848500,6.5778486328125,0.16012451098263264,-3.8663188702881333,1.471100872696191
1783696779308811800,6.587811767578125,1.261120590046048,-2.7841373818099497,0.7293178255688398
1783696779318774500,6.5977744140625,2.3230150772988796,-1.6230086133450268,-0.019186803164798764
1783696779328737500,6.607737548828125,3.282956672030687,-0.46483284946680065,-0.5157417103838176
1783696779338700500,6.617700439453125,3.839757026576996,0.7096241871267557,-0.7057305406890809
1783696779348663600,6.62766357421875,4.127679065433144,1.8964099594175814,-0.7107876048829406
1783696779358626600,6.63762646484375,4.320907973638176,2.863239852358401,-0.5240559497427195
1783696779368589600,6.647589599609375,4.227086365124583,3.534473518553376,-0.2668599250724539
1783696779378552600,6.657552490234375,3.8865783989846703,4.012752709570527,-0.14679558526687322
1783696779388515600,6.667515625,3.4948750831365585,4.236384062562883,-0.21943521647676825
1783696779398478600,6.677478515625,3.3459839138299223,4.183199292603135,-0.42779597163368016
1783696779408441600,6.687441650390625,3.5800644723832606,3.940907078282535,-0.7010144719526171
1783696779418404600,6.697404541015625,4.063023345649242,3.6439740499749775,-1.065644925827533
1783696779428367600,6.70736767578125,4.488688552331924,3.2958731444880365,-1.0985111303798853
1783696779438330600,6.71733056640625,4.8831695161998265,2.927708817398548,-0.7170745761979371
1783696779448294700,6.727294677734375,5.3600481927692885,2.5799942808806895,-0.11817679075961932
1783696779458257700,6.737257568359375,5.841141272163391,2.256347725431621,0.4977029995419085
1783696779468220400,6.747220458984375,6.198656487205624,1.9555629901319742,0.9543659134913235
1783696779478183400,6.757183349609375,6.4784349670946595,1.6852710082516074,1.1680497268345207
1783696779488146400,6.767146484375,6.8062184762179845,1.4228496136158704,1.2979185810893774
1783696779498109700,6.777109619140625,7.205929741954803,1.2692454443126917,1.3271268476560711
1783696779508072700,6.78707275390625,7.559272055226564,1.1503370330765843,1.2125375417280941
1783696779518035700,6.79703564453125,7.788919599768519,1.0278992786705494,0.833005798254162
1783696779527998700,6.806998779296875,7.811897155252098,0.9592404607251286,0.3080050784746185
1783696779537961500,6.81696142578125,7.666334838107228,1.0139818124771118,-0.2015261598965153
1783696779547924500,6.826924560546875,7.275869539621472,1.1939084637776016,-0.5354927415689453
1783696779557887500,6.836887451171875,6.548202915325761,1.4589733586594462,-0.5978109948486089
1783696779567850500,6.8468505859375,5.341288547241687,1.8198595114395022,-0.44180696132946756
1783696779577813500,6.8568134765625,3.775376032081246,2.171717139111459,-0.3494963784333318
1783696779587776800,6.86677685546875,1.7654659502118826,2.3491323921129106,-0.33772151375915854
1783696779597739500,6.876739501953125,-1.0304477941095829,2.313509582328796,-0.21066099492330104
1783696779607702500,6.88670263671875,-3.442741575795412,1.9967998404055833,-0.15004359074477105
1783696779617665500,6.89666552734375,-4.684616782623529,1.3287354518964887,-0.4060084661848843
1783696779627628500,6.906628662109375,-5.210004930818081,-0.2119265944123268,-0.32132779364529995
1783696779637591600,6.916591552734375,-5.671432940277457,-2.1002134531289336,0.02167966116014868
1783696779647554600,6.926554443359375,-6.629076194939017,-3.1874583624765274,0.16078105692891403
1783696779657517600,6.936517578125,-8.872230384537577,-3.5433448072731495,0.1007346758376807
1783696779667480600,6.94648046875,-11.927080311727524,-3.871394566117227,0.17337079991623758
1783696779677443600,6.956443603515625,-14.286404719769953,-4.348804280823469,0.40578181782215833
1783696779687406600,6.966406494140625,-14.322952535444497,-4.2913279511496425,0.2646742150638252
1783696779697369600,6.97636962890625,-14.366371990454196,-4.2249195424795145,0.1246207244683057
1783696779707332600,6.98633251953125,-14.408816462951897,-4.16020274015814,0.01226582652889192
1783696779717295600,6.996295654296875,-14.442191493809222,-4.10570951794833,-0.04888897246196866
1783696779727259600,7.006259765625,-9.483470769801736,-5.824010104620457,0.43323527661077676
1783696779737222700,7.01622265625,-10.080865585064888,-5.4975628125369544,0.2789851375542581
1783696779747185400,7.026185302734375,-10.725451775091885,-4.708128591114282,0.2673546132542193
1783696779757148400,7.0361484375,-10.726769287431239,-4.700256834825873,0.29207287492528555
1783696779767111400,7.046111328125,-8.989088585245609,-2.9817841064572335,0.4971040838006884
1783696779777074700,7.05607470703125,-6.921867885658145,-2.3210303332224487,0.7729559648305178
1783696779787037700,7.06603759765625,-4.274639558938145,-1.8305980553358792,0.6613881256155669
1783696779797000700,7.076000732421875,-1.424215641272068,-1.5412869002088903,0.29803719015717506
1783696779806963700,7.085963623046875,1.1635223856031893,-1.3392951320946216,-0.013180530221015214
1783696779816926500,7.095926513671875,3.1258056239008902,-1.2453367454588413,-0.10525821767672895
1783696779826889500,7.105889404296875,4.362415457546711,-1.2461346178382635,0.0028559739530086515
1783696779836852500,7.1158525390625,4.838762219196558,-0.7849956544533372,0.1186819090038538
1783696779846815500,7.1258154296875,4.892503746256232,0.38747809936851263,-0.3183417270392179
1783696779856778500,7.135778564453125,5.180349212744832,1.3871741968616842,-0.8132059960238635
1783696779866741800,7.14574169921875,5.571957251524925,1.9135241758257149,-1.110337031121552
1783696779876704500,7.15570458984375,5.823666405749321,2.1782158534809946,-1.482038300165534
1783696779886667500,7.16566748046875,5.953179505369067,2.1322847079113125,-1.5635127605423331
1783696779896630500,7.175630615234375,6.340630424469709,1.902828302027285,-1.3312993110351263
1783696779906593500,7.185593505859375,6.9071005246371024,2.3133842023834585,-1.6170891601681707
1783696779916556500,7.195556640625,7.340137136870622,2.6770827822357415,-2.1769848503813147
1783696779926519600,7.20551953125,7.505449279624223,2.747271293966472,-2.593242469510436
1783696779936482600,7.215482666015625,7.398055657353996,2.607951670603454,-2.8068963261067865
1783696779946445600,7.225445556640625,7.073021739199757,2.2961285316780207,-2.8574790968745947
1783696779956408600,7.23540869140625,6.730822166711092,1.8635162823364138,-2.7435686400562522
1783696779966371600,7.24537158203125,6.511903521454334,1.2403411291286348,-2.3574383020348844
1783696779976334300,7.255334228515625,6.471008031964302,0.7343865802004933,-1.9410354292161762
1783696779986298600,7.265298583984375,6.564823210737109,0.39929070223718877,-1.501685103791207
1783696779996261400,7.275261474609375,6.64794339249432,0.47963411275744433,-1.1756275416776538
1783696780006224400,7.285224365234375,6.68131024004519,0.883595144893229,-0.9750628837570547
1783696780016187400,7.2951875,6.557165389460325,1.094374322836101,-0.9387553065791726
1783696780026150400,7.305150390625,6.250051743400096,1.2523597759634255,-0.9546949262499809
1783696780036113400,7.315113525390625,5.869543190783262,1.4679735344558953,-0.8497913672298193
1783696780046076400,7.325076416015625,5.238249028527736,1.7113170113950966,-0.5508402770981192
1783696780056039400,7.335039306640625,4.3323125802278515,1.9087536004230379,-0.1852970922924578
1783696780066002400,7.34500244140625,3.1164725628882644,1.9158786299973725,0.23445611386746168
1783696780075965400,7.35496533203125,1.4700252062886952,1.6240376641318202,0.5136750601775943
1783696780085928400,7.364928466796875,-0.4010954135715961,1.0832701604977248,0.4836215749584138
1783696780095891500,7.374891357421875,-2.3685347194582222,0.2835673507779837,0.41849736087992784
1783696780105854500,7.3848544921875,-4.378867995175719,-0.617270313078165,0.6559947421394288
1783696780115817500,7.3948173828125,-6.152185827931762,-1.2761962863638996,1.2082812725231051
1783696780125780200,7.4047802734375,-7.793834844338893,-1.895457480998337,1.7486971862405538
1783696780135743500,7.414743408203125,-9.712621470737457,-2.5994986072957516,1.6959548993512987
1783696780145706500,7.42470654296875,-11.903954287683963,-3.3927731375336645,1.3270106739304959
1783696780155669500,7.43466943359375,-13.548992946529388,-4.068594423779845,0.9139012896992266
1783696780165632500,7.444632568359375,-13.62086458904147,-3.9689781575128436,0.8346599952019751
1783696780175595500,7.454595458984375,-13.700804971718787,-3.874104117336869,0.7145585747890174
1783696780185558500,7.46455859375,-13.782385522818565,-3.7883968416959046,0.5781457787834108
1783696780195521300,7.474521240234375,-10.224003305411339,-5.768714918377995,4.228035044151544
1783696780205484300,7.484484375,-8.779355116963385,-6.1738762662142515,4.585032372799516
1783696780215447600,7.494447509765625,-7.81045806235969,-6.336118500003218,4.712802428144216
1783696780225410600,7.50441064453125,-7.117752276808023,-6.067944533190131,4.553502093026042
1783696780235373600,7.51437353515625,-6.571449935400485,-5.263191162082553,4.073464075642824
1783696780245336600,7.524336669921875,-5.598578131946921,-4.127092205455899,3.1345036018803714
1783696780255300600,7.534300537109375,-4.110968169128895,-3.199682176494598,1.8411713256679474
1783696780265263600,7.544263671875,-2.3020541223347184,-2.6861335191756486,0.5919188680700957
1783696780275226400,7.554226318359375,-0.48063949040770526,-2.3901982697337862,-0.5502032943688333
1783696780285189400,7.564189453125,1.085163134637475,-2.1240549319654702,-1.6912755093634129
1783696780295152400,7.57415234375,2.4193875393390654,-1.5351140567928552,-2.5590397556573152
1783696780305115400,7.584115478515625,3.420872273814678,-0.5517401485472917,-2.8965549697220325
1783696780315078400,7.594078369140625,3.9900557245939967,0.5095172098457813,-2.6750334484905003
1783696780325041400,7.60404150390625,4.131571981218457,1.3361001354455948,-2.1656419108510017
1783696780335004400,7.61400439453125,3.899742416462302,1.8509855943262576,-1.7301245877176523
1783696780344967400,7.623967529296875,3.6107314133256674,2.246858889335394,-1.5979311629727482
1783696780354930400,7.633930419921875,3.4919501356005664,2.645692203193903,-1.9047849890530109
1783696780364893400,7.6438935546875,3.519126311817765,2.768220266231894,-2.2160183453917504
1783696780374856400,7.6538564453125,3.676078037983179,2.987963671875,-2.427761984452605
1783696780384819500,7.6638193359375,4.0338013428181405,3.613546470746398,-2.6081919091001153
1783696780394782500,7.673782470703125,4.336738579976559,4.279309888836742,-2.507067576357722
1783696780404745200,7.6837451171875,4.425635007047653,4.751826278543472,-2.160089537420869
1783696780414708500,7.69370849609375,4.43345532540977,5.148295201358199,-1.5566514964707194
1783696780424671500,7.70367138671875,4.4784851382255555,5.404083733850717,-0.809540166992694
1783696780434634500,7.713634521484375,4.570713340067863,5.54764757065475,-0.15456183535419404
1783696780444597500,7.723597412109375,4.688573995816707,5.668793823945522,0.10504092166423797
1783696780454560500,7.733560546875,4.990087337651849,5.817971993499994,0.0794262226101011
1783696780464523500,7.7435234375,5.441983548656106,5.8868742648124694,-0.17320464956909418
1783696780474486300,7.753486328125,5.872428975352644,5.768475848925114,-0.4877734339408576
1783696780484449300,7.76344921875,6.241334183937311,5.640974089127779,-0.7011136945433915
1783696780494412500,7.77341259765625,6.471978922823071,5.7131905995547765,-0.7902553285472095
1783696780504375600,7.78337548828125,6.545523466983437,5.595758982872963,-1.0179454554110765
1783696780514338600,7.793338623046875,6.365347517096996,5.279347931635379,-1.1265789947398006
1783696780524301600,7.803301513671875,6.149463124969602,5.168610844156146,-0.9930655734375119
1783696780534264600,7.8132646484375,6.025009646826982,5.157089917710423,-0.7100432893216609
1783696780544227300,7.823227294921875,5.727745194607973,5.006063489940762,-0.2555487323872745
1783696780554190300,7.8331904296875,4.966910460203886,4.384607415610551,0.3632138650752604
1783696780564153300,7.8431533203125,3.4744752691864966,3.1836592624545097,1.2911188379466534
1783696780574117400,7.853117431640625,2.132638051393628,1.7579934223741291,2.4360386682800947
1783696780584080400,7.863080322265625,1.4502946699023247,0.3811041804224252,3.2743957644343373
1783696780594043400,7.87304345703125,-0.15734335583150386,-1.3480606223523617,3.9877135453820225
1783696780604006700,7.883006591796875,-2.2285522482722997,-2.90043853315711,3.574334112037718
1783696780613969700,7.8929697265625,-4.095470155745744,-4.105503473982215,1.5720660693541169
1783696780623932400,7.902932373046875,-5.488961572930217,-4.850610477900505,-0.77484002501145
1783696780633895400,7.9128955078125,-6.78431410292387,-5.589983322080969,-2.2245510498069225
1783696780643858400,7.9228583984375,-8.019128285324573,-5.811839189833402,-2.415409429488331
1783696780653821400,7.932821533203125,-8.771838165462016,-5.637924638429284,-1.3177879414245486
1783696780663784400,7.942784423828125,-9.115264649397135,-5.981286824956536,0.5228145348468796
1783696780673747500,7.95274755859375,-8.750914619898795,-6.403080158641934,1.8463535506114364
1783696780683710500,7.96271044921875,-7.451901813831925,-6.658907269579172,2.2469527050986886
1783696780693673500,7.972673583984375,-6.011300270426273,-6.947356547179818,2.1223259162157775
1783696780703636500,7.982636474609375,-5.145307125458121,-7.210862522181868,2.003164991523325
1783696780713599500,7.992599609375,-4.5283448554158205,-7.09134942305088,2.089076557564735
1783696780723562500,8.0025625,-3.6657162184447047,-6.4298717194557184,2.0758605176389215
1783696780733525500,8.012525390625,-2.377037759387493,-5.333739447036385,1.772937893527746
1783696780743488500,8.022488525390624,-0.679289254617691,-3.9692058287888763,1.1469366500485687
1783696780753451300,8.032451171875,0.9641361238121986,-2.5738708295643327,0.5267793102920055
1783696780763414300,8.042414306640625,2.025200589981675,-1.354015146842599,0.3477238158028573
1783696780773377500,8.05237744140625,2.2015333084434268,-0.46224984723627566,0.7782932342052459
1783696780783340500,8.062340576171875,1.4673913506537675,0.38203123213946816,1.2741603966221213
1783696780793303600,8.072303466796875,0.7216963177144528,1.2393787138372658,1.230047698651254
1783696780803266600,8.0822666015625,0.44837271305322646,1.9750801760286092,0.7225602410674095
1783696780813229600,8.0922294921875,0.6633814913898706,2.436975218477845,-0.05836940605603158
1783696780823192300,8.1021923828125,1.2743033122241496,2.461459671393037,-1.0359618813559412
1783696780833155300,8.1121552734375,1.9124527472019195,2.222430550521612,-1.9517956004224717
1783696780843118300,8.122118408203125,2.243297981983423,1.9905185681790112,-2.47614987552464
1783696780853081300,8.132081298828124,2.377317745372653,2.068317262652516,-2.414724369833618
1783696780863044600,8.142044677734376,2.4015379943937063,2.488815295830369,-1.9920617059677839
1783696780873007600,8.152007568359375,2.4052765964001415,2.915412814927101,-1.562225204949826
1783696780882970400,8.161970458984374,2.481877605521679,3.1528526207804677,-1.0015735087376088
1783696780892933400,8.171933349609375,2.633032628107071,3.2579075709700582,-0.5817463240260258
1783696780902896400,8.181896484375,2.5400603298991915,3.1788252664268013,-0.4056022600041702
1783696780912859400,8.191859375,2.1308821476370094,3.1189865915358066,-0.5295552412787452
1783696780922822400,8.201822509765625,1.7595201935499905,3.2892221621662374,-0.9114396488260478
1783696780932785400,8.211785400390625,1.830630204039812,3.441045877793431,-1.0934855573028326
1783696780942748700,8.221748779296876,2.272232400044799,3.4672394727140663,-1.0421819249145685
1783696780952711400,8.23171142578125,3.0080893450587984,3.543919976812601,-0.926211686022207
1783696780962674400,8.24167431640625,3.7432752589434384,3.638715983316302,-0.7623289915498346
1783696780972638000,8.251637939453126,4.331597125434875,3.5835710191994905,-0.5760040905795991
1783696780982601000,8.26160107421875,4.638206329104304,3.549586916533112,-0.3660406859990209
1783696780992564000,8.27156396484375,4.758970305079221,3.585952945899963,-0.24133403681293128
1783696781002527000,8.28152685546875,4.744552488148212,3.443033836740255,-0.11819061835557222
1783696781012491000,8.291490966796875,4.558451239866018,3.220671188509464,-0.12989547740030102
1783696781022454000,8.3014541015625,4.021147028428316,2.950567714938521,-0.2403464870803058
1783696781032417000,8.3114169921875,3.1741181116491552,2.380053307816386,-0.4515135683622211
1783696781042380000,8.321380126953125,2.083162949606776,1.647255165851116,-0.6267822377890349
1783696781052342800,8.3313427734375,0.9649901102930307,0.933586671769619,-0.6059897712595761
1783696781062306000,8.34130615234375,0.0845657043904066,0.15315525649189948,-0.5482627912929281
1783696781072269000,8.35126904296875,-0.5472936905324459,-0.6740291421324014,-0.43214349931869656
1783696781082232000,8.361232177734376,-1.2696429191976786,-1.7019184839308261,-0.5745531976515427
1783696781092195000,8.371195068359375,-2.484510876634717,-2.8297891259163617,-0.9627691463079303
1783696781102158000,8.381157958984375,-4.176535158538818,-3.56460386840105,-1.465002994212508
1783696781112121000,8.39112109375,-5.81967645933032,-3.9713761585652825,-1.9021791904687881
1783696781122083800,8.401083740234375,-7.3798098065674305,-4.678099948075413,-1.685842378398776
1783696781132046800,8.411046875,-8.272390514209865,-5.606849116685987,-0.7199890754051506
1783696781142009900,8.421009765625,-8.064692351147531,-6.413225705081224,0.6526679358042776
1783696781151973000,8.43097314453125,-7.045671375459432,-6.673594551101327,1.9143512742996214
1783696781161936100,8.44093603515625,-5.36465188717246,-6.596757979658245,2.5138877777665853
1783696781171899100,8.450899169921875,-3.492276298815012,-6.441065313643216,2.5038202649995682
1783696781181862000,8.46086181640625,-2.214562885886431,-6.713843559381365,2.359889056187868
1783696781191825000,8.470824951171876,-2.000101220038533,-7.134927283492684,2.6492379129767416
1783696781201788000,8.480787841796875,-2.62799872559309,-7.057986082631349,2.914918309408426
1783696781211751000,8.4907509765625,-3.33961028714478,-6.119044021308421,2.2409230695456266
1783696781221714000,8.5007138671875,-3.4594559792309996,-4.6846921859472985,0.7323699066158383
1783696781231677000,8.510677001953125,-2.8737311434954402,-3.654372986653447,-0.28271738288514314
1783696781241640200,8.52064013671875,-1.800683978587389,-2.739886152151227,-0.7634418481625617
1783696781251603000,8.53060302734375,-0.5478302816271782,-1.6512340063542126,-1.1148906027726828
1783696781261566000,8.54056591796875,0.547041761597991,-0.5192079982548952,-1.2762513775520026
1783696781271529000,8.550529052734374,1.4712474415600298,0.586182516375184,-1.1597653711572289
1783696781281492000,8.560491943359375,2.2741326807081697,1.5341951883822678,-0.932576106487587
1783696781291455000,8.570455078125,2.916897500526905,2.208911143735051,-0.6908779125373811
1783696781301418000,8.58041796875,3.2987434392273425,2.6151111869692802,-0.4513534824296832
1783696781311381000,8.590381103515625,3.3990029718339443,2.774297540318966,-0.329306919298321
1783696781321344000,8.600343994140625,3.496619880977273,2.732097397971153,-0.530469798840396
1783696781331307000,8.61030712890625,3.670805650538206,2.668911166217923,-0.8670688113756477
1783696781341270000,8.62027001953125,3.9245577087670562,2.729760479456186,-1.1654556917533279
1783696781351233000,8.63023291015625,4.129494590422511,2.8299229814291,-1.4227426461100579
1783696781361196000,8.640196044921876,4.235263241839409,2.966643235948682,-1.5124579883486031
1783696781371159000,8.650158935546875,4.363276458290219,3.0921470999270677,-1.3571484764322637
1783696781381121800,8.660121826171874,4.496687149870396,3.1257395729273556,-1.0260440792579204
1783696781391084800,8.670084716796875,4.635162723624706,3.154985541155934,-0.6995564551640302
1783696781401048000,8.680048095703125,4.657110936060548,3.1989243438646193,-0.45862873412966726
1783696781411011000,8.690010986328126,4.632240698698163,3.2160850297629833,-0.32546471078693867
1783696781420974000,8.69997412109375,4.733704346397519,3.1855060593649744,-0.37165092709623276
1783696781430937000,8.70993701171875,4.841607671755552,3.1858596951082347,-0.6190525203198194
1783696781440900000,8.719900146484376,4.765304768797755,3.199178903147578,-0.9864989083983003
1783696781450862800,8.72986279296875,4.500631503582,3.143350048419833,-1.3600193556934594
1783696781460825900,8.739825927734374,4.364222799229622,3.073504943299293,-1.5839172506675123
1783696781470788900,8.749788818359375,4.511083924013376,3.1390614113152027,-1.6648222405932842
1783696781480751900,8.759751953125,4.834641924396157,3.260613907319307,-1.5713465229079127
1783696781490715100,8.769715087890624,5.2253439542472355,3.3093536805689334,-1.3522687415666876
1783696781500678100,8.77967822265625,5.4819315281629555,3.3204572583854195,-1.079178215008974
1783696781510641200,8.78964111328125,5.265358569249511,3.2075463339984416,-0.5344977757148445
1783696781520604000,8.79960400390625,4.481363324010372,2.889927660536766,0.21325711236372588
1783696781530567000,8.80956689453125,3.389057331880927,2.2057862897127865,0.8767880952268838
1783696781540530000,8.819530029296875,2.086578311008215,1.1211942329615354,1.4131629168599844
1783696781550493000,8.829492919921876,0.6781073513567447,0.004551087433099747,1.8352102253064513
1783696781560456000,8.8394560546875,-1.4999486353874205,-1.1594096895873547,2.0079924116797745
1783696781570419200,8.849419189453124,-4.260581222969293,-2.436325814658403,1.5704121646672486
1783696781580382000,8.8593818359375,-6.938051543217897,-3.188359987491369,0.26211861229687927
1783696781590345000,8.869344970703125,-9.495347085556388,-3.589198211431503,-0.6686204880218952
1783696781600308000,8.879307861328124,-11.673390797340868,-4.181173924255371,-0.31685930646173655
1783696781610271000,8.88927099609375,-12.710588650232554,-4.696742104703188,0.8479892862439156
1783696781620234000,8.89923388671875,-12.752158677983283,-4.667574462407827,0.7187338146470487
1783696781630197000,8.909197021484376,-10.100961447632312,-5.649719705641269,4.018370549452305
1783696781640160000,8.919159912109375,-8.109494784948229,-6.094405254614353,4.605182303641736
1783696781650123000,8.929123046875,-6.430210157629847,-6.1282671922057865,4.556557388943434
1783696781660086000,8.9390859375,-5.410945436313748,-6.061591364771127,4.11837990669012
1783696781670049000,8.949049072265625,-5.452753364473581,-6.1322162220925085,3.7707273294925687
1783696781680012000,8.959011962890624,-5.736921603754163,-5.920322360906004,3.477784539864957
1783696781689975000,8.96897509765625,-5.459208824223279,-5.4374201862633225,3.0989488888964054
1783696781699938000,8.97893798828125,-4.6094519437849515,-4.861280924996733,2.4954478657126424
1783696781709901000,8.988901123046874,-3.589866319951415,-4.169993774071336,1.9380651812337337
1783696781719863800,8.99886376953125,-2.551710435682535,-3.339837666159868,1.6070540883660316
1783696781729826800,9.008826904296875,-1.623483829641342,-2.598386262139678,1.4053803001597522
1783696781739790000,9.0187900390625,-0.6406523577094078,-2.0212188268691302,1.0142150367110967
1783696781749753000,9.028753173828125,0.4700327561974525,-1.4823060111910105,0.2905995144370943
1783696781759716000,9.038716064453125,1.6897931618511677,-0.8446592650383711,-0.6754202311646192
1783696781769680100,9.04868017578125,2.8528572822928426,-0.03806348093450069,-1.514252470549941
1783696781779643100,9.05864306640625,3.702902332022786,0.8505138362854718,-2.124722455963492
1783696781789606100,9.068606201171875,4.109180701190233,1.7025100200831889,-2.4353832731112837
1783696781799569000,9.07856884765625,4.006196712055802,2.42905845400393,-2.418439444833994
1783696781809532000,9.088531982421875,3.6024072370946407,3.0853830126196145,-2.1556644144549963
1783696781819495000,9.098494873046874,3.1975650382101533,3.5849148350238798,-1.693313444931805
1783696781829458000,9.1084580078125,3.07634630420506,4.068392179206014,-1.3857672526732085
1783696781839421000,9.1184208984375,3.191543878224492,4.4436321437701585,-1.299774730350077
1783696781849384200,9.12838427734375,3.5129186893492936,4.590099300800263,-1.1706351402178405
1783696781859347200,9.13834716796875,3.958891355523467,4.6692391807496545,-1.0149426933985204
1783696781869310000,9.14831005859375,4.473815977370739,4.622673536668717,-0.7787367401890456
1783696781879273000,9.15827294921875,5.189124055352806,4.438701117108762,-0.41042200831081715
1783696781889236000,9.168236083984375,5.899672956109047,4.0920045254617925,0.028756065819784998
1783696781899199000,9.178198974609375,6.34027445063889,3.893943374794721,0.23192842202074823
1783696781909162000,9.188161865234376,6.507689703151583,3.8104046753644942,0.1757263135338202
1783696781919125000,9.198125,6.55172875136435,3.6307664856165647,0.06998345414530485
1783696781929088000,9.208087890625,6.4438856317609545,3.4177637864053247,-0.10867277536056935
1783696781939051000,9.218051025390626,6.2353533559620375,3.2004929083555935,-0.46714503539931024
1783696781949014000,9.228013916015625,5.948574641922116,2.9621511852264404,-0.8800710624203085
1783696781958977000,9.23797705078125,5.617042593920231,2.7071728000730273,-1.0313057261131704
1783696781968940000,9.24793994140625,5.327195139959454,2.442102059972286,-0.8309326452419161
1783696781978902800,9.25790283203125,4.980931971293687,2.295725503835082,-0.5917876794384792
1783696781988865800,9.26786572265625,4.315065677350759,2.3604233091950415,-0.3665427172370255
1783696781998828500,9.27782861328125,3.186514067363739,2.338040212473273,-0.12316329220160842
1783696782008791800,9.287791748046875,1.6943331433683633,2.030371855139732,0.1562432125698775
1783696782018754800,9.2977548828125,0.18457856875956058,1.4675152692943811,0.4171643587104976
1783696782028717800,9.3077177734375,-1.0004296724647284,0.6396358741432427,0.8883291146125644
1783696782038680800,9.317680908203124,-1.6921359255850315,-0.40667116787731644,1.180511149000749
1783696782049266700,9.3282666015625,-2.190880981525779,-1.8375111957252024,0.8811807772278785
1783696782059230000,9.33822998046875,-2.887450456768274,-3.0368145042836665,0.29876762332357465
1783696782069192700,9.348192626953125,-4.266936144953966,-3.8690678767353295,-0.3784643334381282
1783696782079155700,9.35815576171875,-6.780523478469252,-4.390075617888569,-0.9781094849113374
1783696782089118700,9.36811865234375,-10.063394225782156,-4.733102288851142,-0.8763155823443084
1783696782099081700,9.378081787109375,-12.621155632066726,-4.9338785436958075,-0.07987959240078926
1783696782109044700,9.388044677734374,-13.153105622994898,-4.843201078426838,1.161034587375447
1783696782119007700,9.3980078125,-11.689836905229091,-4.956465638557076,2.934676026062667
1783696782128970500,9.407970458984375,-9.438338081133365,-5.375584784597158,4.230647272476554
1783696782138933800,9.417933837890626,-6.731844495496153,-5.755212462726235,4.382339178417623
1783696782148896800,9.427896728515625,-4.131466182756424,-6.268684547677636,3.4121374709561465
1783696782158859800,9.43785986328125,-2.839499788069725,-7.048722579723596,2.6172102050751445
1783696782168822800,9.44782275390625,-2.8854765263468027,-7.738367224138974,2.4386732545673846
1783696782178785800,9.457785888671875,-3.274924172222614,-7.506857977378368,2.1469738891296086
1783696782188748800,9.467748779296874,-3.1201521281838414,-6.332011064684391,1.4085285350576042
1783696782198711600,9.477711669921876,-2.4190140298515557,-5.101373291185498,0.7788653350047766
1783696782208674600,9.487674560546875,-1.7069021175622938,-3.8616625689148902,0.3369876830592751
1783696782218637800,9.497637939453124,-1.2753443457096814,-2.3375205725133417,-0.029583237358927726
1783696782228600800,9.507600830078125,-1.1957014846742153,-0.9707441437751054,-0.25455051513016225
1783696782238563800,9.517563720703125,-1.1766700364679097,0.24653847358822822,-0.2361548806093633
1783696782248526800,9.52752685546875,-0.6398422103703022,1.2399743416428566,-0.21981281761750576
1783696782258489900,9.53748974609375,0.4459171365946531,1.8722873255521058,-0.38875484130606053
1783696782268452600,9.54745263671875,1.680719044035673,2.221384256339073,-0.6405249319374561
1783696782278415600,9.55741552734375,2.751224707767367,2.385525894008577,-0.9494384670265018
1783696782288378600,9.567378662109375,3.445705101776123,2.450122284820676,-1.224812720607221
1783696782298341600,9.577341552734374,3.838859785476327,2.5171932490527626,-1.5065625005692242
1783696782308305000,9.587304931640626,4.137872542667389,2.637549228748679,-1.696998855446279
1783696782318268000,9.597267822265625,4.377164113867282,2.7517954933926463,-1.7736211996167897
1783696782328230700,9.607230712890624,4.596881216025352,2.8356159323737025,-1.808665917252004
1783696782338193700,9.617193603515625,4.73476466910541,2.9288401595160365,-1.8686388860471546
1783696782348156700,9.62715673828125,4.710008998033404,2.990315203437209,-1.94017033681944
1783696782358741800,9.63774169921875,4.735056930050254,3.0209219386249777,-1.8664101040817795
1783696782368704800,9.647704833984376,4.853702598696946,3.002012363232672,-1.727038312140107
1783696782378667800,9.657667724609375,5.104284794718027,2.990729044935107,-1.558473597331345
1783696782388630500,9.667630615234375,5.410841391417383,2.9680069255173205,-1.3769617226660251
1783696782398593800,9.67759375,5.766338836896419,2.959066955475509,-1.1951695697546005
1783696782408556800,9.687556884765625,6.111895903119445,3.0237498555272815,-1.1164438235640526
1783696782418519800,9.697519775390624,6.423691569516063,3.07205649805665,-1.1024379484348
1783696782428482800,9.70748291015625,6.668259035292268,3.175688137444854,-1.163954785671085
1783696782438445800,9.71744580078125,6.780916861701011,3.353510217681527,-1.2379372828572988
1783696782448408800,9.727408935546874,6.876237768861651,3.4335008692413567,-1.3805055327527225
1783696782458371600,9.73737158203125,6.800030727493763,3.3814813436686992,-1.5878376389816402
1783696782468334600,9.74733447265625,6.546728166598081,3.3342999057769775,-1.6699541966542601
1783696782478297600,9.757297607421876,6.348838865366578,3.2912253186821934,-1.6266627519384025
1783696782488260900,9.7672607421875,6.12827946716547,3.238276987826824,-1.5652935064792632
1783696782498223900,9.777223876953125,5.610741447949409,3.061751961663365,-1.4219162782885133
1783696782508187000,9.787186767578126,4.535457317769527,2.536851889246702,-1.2050230013795196
1783696782518150000,9.79714990234375,2.7122733380824324,1.8239713306725025,-1.1020483645953236
1783696782528112600,9.807112548828124,1.2851076148331164,0.7490741539835929,-1.0508014308303595
1783696782538075600,9.81707568359375,1.1700783831179142,-0.35508769563436504,-0.48346857635378837
1783696782548038700,9.82703857421875,-0.9480582647144794,-0.7867495123833418,0.2091350639976561
1783696782558001700,9.837001708984374,-4.408845200288296,-1.264462886211276,0.485543044540286
1783696782567964700,9.846964599609375,-7.436888369095325,-1.3062941952466964,0.09846212779581547
1783696782577928700,9.8569287109375,-10.319224259328841,-1.7894687570899723,0.14225933007672428
1783696782587891700,9.8668916015625,-13.417868320059776,-3.178465785464644,0.7186150105729698
1783696782597855000,9.87685498046875,-15.212518863701819,-3.839204068869352,1.5407162607140839
1783696782607817700,9.886817626953125,-14.929458293402194,-3.810879891660809,3.168162710376084
