time,seconds_elapsed,z,y,x
1783696623939774500,0.0637744140625,-0.19619682431221008,-0.9700838327407837,-0.3475552201271057
1783696623949738500,0.073738525390625,-0.3025646507740021,-1.017314076423645,-0.460354745388031
1783696623959701500,0.083701416015625,-0.34404605627059937,-1.1319098472595215,-0.6326165199279785
1783696623969664500,0.09366455078125,-0.30893564224243164,-1.201831340789795,-0.7977660894393921
1783696623979627300,0.103627197265625,-0.22544392943382263,-1.1752204895019531,-0.8917027115821838
1783696623989590500,0.113590576171875,-0.14437076449394226,-1.0920600891113281,-0.8844349980354309
1783696623999553500,0.123553466796875,-0.08987078070640564,-1.0182441473007202,-0.8143560290336609
1783696624009516500,0.1335166015625,-0.07850252091884613,-0.953068196773529,-0.7314512133598328
1783696624019479600,0.1434794921875,-0.14218029379844666,-0.8619084358215332,-0.6769129037857056
1783696624029443600,0.153443603515625,-0.25483566522598267,-0.7405997514724731,-0.6578243970870972
1783696624039406600,0.163406494140625,-0.37492185831069946,-0.5611253380775452,-0.6656687259674072
1783696624049369600,0.17336962890625,-0.46541568636894226,-0.3181758224964142,-0.6713547706604004
1783696624059332400,0.183332275390625,-0.523917555809021,-0.040065616369247437,-0.6406969428062439
1783696624069295400,0.19329541015625,-0.5558764934539795,0.2322201281785965,-0.5609878301620483
1783696624079258400,0.20325830078125,-0.5747674107551575,0.43803533911705017,-0.4484783709049225
1783696624089221400,0.213221435546875,-0.5477408170700073,0.5045112371444702,-0.31329596042633057
1783696624099185400,0.223185302734375,-0.49029719829559326,0.471576452255249,-0.14595329761505127
1783696624109148400,0.2331484375,-0.43647754192352295,0.4196505844593048,0.036807868629693985
1783696624119111400,0.243111328125,-0.38752439618110657,0.4114163815975189,0.2289900928735733
1783696624129074700,0.25307470703125,-0.3454359769821167,0.47892236709594727,0.4197874069213867
1783696624139037400,0.263037353515625,-0.31323036551475525,0.5951884984970093,0.5997268557548523
1783696624149000400,0.27300048828125,-0.28890112042427063,0.7341118454933167,0.7446348071098328
1783696624158963500,0.28296337890625,-0.2733447849750519,0.8320115208625793,0.8329628109931946
1783696624168926500,0.292926513671875,-0.26340049505233765,0.9015838503837585,0.8391878604888916
1783696624178890500,0.302890380859375,-0.24233834445476532,0.9815462827682495,0.7780158519744873
1783696624188853500,0.312853515625,-0.2114851027727127,1.0912848711013794,0.6836065649986267
1783696624198816500,0.32281640625,-0.20428498089313507,1.1973841190338135,0.5798231363296509
1783696624208779500,0.332779541015625,-0.21481022238731384,1.2973034381866455,0.49912145733833313
1783696624218742300,0.3427421875,-0.22484740614891052,1.3508005142211914,0.4644617438316345
1783696624228705300,0.352705322265625,-0.2105236053466797,1.264672875404358,0.4477570056915283
1783696624238668500,0.36266845703125,-0.1893986165523529,1.0523353815078735,0.45599043369293213
1783696624248632300,0.37263232421875,-0.176069974899292,0.7924461364746094,0.48686835169792175
1783696624258595600,0.382595703125,-0.16304577887058258,0.5801994204521179,0.5622957348823547
1783696624268558600,0.39255859375,-0.12643882632255554,0.4463624060153961,0.6786530613899231
1783696624278521600,0.402521484375,-0.0673999935388565,0.2779685854911804,0.7920861840248108
1783696624288484600,0.412484619140625,-0.0033194399438798428,0.03989291563630104,0.8488365411758423
1783696624298447400,0.422447265625,0.051540348678827286,-0.26022323966026306,0.8009364008903503
1783696624308410400,0.432410400390625,0.08534408360719681,-0.614453136920929,0.6467976570129395
1783696624318373400,0.442373291015625,0.08802029490470886,-0.9203348159790039,0.4424988627433777
1783696624328337400,0.45233740234375,0.05081535503268242,-1.2008799314498901,0.22179639339447021
1783696624338300400,0.462300537109375,0.012578221969306469,-1.4140598773956299,0.06834612786769867
1783696624348263400,0.472263427734375,-0.039141181856393814,-1.3794809579849243,0.020918134599924088
1783696624358226400,0.482226318359375,-0.10787656903266907,-1.055395245552063,0.054287541657686234
1783696624368189700,0.492189697265625,-0.16382654011249542,-0.4919356107711792,0.09975018352270126
1783696624378152400,0.50215234375,-0.19101102650165558,0.11932721734046936,0.11865729838609695
1783696624388115500,0.512115478515625,-0.1768149882555008,0.5454464554786682,0.09612872451543808
1783696624398079500,0.52207958984375,-0.16044825315475464,0.660154402256012,0.028628244996070862
1783696624408042500,0.53204248046875,-0.1792626976966858,0.5566897988319397,-0.06583620607852936
1783696624418005500,0.542005615234375,-0.19298729300498962,0.2963774800300598,-0.17563089728355408
1783696624427968500,0.551968505859375,-0.1933470517396927,-0.0889395996928215,-0.32430946826934814
1783696624437931500,0.561931640625,-0.14766478538513184,-0.5161042213439941,-0.5006586909294128
1783696624447894500,0.57189453125,-0.05852251872420311,-0.8974383473396301,-0.7053088545799255
1783696624457857300,0.581857177734375,0.06674059480428696,-1.0912601947784424,-0.9038029909133911
1783696624467820300,0.5918203125,0.14150038361549377,-1.0559418201446533,-1.060832142829895
1783696624477784300,0.601784423828125,0.17103219032287598,-0.8902825713157654,-1.166685700416565
1783696624487747300,0.611747314453125,0.20883910357952118,-0.7350245118141174,-1.2472047805786133
1783696624497710600,0.621710693359375,0.2632887363433838,-0.6892117261886597,-1.3284047842025757
1783696624507673600,0.631673583984375,0.29972147941589355,-0.7195997834205627,-1.4105199575424194
1783696624517636600,0.64163671875,0.29377251863479614,-0.7516335844993591,-1.4706858396530151
1783696624527599600,0.651599609375,0.2633669972419739,-0.7334001064300537,-1.478362798690796
1783696624537562400,0.661562255859375,0.19574986398220062,-0.6207571625709534,-1.4145864248275757
1783696624547526700,0.671526611328125,0.110270194709301,-0.4203443229198456,-1.2636698484420776
1783696624557489400,0.681489501953125,0.028369201347231865,-0.16680604219436646,-1.0206254720687866
1783696624567452400,0.691452392578125,-0.029218807816505432,0.0788184329867363,-0.724155604839325
1783696624577415400,0.70141552734375,-0.05478755012154579,0.2785176932811737,-0.41064053773880005
1783696624587378400,0.71137841796875,-0.05650566145777702,0.4453258216381073,-0.0996401458978653
1783696624597341400,0.721341552734375,-0.041830580681562424,0.5380549430847168,0.18326133489608765
1783696624607304400,0.731304443359375,-0.02307896688580513,0.5142377018928528,0.399185448884964
1783696624617267500,0.741267333984375,-0.005334591027349234,0.4230484664440155,0.5552344918251038
1783696624627231500,0.7512314453125,-0.009451838210225105,0.28514012694358826,0.6566100716590881
1783696624637194500,0.761194580078125,-0.011870521120727062,0.13848675787448883,0.726923942565918
1783696624647157500,0.771157470703125,-0.024626350030303,0.07438438385725021,0.7858708500862122
1783696624657120500,0.78112060546875,-0.02968022972345352,0.12801219522953033,0.8296359181404114
1783696624667083500,0.79108349609375,-0.02779265306890011,0.2765327990055084,0.8578082323074341
1783696624677046500,0.801046630859375,-0.0341980867087841,0.4322353005409241,0.8644222021102905
1783696624687009500,0.811009521484375,-0.04553648829460144,0.515400230884552,0.8410926461219788
1783696624696972300,0.82097216796875,-0.053684428334236145,0.505010187625885,0.7983486652374268
1783696624706936600,0.8309365234375,-0.05365580692887306,0.4388605058193207,0.765355110168457
1783696624716899300,0.8408994140625,-0.08054973930120468,0.35547107458114624,0.7558864951133728
1783696624726862300,0.8508623046875,-0.11657483130693436,0.2529542148113251,0.7301543354988098
1783696624736825300,0.860825439453125,-0.13901515305042267,0.17589564621448517,0.7040148973464966
1783696624746788600,0.87078857421875,-0.14497843384742737,0.1611947864294052,0.7009189128875732
1783696624756751600,0.880751708984375,-0.13630639016628265,0.12532439827919006,0.6891123056411743
1783696624766714600,0.890714599609375,-0.09427274763584137,-0.047460682690143585,0.6302306056022644
1783696624776678700,0.9006787109375,0.003749419702216983,-0.27271538972854614,0.5556421279907227
1783696624786641700,0.9106416015625,0.12911398708820343,-0.4885595440864563,0.5026431083679199
1783696624796604400,0.9206044921875,0.22748956084251404,-0.6911389827728271,0.44358691573143005
1783696624806567400,0.9305673828125,0.25426000356674194,-0.8066545724868774,0.32227593660354614
1783696624816530400,0.940530517578125,0.21176742017269135,-0.6611894965171814,0.16561922430992126
1783696624826493400,0.950493408203125,0.15303780138492584,-0.1998216211795807,0.03970523923635483
1783696624836456400,0.96045654296875,0.0988006591796875,0.29988884925842285,-0.048102375119924545
1783696624846419500,0.97041943359375,0.07759714126586914,0.630291759967804,-0.08203788101673126
1783696624856383500,0.980383544921875,0.11545424163341522,0.733840823173523,-0.07975848019123077
1783696624866346500,0.990346435546875,0.18720237910747528,0.49763134121894836,-0.1567973494529724
1783696624876309500,1.0003095703125,0.2388426661491394,0.02408907748758793,-0.37477922439575195
1783696624886272500,1.0102724609375,0.27881723642349243,-0.4178435802459717,-0.7107742428779602
1783696624896235500,1.020235595703125,0.3697394132614136,-0.6528925895690918,-1.07100510597229
1783696624906198500,1.030198486328125,0.5168498754501343,-0.675559937953949,-1.3452599048614502
1783696624916161500,1.04016162109375,0.6387595534324646,-0.5184805989265442,-1.5076347589492798
1783696624926124500,1.05012451171875,0.6961929798126221,-0.2830542325973511,-1.577293038368225
1783696624936088600,1.060088623046875,0.7334708571434021,-0.1291102021932602,-1.6100986003875732
1783696624946051600,1.070051513671875,0.7684338688850403,-0.11785376816987991,-1.6378289461135864
1783696624956014300,1.080014404296875,0.774511456489563,-0.19358502328395844,-1.665122628211975
1783696624965977300,1.089977294921875,0.7443598508834839,-0.3258413076400757,-1.7069858312606812
1783696624975940400,1.0999404296875,0.6794026494026184,-0.46102604269981384,-1.7701157331466675
1783696624985903600,1.109903564453125,0.5956457853317261,-0.5682829022407532,-1.840969204902649
1783696624995866600,1.11986669921875,0.5375435948371887,-0.6910666227340698,-1.8694716691970825
1783696625005829600,1.12982958984375,0.5064147710800171,-0.7824474573135376,-1.8050998449325562
1783696625015793700,1.139793701171875,0.5120161771774292,-0.7159968018531799,-1.6269431114196777
1783696625025756700,1.149756591796875,0.5443726778030396,-0.4936552345752716,-1.3635188341140747
1783696625035719400,1.159719482421875,0.5815663933753967,-0.17567646503448486,-1.0564271211624146
1783696625045682400,1.169682373046875,0.582566499710083,0.1332760602235794,-0.7551451921463013
1783696625055645400,1.1796455078125,0.5326327681541443,0.2990133464336395,-0.4895364046096802
1783696625065608400,1.1896083984375,0.4841175973415375,0.35420674085617065,-0.2509438097476959
1783696625075571500,1.199571533203125,0.4708031117916107,0.35600173473358154,-0.016506534069776535
1783696625085534500,1.209534423828125,0.46631360054016113,0.3013201951980591,0.22097595036029816
1783696625095498500,1.21949853515625,0.4551807940006256,0.1896277666091919,0.44358986616134644
1783696625105461500,1.22946142578125,0.44306474924087524,0.09427676349878311,0.6510666012763977
1783696625115424500,1.239424560546875,0.4205852746963501,0.10094451904296875,0.8285164833068848
1783696625125387500,1.249387451171875,0.3986857533454895,0.21932640671730042,0.9451441168785095
1783696625135350500,1.2593505859375,0.3784550428390503,0.3942161798477173,0.9933566451072693
1783696625145313500,1.2693134765625,0.3784819543361664,0.5679168701171875,0.9880756139755249
1783696625155276500,1.279276611328125,0.39189255237579346,0.6963315606117249,0.9471196532249451
1783696625165239600,1.289239501953125,0.3987210988998413,0.7576339840888977,0.8745317459106445
1783696625175203600,1.29920361328125,0.3860583007335663,0.7299965023994446,0.7926957607269287
1783696625185166600,1.30916650390625,0.3512023687362671,0.6707852482795715,0.7201133370399475
1783696625195129300,1.31912939453125,0.31402328610420227,0.6518206000328064,0.6587058901786804
1783696625205092400,1.32909228515625,0.31085404753685,0.6819260120391846,0.6076071858406067
1783696625215055400,1.339055419921875,0.3643937110900879,0.7579526305198669,0.5554965734481812
1783696625225018600,1.3490185546875,0.4521058201789856,0.8184032440185547,0.5006645917892456
1783696625234981600,1.358981689453125,0.5596919655799866,0.7522082328796387,0.41165271401405334
1783696625244944600,1.368944580078125,0.6798355579376221,0.4923698604106903,0.2788546681404114
1783696625254908700,1.37890869140625,0.7663493752479553,0.09299822151660919,0.12065467238426208
1783696625264871700,1.38887158203125,0.7555258870124817,-0.3272077441215515,-0.03861396014690399
1783696625274834400,1.39883447265625,0.6207188367843628,-0.5185753107070923,-0.13793601095676422
1783696625284797400,1.40879736328125,0.4084653854370117,-0.3813140392303467,-0.10509143769741058
1783696625294760400,1.418760498046875,0.16776221990585327,-0.03327483311295509,-0.0018177848542109132
1783696625304723500,1.428723388671875,-0.05638928338885307,0.32460713386535645,0.04020298272371292
1783696625314686500,1.4386865234375,-0.189488485455513,0.5819145441055298,-0.030657608062028885
1783696625324649500,1.4486494140625,-0.19425173103809357,0.6741625666618347,-0.19819548726081848
1783696625334613500,1.458613525390625,-0.13189275562763214,0.6400863528251648,-0.4158031940460205
1783696625344576500,1.468576416015625,-0.061103660613298416,0.49791544675827026,-0.6794895529747009
1783696625354539500,1.47853955078125,-0.0171966552734375,0.2635471522808075,-0.987088143825531
1783696625364502500,1.48850244140625,-0.008733175694942474,0.0797143504023552,-1.30012047290802
1783696625374465500,1.498465576171875,-0.03353679180145264,0.033255502581596375,-1.5560688972473145
1783696625384428500,1.508428466796875,-0.10682052373886108,0.09333432465791702,-1.7291542291641235
1783696625394391600,1.5183916015625,-0.22629553079605103,0.24909888207912445,-1.8311597108840942
1783696625404354600,1.5283544921875,-0.3613985776901245,0.5103985667228699,-1.8705663681030273
1783696625414317300,1.5383173828125,-0.5110703110694885,0.8762040138244629,-1.8896037340164185
1783696625424281600,1.548281494140625,-0.6671484112739563,1.1797541379928589,-1.902450442314148
1783696625434244400,1.558244384765625,-0.7868548631668091,1.1996772289276123,-1.8493915796279907
1783696625444207400,1.568207275390625,-0.8117259740829468,0.9360964298248291,-1.6650481224060059
1783696625454170400,1.57817041015625,-0.7481744289398193,0.5399320721626282,-1.3651424646377563
1783696625464133400,1.58813330078125,-0.6142273545265198,0.11772817373275757,-1.0251353979110718
1783696625474096600,1.5980966796875,-0.3727915585041046,-0.19558793306350708,-0.6607301235198975
1783696625484059600,1.6080595703125,-0.03800346329808235,-0.2828820049762726,-0.25319328904151917
1783696625494022400,1.6180224609375,0.3013293445110321,-0.19820038974285126,0.15855351090431213
1783696625503986700,1.627986572265625,0.580919086933136,-0.07271737605333328,0.5628368258476257
1783696625513949400,1.637949462890625,0.8091408014297485,0.14494092762470245,0.9300504922866821
1783696625523912400,1.647912353515625,0.954334020614624,0.38047313690185547,1.2223889827728271
1783696625533875500,1.65787548828125,1.007691502571106,0.5113507509231567,1.425093412399292
1783696625543838500,1.66783837890625,0.9605317711830139,0.5024562478065491,1.5391976833343506
1783696625553801500,1.677801513671875,0.8356196284294128,0.4037797152996063,1.5866224765777588
1783696625563764500,1.687764404296875,0.6922726035118103,0.2857046127319336,1.5754363536834717
1783696625573727500,1.6977275390625,0.6167160868644714,0.23637565970420837,1.5383235216140747
1783696625583691500,1.70769140625,0.593110978603363,0.24365581572055817,1.464985966682434
1783696625593654300,1.717654296875,0.5277376174926758,0.101652592420578,1.3150159120559692
1783696625603617500,1.727617431640625,0.4281688630580902,-0.10659980773925781,1.121354103088379
1783696625613580500,1.73758056640625,0.33567726612091064,-0.291331022977829,0.905543863773346
1783696625623543600,1.74754345703125,0.26457300782203674,-0.4677203893661499,0.6873757243156433
1783696625633506600,1.757506591796875,0.21793384850025177,-0.6016494035720825,0.503892719745636
1783696625643469600,1.767469482421875,0.19762380421161652,-0.5559075474739075,0.4552573561668396
1783696625653432300,1.777432373046875,0.1335015445947647,-0.438329815864563,0.47979971766471863
1783696625663395300,1.787395263671875,0.033930469304323196,-0.36503511667251587,0.541452169418335
1783696625673359400,1.797359375,-0.0383775494992733,-0.2195655256509781,0.6701757907867432
1783696625683322400,1.807322265625,-0.04979059100151062,0.05560756474733353,0.867201566696167
1783696625693285400,1.817285400390625,-0.0008555378299206495,0.3237130641937256,1.099871039390564
1783696625703248400,1.827248291015625,0.10760587453842163,0.45393598079681396,1.3414794206619263
1783696625713211600,1.837211669921875,0.23227883875370026,0.3645528256893158,1.5454597473144531
1783696625723174700,1.847174560546875,0.3412071764469147,0.11032693833112717,1.7047913074493408
1783696625733137400,1.857137451171875,0.37846240401268005,-0.193749338388443,1.7669966220855713
1783696625743100400,1.867100341796875,0.34454599022865295,-0.4811689555644989,1.6881392002105713
1783696625753064400,1.877064453125,0.2863093316555023,-0.5502066016197205,1.482173204421997
1783696625763027500,1.88702734375,0.208848774433136,-0.25526338815689087,1.2454304695129395
1783696625772990500,1.896990478515625,0.1181657537817955,0.23980200290679932,1.0307857990264893
1783696625782953500,1.906953369140625,0.07825783640146255,0.7212283611297607,0.8372487425804138
1783696625792916500,1.91691650390625,0.16200146079063416,1.1284934282302856,0.6573037505149841
1783696625802879500,1.92687939453125,0.32055291533470154,1.375104308128357,0.4557052254676819
1783696625812842500,1.936842529296875,0.4218188226222992,1.407539963722229,0.20336271822452545
1783696625822805800,1.9468056640625,0.3838464021682739,1.30668044090271,-0.09274324029684067
1783696625832769500,1.95676953125,0.2618936002254486,1.2082372903823853,-0.3740292489528656
1783696625842732500,1.966732666015625,0.16315163671970367,1.1338152885437012,-0.5911112427711487
1783696625852695600,1.976695556640625,0.10836508125066757,1.0917192697525024,-0.7325866222381592
1783696625862658600,1.986658447265625,0.06499863415956497,1.1256072521209717,-0.841485321521759
1783696625872621600,1.99662158203125,-0.009233779273927212,1.19818115234375,-0.9681766629219055
1783696625882584600,2.00658447265625,-0.12511496245861053,1.1819490194320679,-1.175881266593933
1783696625892547600,2.016547607421875,-0.24619798362255096,0.8670409321784973,-1.4399523735046387
1783696625902510600,2.026510498046875,-0.31320253014564514,0.40417733788490295,-1.6315604448318481
1783696625912474600,2.036474609375,-0.34658312797546387,0.0022016698494553566,-1.7107900381088257
1783696625922437400,2.046437255859375,-0.35286563634872437,-0.3431971073150635,-1.702460765838623
1783696625932400400,2.056400390625,-0.31888076663017273,-0.5730124711990356,-1.618820309638977
1783696625942363400,2.06636328125,-0.25320613384246826,-0.6522940397262573,-1.4761195182800293
1783696625952326700,2.07632666015625,-0.16106633841991425,-0.5452706217765808,-1.2825732231140137
1783696625962289700,2.08628955078125,-0.050938647240400314,-0.2603057026863098,-1.0441018342971802
1783696625972252700,2.096252685546875,0.054002150893211365,0.08408521860837936,-0.7861611843109131
1783696625982215700,2.106215576171875,0.13366064429283142,0.3648433983325958,-0.529263973236084
1783696625992178400,2.116178466796875,0.1729409396648407,0.49525678157806396,-0.2942546010017395
1783696626002142500,2.126142578125,0.20163053274154663,0.5118509531021118,-0.09270479530096054
1783696626012105500,2.13610546875,0.25469404458999634,0.4988594949245453,0.07981797307729721
1783696626022068500,2.146068359375,0.325330913066864,0.5329858660697937,0.22854465246200562
1783696626032031500,2.156031494140625,0.38326773047447205,0.6317819952964783,0.3755977749824524
1783696626041994500,2.165994384765625,0.39827099442481995,0.7384986877441406,0.539271891117096
1783696626051957500,2.17595751953125,0.3591387867927551,0.8691912293434143,0.7155446410179138
1783696626061920800,2.185920654296875,0.23903495073318481,0.9129915833473206,0.9001995921134949
1783696626071883500,2.195883544921875,0.052990518510341644,0.827267050743103,1.1026701927185059
1783696626081847600,2.20584765625,-0.09279493242502213,0.7713667154312134,1.3074991703033447
1783696626091810600,2.215810546875,-0.15818218886852264,0.6226015090942383,1.468929409980774
1783696626101773600,2.225773681640625,-0.18849748373031616,0.30174440145492554,1.5532753467559814
1783696626111736600,2.235736572265625,-0.22931228578090668,-0.04942668601870537,1.60104238986969
1783696626121699600,2.245699462890625,-0.26949504017829895,-0.362029105424881,1.6261652708053589
1783696626131662600,2.25566259765625,-0.29174575209617615,-0.6095324158668518,1.6074141263961792
1783696626141625600,2.26562548828125,-0.28611108660697937,-0.7616561055183411,1.5360832214355469
1783696626151588400,2.27558837890625,-0.24210500717163086,-0.8143590092658997,1.4196665287017822
1783696626161551400,2.28555126953125,-0.1646486222743988,-0.7268559336662292,1.273726224899292
1783696626171515400,2.295515380859375,-0.06769305467605591,-0.49926191568374634,1.1109516620635986
1783696626181478400,2.305478515625,0.04408428445458412,-0.0724223181605339,0.9778768420219421
1783696626191441400,2.31544140625,0.12479084730148315,0.18297801911830902,0.8107589483261108
1783696626201404700,2.32540478515625,0.1445537954568863,0.18127000331878662,0.6070891618728638
1783696626211367700,2.33536767578125,0.14532504975795746,-0.0698772668838501,0.4226878881454468
1783696626221330700,2.34533056640625,0.17842552065849304,-0.471921443939209,0.3191157579421997
1783696626231293400,2.35529345703125,0.19546549022197723,-0.9151627421379089,0.2588644027709961
1783696626241256400,2.36525634765625,0.16937962174415588,-1.2053898572921753,0.2064698189496994
1783696626251220500,2.375220458984375,0.1355675905942917,-1.1302080154418945,0.2241699993610382
1783696626261183500,2.38518359375,0.06907127052545547,-0.8378931879997253,0.24980708956718445
1783696626271146500,2.395146484375,-0.01995873637497425,-0.4256685674190521,0.2060135304927826
1783696626281109500,2.405109619140625,-0.030157845467329025,-0.012426144443452358,0.0963464304804802
1783696626291072500,2.415072509765625,0.055904604494571686,0.23550055921077728,-0.0832827240228653
1783696626301035500,2.425035400390625,0.1256438046693802,0.2424963116645813,-0.36057859659194946
1783696626310998500,2.43499853515625,0.13086439669132233,0.20981399714946747,-0.6717729568481445
1783696626320961500,2.44496142578125,0.07219503074884415,0.2564513385295868,-0.9709391593933105
1783696626330925600,2.454925537109375,0.004784034565091133,0.277097225189209,-1.256453275680542
1783696626340888600,2.464888671875,-0.027403557673096657,0.23885732889175415,-1.516941785812378
1783696626350851600,2.4748515625,-0.028180668130517006,0.1842002123594284,-1.7141480445861816
1783696626360814600,2.484814697265625,-0.07499796897172928,0.2274426370859146,-1.806352972984314
1783696626370777600,2.494777587890625,-0.16361120343208313,0.15705794095993042,-1.8140774965286255
1783696626380740600,2.50474072265625,-0.2592466175556183,-0.01089762058109045,-1.7657585144042969
1783696626390703400,2.514703369140625,-0.33056047558784485,-0.2954963445663452,-1.6951320171356201
1783696626400666400,2.524666259765625,-0.3670840561389923,-0.525333046913147,-1.5820460319519043
1783696626410630400,2.53463037109375,-0.3568202555179596,-0.6536896824836731,-1.391748070716858
1783696626420593400,2.544593505859375,-0.3010980188846588,-0.6413837671279907,-1.1160420179367065
1783696626430556400,2.554556396484375,-0.18165099620819092,-0.504840075969696,-0.7922855615615845
1783696626440519700,2.564519775390625,-0.03167739138007164,-0.29155433177948,-0.4487111270427704
1783696626450482700,2.574482666015625,0.09584115445613861,-0.05694873631000519,-0.06917418539524078
1783696626460445700,2.58444580078125,0.1652023047208786,0.15250509977340698,0.3227003812789917
1783696626470408400,2.594408447265625,0.16883273422718048,0.2697227895259857,0.6832162141799927
1783696626480371500,2.604371337890625,0.17488814890384674,0.33173617720603943,0.9724653959274292
1783696626490334500,2.61433447265625,0.19197659194469452,0.4039802849292755,1.1257634162902832
1783696626500298500,2.624298583984375,0.2167656570672989,0.5053480267524719,1.1285836696624756
1783696626510261500,2.634261474609375,0.2660176157951355,0.5539304614067078,1.011773705482483
1783696626520224500,2.644224609375,0.32069167494773865,0.5302888751029968,0.8287304639816284
1783696626530187500,2.6541875,0.3482213020324707,0.4785774350166321,0.6399011611938477
1783696626540150500,2.664150634765625,0.34219834208488464,0.4027373194694519,0.4931434094905853
1783696626550113500,2.674113525390625,0.2964441776275635,0.30695489048957825,0.3862299919128418
1783696626560076500,2.68407666015625,0.23116160929203033,0.18499615788459778,0.3104711174964905
1783696626570039600,2.69403955078125,0.16190822422504425,-0.017992917448282242,0.24255307018756866
1783696626580003600,2.704003662109375,0.10660574585199356,-0.3238697946071625,0.16939525306224823
1783696626589966600,2.713966552734375,0.06822773069143295,-0.6536418199539185,0.10262154787778854
1783696626599929600,2.7239296875,0.024067528545856476,-0.9280602931976318,0.03959861397743225
1783696626609892600,2.733892578125,-0.022804638370871544,-1.0991742610931396,-0.003777354722842574
1783696626619855600,2.743855712890625,-0.05768365040421486,-1.1579238176345825,-0.027779512107372284
1783696626629818400,2.753818359375,-0.04757083207368851,-0.948245108127594,-0.009623677469789982
1783696626639781400,2.763781494140625,-0.019063523039221764,-0.5493097901344299,0.045369356870651245
1783696626649744400,2.773744384765625,-0.08393626660108566,-0.003007293213158846,0.13048584759235382
1783696626659707600,2.783707763671875,-0.21317587792873383,0.7016251087188721,0.2753499746322632
1783696626669671400,2.79367138671875,-0.28784212470054626,1.3798867464065552,0.48850247263908386
1783696626679634700,2.803634765625,-0.24477073550224304,1.7702237367630005,0.7221835851669312
1783696626689597700,2.81359765625,-0.07447490841150284,1.7125447988510132,0.9090206027030945
1783696626699560700,2.823560791015625,0.17122936248779297,1.168858289718628,1.0320385694503784
1783696626709523500,2.8335234375,0.4358160197734833,0.5052565932273865,1.1700427532196045
1783696626719486500,2.843486572265625,0.6339564323425293,0.08122619986534119,1.3647677898406982
1783696626729449500,2.853449462890625,0.7056511044502258,-0.013475541956722736,1.552828311920166
1783696626739412500,2.86341259765625,0.6505572199821472,0.17089426517486572,1.6295877695083618
1783696626749376500,2.87337646484375,0.4623388648033142,0.348955363035202,1.4723737239837646
1783696626759339500,2.883339599609375,0.23192480206489563,0.3889041244983673,1.0494681596755981
1783696626769302500,2.893302490234375,0.11100504547357559,0.4211547374725342,0.46845048666000366
1783696626779265500,2.903265625,0.06131942570209503,0.4167258143424988,-0.16705884039402008
1783696626789228500,2.913228515625,0.031613197177648544,0.338591605424881,-0.7326253056526184
1783696626799191600,2.923191650390625,0.03397592157125473,0.29008057713508606,-1.128197431564331
1783696626809154600,2.933154541015625,0.09185227006673813,0.3146916627883911,-1.3277337551116943
1783696626819118300,2.943118408203125,0.21343782544136047,0.36989152431488037,-1.308790922164917
1783696626829082400,2.953082275390625,0.39164218306541443,0.43124595284461975,-1.110170841217041
1783696626839045400,2.96304541015625,0.5828487873077393,0.4021977484226227,-0.8394613265991211
1783696626849008400,2.97300830078125,0.6995442509651184,0.20816300809383392,-0.6357412338256836
1783696626858971400,2.982971435546875,0.6730218529701233,-0.1263628453016281,-0.6137261390686035
1783696626868934400,2.992934326171875,0.49271973967552185,-0.6027964949607849,-0.8757598400115967
1783696626878897400,3.0028974609375,0.24774502217769623,-1.3156174421310425,-1.3427050113677979
1783696626888860400,3.0128603515625,0.05329485237598419,-1.891276478767395,-1.7340017557144165
1783696626898823200,3.0228232421875,-0.07954762876033783,-2.0281450748443604,-1.9125733375549316
1783696626908786200,3.0327861328125,-0.14688991010189056,-1.837355136871338,-1.885951280593872
1783696626918750200,3.042750244140625,-0.09520070254802704,-1.3483577966690063,-1.670635461807251
1783696626928713200,3.052713134765625,0.006672404240816832,-0.7973766922950745,-1.3530991077423096
1783696626938676500,3.062676513671875,0.04118075966835022,-0.27471283078193665,-0.9450652003288269
1783696626948639500,3.072639404296875,0.022556476294994354,0.27773305773735046,-0.46704939007759094
1783696626958602500,3.0826025390625,-0.028395574539899826,0.6302586793899536,-0.03676804527640343
1783696626968565500,3.0925654296875,-0.05057810992002487,0.7265934944152832,0.24160924553871155
1783696626978528300,3.1025283203125,-0.038978561758995056,0.7022113800048828,0.3530438244342804
1783696626988491300,3.1124912109375,-0.012237230315804482,0.6544026136398315,0.36161360144615173
1783696626998455300,3.122455322265625,0.009211353026330471,0.5851085186004639,0.3323929011821747
1783696627008418300,3.132418212890625,0.01627485454082489,0.4920795261859894,0.3175409734249115
1783696627018381300,3.14238134765625,0.016305360943078995,0.3923511505126953,0.32722872495651245
1783696627028344300,3.15234423828125,0.00414243945851922,0.2925758361816406,0.3436391055583954
1783696627038307300,3.162307373046875,-0.004259252920746803,0.17714190483093262,0.3702218234539032
1783696627048270300,3.172270263671875,-0.015818970277905464,0.08537095785140991,0.41654646396636963
1783696627058233300,3.1822333984375,-0.04034453257918358,-0.031516700983047485,0.500424861907959
1783696627068196400,3.1921962890625,-0.06940307468175888,-0.19793257117271423,0.6335405707359314
1783696627078159400,3.202159423828125,-0.10333461314439774,-0.401969313621521,0.8154189586639404
1783696627088123400,3.212123291015625,-0.14191582798957825,-0.5525511503219604,1.0302058458328247
1783696627098086400,3.22208642578125,-0.17724810540676117,-0.6470848321914673,1.217651605606079
1783696627108049400,3.23204931640625,-0.19785670936107635,-0.7341212034225464,1.3557745218276978
1783696627118012400,3.242012451171875,-0.2323041558265686,-0.9123855233192444,1.4311977624893188
1783696627127975400,3.251975341796875,-0.269189715385437,-1.0289784669876099,1.5186543464660645
1783696627137938200,3.261938232421875,-0.3093886375427246,-0.9228880405426025,1.6400787830352783
1783696627147901200,3.271901123046875,-0.31670406460762024,-0.7073187232017517,1.7486425638198853
1783696627157864400,3.281864501953125,-0.23168277740478516,-0.4179880917072296,1.8364976644515991
1783696627167828200,3.291828125,-0.11752399802207947,0.00796533189713955,1.892596960067749
1783696627177791200,3.301791259765625,-0.021572809666395187,0.444847971200943,1.8507962226867676
1783696627187754500,3.31175439453125,0.10220798850059509,0.6235122680664062,1.6560347080230713
1783696627197717500,3.321717529296875,0.19407524168491364,0.17073696851730347,1.3083105087280273
1783696627207680500,3.331680419921875,0.1850268840789795,-0.7880955338478088,0.9791062474250793
1783696627217643300,3.341643310546875,0.09295595437288284,-1.284171223640442,0.8838869333267212
1783696627227606300,3.351606201171875,-0.04805096611380577,-0.9719589948654175,0.9715965390205383
1783696627237569300,3.3615693359375,-0.21941010653972626,-0.20362816751003265,1.0633728504180908
1783696627247532300,3.3715322265625,-0.45203110575675964,0.605197012424469,0.9648230671882629
1783696627257496300,3.381496337890625,-0.5972576141357422,1.2995084524154663,0.5934455990791321
1783696627267459300,3.391459228515625,-0.5909150242805481,1.4484177827835083,-0.031668879091739655
1783696627277422300,3.40142236328125,-0.6085568070411682,0.9684838652610779,-0.7019919157028198
1783696627287385300,3.41138525390625,-0.7125540375709534,0.4046569764614105,-1.1414999961853027
1783696627297348400,3.421348388671875,-0.7470351457595825,0.30577072501182556,-1.2823247909545898
1783696627307311400,3.431311279296875,-0.6694380640983582,0.551082193851471,-1.3383002281188965
1783696627317274400,3.4412744140625,-0.5591541528701782,0.6870309710502625,-1.5270884037017822
1783696627327237400,3.4512373046875,-0.5080534219741821,0.6427015662193298,-1.8267855644226074
1783696627337201400,3.461201416015625,-0.5757365822792053,0.47778382897377014,-2.0838825702667236
1783696627347164400,3.471164306640625,-0.6875185370445251,0.30301231145858765,-2.123440742492676
1783696627357127400,3.48112744140625,-0.750647783279419,0.12567651271820068,-1.880378246307373
1783696627367090400,3.49109033203125,-0.8127173185348511,-0.15552639961242676,-1.404555320739746
1783696627377053200,3.50105322265625,-0.8948807716369629,-0.5694596767425537,-0.8298040628433228
1783696627387016200,3.51101611328125,-0.9923572540283203,-1.080602765083313,-0.3094000220298767
1783696627396979500,3.5209794921875,-1.074719786643982,-1.5501973628997803,0.03321300446987152
1783696627406942500,3.5309423828125,-1.0959415435791016,-1.8281831741333008,0.1387021392583847
1783696627416906200,3.54090625,-1.0291213989257812,-1.8489537239074707,0.038042809814214706
1783696627426869500,3.550869384765625,-0.9023306965827942,-1.613959550857544,-0.21968859434127808
1783696627436832500,3.56083251953125,-0.7467433214187622,-1.1308739185333252,-0.5533669590950012
1783696627446795500,3.57079541015625,-0.6066836714744568,-0.5325266718864441,-0.8936893939971924
1783696627456758300,3.58075830078125,-0.5090569853782654,0.01888362318277359,-1.164838433265686
1783696627466721300,3.59072119140625,-0.44215577840805054,0.4302290678024292,-1.2992154359817505
1783696627476684300,3.600684326171875,-0.38236379623413086,0.7022554278373718,-1.2686575651168823
1783696627486647300,3.610647216796875,-0.3122824430465698,0.8967847228050232,-1.018450379371643
1783696627496610300,3.6206103515625,-0.20871946215629578,1.0563923120498657,-0.5589021444320679
1783696627506574300,3.63057421875,-0.0919656902551651,1.0455071926116943,-0.032304923981428146
1783696627516537300,3.640537353515625,0.0024719408247619867,0.787167489528656,0.42164677381515503
1783696627526500400,3.650500244140625,0.055913858115673065,0.2808353006839752,0.7348901629447937
1783696627536463400,3.66046337890625,0.04298675060272217,-0.2726615071296692,0.9263503551483154
1783696627546426400,3.67042626953125,-0.03534107655286789,-0.7257413864135742,1.0348275899887085
1783696627556389400,3.680389404296875,-0.13460823893547058,-1.0471214056015015,1.0873353481292725
1783696627566352400,3.690352294921875,-0.20847447216510773,-1.1603848934173584,1.1043747663497925
1783696627576315400,3.7003154296875,-0.2696307599544525,-1.1406934261322021,1.0713704824447632
1783696627586278400,3.7102783203125,-0.32409265637397766,-1.1454477310180664,0.9876687526702881
1783696627596242400,3.720242431640625,-0.35856616497039795,-1.1427394151687622,0.9096323847770691
1783696627606205400,3.730205322265625,-0.3881610929965973,-1.063920497894287,0.8725108504295349
1783696627616168200,3.740168212890625,-0.405018150806427,-0.9562141299247742,0.8644090890884399
1783696627626131200,3.750131103515625,-0.38457730412483215,-0.8474498391151428,0.8519486784934998
1783696627636094200,3.76009423828125,-0.3316251337528229,-0.7153554558753967,0.8272410035133362
1783696627646057500,3.770057373046875,-0.270379900932312,-0.641593873500824,0.7869753241539001
1783696627656020500,3.7800205078125,-0.1953430026769638,-0.5893564224243164,0.7311672568321228
1783696627665983500,3.7899833984375,-0.0807192251086235,-0.5401172041893005,0.6386203169822693
1783696627675947500,3.799947509765625,0.01751268468797207,-0.6129899024963379,0.514424741268158
1783696627685910500,3.80991064453125,-0.03270334750413895,-0.7870373129844666,0.369214802980423
1783696627695873300,3.819873291015625,-0.20870545506477356,-0.913731038570404,0.1592535823583603
1783696627705836300,3.829836181640625,-0.3469139337539673,-0.8361595273017883,-0.1316285878419876
1783696627715799300,3.83979931640625,-0.4576900601387024,-0.6474652886390686,-0.4243480861186981
1783696627725762300,3.84976220703125,-0.5522895455360413,-0.3706832230091095,-0.6147624850273132
1783696627735725300,3.859725341796875,-0.5467894077301025,-0.07261758297681808,-0.6498516798019409
1783696627745688300,3.869688232421875,-0.43494752049446106,-0.0281252171844244,-0.572302520275116
1783696627755651600,3.879651611328125,-0.31404539942741394,-0.2605714201927185,-0.49977341294288635
1783696627765615400,3.889615478515625,-0.19363775849342346,-0.614411473274231,-0.5600076913833618
1783696627775578400,3.899578369140625,-0.03682602941989899,-0.9755696654319763,-0.7577506303787231
1783696627785541400,3.909541259765625,0.12086000293493271,-1.2316768169403076,-0.9768334627151489
1783696627795504400,3.91950439453125,0.21520528197288513,-1.3901728391647339,-1.1617705821990967
1783696627805467400,3.92946728515625,0.2080184668302536,-1.4981013536453247,-1.2946569919586182
1783696627815430400,3.939430419921875,0.14367994666099548,-1.408002257347107,-1.312566876411438
1783696627825393200,3.94939306640625,0.05603265389800072,-1.118033766746521,-1.2111390829086304
1783696627835356200,3.959356201171875,-0.03774523735046387,-0.805026650428772,-1.0549761056900024
1783696627845320200,3.9693203125,-0.11182612180709839,-0.5766220092773438,-0.9080585241317749
1783696627855283200,3.979283203125,-0.15569166839122772,-0.4499952793121338,-0.835508406162262
1783696627865246200,3.98924609375,-0.17357158660888672,-0.38278189301490784,-0.8412387371063232
1783696627875209200,3.999209228515625,-0.18644364178180695,-0.3022511899471283,-0.8617704510688782
1783696627885172200,4.009172119140625,-0.20269878208637238,-0.1642589569091797,-0.8446500301361084
1783696627895135200,4.01913525390625,-0.22655820846557617,0.01474714744836092,-0.8031784892082214
1783696627905098200,4.02909814453125,-0.26220062375068665,0.18753916025161743,-0.7299814820289612
1783696627915061200,4.039061279296875,-0.315936803817749,0.34877830743789673,-0.6246911883354187
1783696627925025300,4.049025390625,-0.38414087891578674,0.4865444302558899,-0.5000022649765015
1783696627934988300,4.05898828125,-0.4545964002609253,0.5696307420730591,-0.346271812915802
1783696627944951300,4.068951416015625,-0.5172009468078613,0.5969920754432678,-0.17569848895072937
1783696627954914300,4.078914306640625,-0.5414490103721619,0.53078293800354,-0.00933792907744646
1783696627964877000,4.088876953125,-0.5259273052215576,0.3481299877166748,0.15271516144275665
1783696627974840000,4.098840087890625,-0.48139625787734985,0.18026798963546753,0.34224414825439453
1783696627984803000,4.108802978515625,-0.4195510149002075,0.08763659000396729,0.5569194555282593
1783696627994766300,4.118766357421875,-0.350070059299469,0.04101875424385071,0.766027569770813
1783696628004729300,4.128729248046875,-0.2780568599700928,-0.007623085752129555,0.9336687922477722
1783696628014693400,4.138693359375,-0.22857609391212463,-0.05653930827975273,1.0379297733306885
1783696628024656400,4.148656494140625,-0.19954071938991547,-0.08458185940980911,1.0845502614974976
1783696628034619400,4.158619384765625,-0.19577302038669586,-0.08665669709444046,1.083303451538086
1783696628044582100,4.16858203125,-0.22515460848808289,-0.03731312230229378,1.0613124370574951
1783696628054545200,4.178545166015625,-0.27048683166503906,0.055690426379442215,1.0383527278900146
1783696628064508200,4.188508056640625,-0.32048264145851135,0.11986222118139267,1.0179656744003296
1783696628074471200,4.19847119140625,-0.3803171217441559,0.0810837522149086,0.9984995722770691
1783696628084434200,4.20843408203125,-0.4189411997795105,-0.08787517994642258,0.977123498916626
1783696628094397200,4.218397216796875,-0.38669583201408386,-0.27128326892852783,0.9963882565498352
1783696628104361200,4.228361328125,-0.2881397008895874,-0.3651652932167053,1.0733016729354858
1783696628114324200,4.23832421875,-0.1993466019630432,-0.22794698178768158,1.181613564491272
1783696628124287200,4.248287353515625,-0.14199356734752655,0.0355464406311512,1.2447693347930908
1783696628134250200,4.258250244140625,-0.10583750158548355,0.21518965065479279,1.2081362009048462
1783696628144213200,4.268213134765625,-0.13999706506729126,0.16241244971752167,1.0672813653945923
1783696628154176300,4.27817626953125,-0.1981283277273178,-0.09921004623174667,0.8891377449035645
1783696628164139300,4.28813916015625,-0.2563588619232178,-0.49112826585769653,0.7378690838813782
1783696628174102300,4.298102294921875,-0.26545146107673645,-0.7625275254249573,0.6521030068397522
1783696628184066300,4.30806640625,-0.2571386694908142,-0.8456852436065674,0.6799913644790649
1783696628194029300,4.318029296875,-0.33983656764030457,-0.7507103681564331,0.7918931245803833
1783696628203992000,4.327991943359375,-0.5249478220939636,-0.5160109996795654,0.9186323881149292
1783696628213955000,4.337955078125,-0.6681768894195557,-0.3988725244998932,0.8947402834892273
1783696628223918000,4.34791796875,-0.629600465297699,-0.5996724367141724,0.563552737236023
1783696628233881300,4.35788134765625,-0.4547201097011566,-0.8629295825958252,-0.0038922838866710663
1783696628243844400,4.36784423828125,-0.2439570128917694,-0.8706327676773071,-0.5827122330665588
1783696628253807400,4.377807373046875,-0.048801932483911514,-0.6119723320007324,-1.012619972229004
1783696628263770400,4.387770263671875,0.12838882207870483,-0.2781991958618164,-1.2519153356552124
1783696628273734400,4.397734375,0.2690621018409729,-0.14456485211849213,-1.346851110458374
1783696628283697200,4.407697265625,0.3629603683948517,-0.24798232316970825,-1.37333083152771
1783696628293660200,4.41766015625,0.39748167991638184,-0.46776020526885986,-1.3715717792510986
1783696628303623200,4.427623046875,0.38749828934669495,-0.6403610110282898,-1.3520090579986572
1783696628313586200,4.437586181640625,0.3535083830356598,-0.7351122498512268,-1.3224666118621826
1783696628323549200,4.447549072265625,0.29682379961013794,-0.8299404978752136,-1.320643424987793
1783696628333512200,4.45751220703125,0.24531976878643036,-0.8991357088088989,-1.353912353515625
1783696628343475500,4.467475341796875,0.1864228993654251,-0.922068178653717,-1.4110698699951172
1783696628353439200,4.477439208984375,0.1325770765542984,-0.9452143907546997,-1.504583716392517
1783696628363402200,4.48740234375,0.08424042910337448,-0.9468844532966614,-1.630353331565857
1783696628373365200,4.497365234375,0.02204965241253376,-0.8632305860519409,-1.7447643280029297
1783696628383328300,4.507328369140625,-0.06158079579472542,-0.6417341232299805,-1.7607007026672363
1783696628393291300,4.517291259765625,-0.16571271419525146,-0.3083534240722656,-1.6219847202301025
1783696628403254300,4.527254150390625,-0.26845690608024597,0.045609697699546814,-1.3353608846664429
1783696628413217300,4.53721728515625,-0.35674506425857544,0.2631138861179352,-0.9417139291763306
1783696628423180300,4.54718017578125,-0.41261711716651917,0.31354644894599915,-0.4858472943305969
1783696628433143000,4.55714306640625,-0.404164582490921,0.25303539633750916,-0.01031947135925293
1783696628443107000,4.567107177734375,-0.3410750925540924,0.14693480730056763,0.42104655504226685
1783696628453070000,4.577070068359375,-0.24312306940555573,0.06723299622535706,0.7558671832084656
1783696628463033000,4.587033203125,-0.1380286067724228,0.0453503280878067,0.9594134092330933
1783696628472996400,4.596996337890625,-0.06732620298862457,0.08962991088628769,1.0379621982574463
1783696628482959400,4.60695947265625,-0.049586355686187744,0.21236754953861237,1.00145423412323
1783696628492922400,4.61692236328125,-0.09106886386871338,0.3976397216320038,0.8540820479393005
1783696628502885400,4.626885498046875,-0.17033492028713226,0.5834188461303711,0.6168607473373413
1783696628512848100,4.63684814453125,-0.2728767991065979,0.6933833360671997,0.3615478277206421
1783696628522811100,4.64681103515625,-0.36203837394714355,0.6320174932479858,0.1588706225156784
1783696628532775200,4.656775146484375,-0.42006924748420715,0.4293685555458069,0.08691022545099258
1783696628542738200,4.66673828125,-0.41414451599121094,0.25694724917411804,0.1708677113056183
1783696628552701200,4.676701171875,-0.3791740834712982,0.09385664016008377,0.3562276363372803
1783696628562664200,4.686664306640625,-0.35998788475990295,-0.06151936575770378,0.563733696937561
1783696628572627200,4.696627197265625,-0.38553595542907715,-0.16073663532733917,0.7309684753417969
1783696628582590500,4.706590576171875,-0.43430963158607483,-0.22931969165802002,0.8700366616249084
1783696628592553200,4.71655322265625,-0.4673782289028168,-0.24706995487213135,1.003920555114746
1783696628602516200,4.72651611328125,-0.4810122549533844,-0.24619324505329132,1.1245529651641846
1783696628612480300,4.736480224609375,-0.4190305769443512,-0.24924489855766296,1.2264052629470825
1783696628622443300,4.746443359375,-0.2881458103656769,-0.23775814473628998,1.2909598350524902
1783696628632406300,4.75640625,-0.14859212934970856,-0.24976080656051636,1.3009276390075684
1783696628642369300,4.766369384765625,-0.04399515315890312,-0.25159600377082825,1.1918061971664429
1783696628652332300,4.776332275390625,-0.027632087469100952,-0.25155773758888245,0.8809874653816223
1783696628662295300,4.78629541015625,-0.06870255619287491,-0.14633356034755707,0.4457710087299347
1783696628672258000,4.796258056640625,-0.15501514077186584,-0.0016790934605523944,0.07489635795354843
1783696628682221000,4.806220947265625,-0.2827105224132538,0.07690999656915665,-0.08906088769435883
1783696628692184300,4.816184326171875,-0.3607977628707886,0.13950558006763458,-0.06258240342140198
1783696628702148000,4.826148193359375,-0.2887539267539978,0.01711949147284031,0.00019096850883215666
1783696628712111400,4.836111328125,-0.13626305758953094,-0.3320143520832062,0.0036820052191615105
1783696628722074400,4.846074462890625,-0.040004704147577286,-0.7446927428245544,-0.06758472323417664
1783696628732037400,4.856037353515625,0.012533285655081272,-1.0012638568878174,-0.14798997342586517
1783696628742000400,4.86600048828125,0.024090873077511787,-1.0164079666137695,-0.2118680328130722
1783696628751963100,4.875963134765625,0.009915045462548733,-0.9608644247055054,-0.316691130399704
1783696628761926100,4.885926025390625,0.02581518329679966,-0.8832665681838989,-0.4804065525531769
1783696628771889200,4.89588916015625,0.056942183524370193,-0.7666403651237488,-0.6622333526611328
1783696628781852200,4.90585205078125,0.03825424984097481,-0.5898773074150085,-0.8210222125053406
1783696628791816200,4.915816162109375,-0.03631990775465965,-0.2731912434101105,-0.9792866706848145
1783696628801779200,4.925779296875,-0.128876194357872,0.1522519290447235,-1.2215781211853027
1783696628811742200,4.9357421875,-0.21230369806289673,0.4296781122684479,-1.5493100881576538
1783696628821704400,4.945704345703125,-0.2973126173019409,0.20945173501968384,-1.8352696895599365
1783696628831667500,4.95566748046875,-0.3383735716342926,-0.21467098593711853,-1.8689725399017334
1783696628841630500,4.96563037109375,-0.3840968608856201,-0.47388872504234314,-1.6408921480178833
1783696628851593500,4.975593505859375,-0.4270443320274353,-0.6598647236824036,-1.2953622341156006
1783696628861556500,4.985556396484375,-0.46559199690818787,-0.7563555836677551,-0.9447507858276367
1783696628871520500,4.9955205078125,-0.5262663960456848,-0.7266431450843811,-0.6346736550331116
1783696628881483500,5.0054833984375,-0.5946846008300781,-0.5864015817642212,-0.39448580145835876
1783696628891446500,5.015446533203125,-0.6423338055610657,-0.40905651450157166,-0.22843271493911743
1783696628901409300,5.0254091796875,-0.6599341034889221,-0.25980737805366516,-0.1085425391793251
1783696628911372500,5.03537255859375,-0.6480910181999207,-0.11582859605550766,0.005041284486651421
1783696628921335600,5.04533544921875,-0.62311190366745,0.07979043573141098,0.11218265444040298
1783696628931298600,5.055298583984375,-0.5707123279571533,0.29684022068977356,0.19636784493923187
1783696628941261600,5.065261474609375,-0.4791262149810791,0.4472891092300415,0.2603242099285126
1783696628951224600,5.075224609375,-0.3779577612876892,0.4250505864620209,0.29739975929260254
1783696628961188600,5.085188720703125,-0.2994703948497772,0.20992285013198853,0.29980725049972534
1783696628971151600,5.095151611328125,-0.2643463909626007,-0.10534719377756119,0.2825971841812134
1783696628981114400,5.1051142578125,-0.28612011671066284,-0.3794274926185608,0.2734513580799103
1783696628991077400,5.115077392578125,-0.35849183797836304,-0.45981574058532715,0.30153989791870117
1783696629001040400,5.125040283203125,-0.48222628235816956,-0.3767451047897339,0.353595107793808
1783696629011003400,5.13500341796875,-0.6393956542015076,-0.28584012389183044,0.4122828245162964
1783696629020966700,5.144966552734375,-0.7770030498504639,-0.19152241945266724,0.5106320381164551
1783696629030929700,5.1549296875,-0.8822886943817139,-0.10790369659662247,0.6639792919158936
1783696629040892700,5.164892578125,-0.9426846504211426,-0.06393810361623764,0.8339606523513794
1783696629050856700,5.174856689453125,-0.975404679775238,-0.15610629320144653,0.9630321264266968
1783696629060819500,5.1848193359375,-0.992439329624176,-0.3562604486942291,1.0678939819335938
1783696629070782500,5.194782470703125,-0.999314546585083,-0.45831745862960815,1.2027593851089478
1783696629080745500,5.204745361328125,-1.0121920108795166,-0.23028987646102905,1.3520381450653076
1783696629090708500,5.21470849609375,-1.0070185661315918,0.26461711525917053,1.4478979110717773
1783696629100671500,5.22467138671875,-0.9710054397583008,0.7716278433799744,1.4366027116775513
1783696629110634500,5.234634521484375,-0.8712950944900513,1.1122400760650635,1.3764384984970093
1783696629120597500,5.244597412109375,-0.7427070140838623,1.1735976934432983,1.3448904752731323
1783696629130561500,5.2545615234375,-0.6501373648643494,0.8185948729515076,1.346011757850647
1783696629140524300,5.264524169921875,-0.6567822098731995,0.08139539510011673,1.275709629058838
1783696629150487300,5.2744873046875,-0.6998935341835022,-0.43909063935279846,1.040367841720581
1783696629160450600,5.284450439453125,-0.7063548564910889,-0.5987013578414917,0.7180809378623962
1783696629170413600,5.29441357421875,-0.8333662748336792,-0.578644335269928,0.3723796010017395
1783696629180376600,5.30437646484375,-0.8884276151657104,-0.2406308948993683,0.05601871386170387
1783696629192207600,5.31620751953125,-0.6860406994819641,-0.2363433539867401,-0.41326338052749634
1783696629202170400,5.32617041015625,-0.48764321208000183,-0.6612311005592346,-0.9096834659576416
1783696629212133400,5.33613330078125,-0.3203197121620178,-1.0589896440505981,-1.386967658996582
1783696629222097400,5.346097412109375,-0.1447424590587616,-1.3864996433258057,-1.7826433181762695
1783696629232060400,5.356060302734375,0.047859225422143936,-1.4868552684783936,-1.9763842821121216
1783696629242023400,5.3660234375,0.16610100865364075,-1.2153335809707642,-1.9335083961486816
1783696629251986400,5.375986328125,0.13450340926647186,-0.749341607093811,-1.7714062929153442
1783696629261949400,5.385949462890625,0.012006973847746849,-0.5813841223716736,-1.6357097625732422
1783696629271912400,5.395912353515625,-0.12303020805120468,-0.8920674324035645,-1.4702342748641968
1783696629281875500,5.40587548828125,-0.21023669838905334,-1.466549277305603,-1.171083927154541
1783696629291838500,5.41583837890625,-0.2075626105070114,-2.024470806121826,-0.7013113498687744
1783696629301801500,5.425801513671875,-0.1582523137331009,-2.467846155166626,-0.17101381719112396
1783696629311765500,5.435765625,-0.07287296652793884,-2.766996383666992,0.27325552701950073
1783696629321728500,5.445728515625,0.000977806281298399,-2.848470449447632,0.520886242389679
1783696629331691500,5.45569140625,0.041110046207904816,-2.678466320037842,0.5721555352210999
1783696629341654500,5.465654541015625,0.037051066756248474,-2.2624220848083496,0.4846266210079193
1783696629351617500,5.475617431640625,0.009568043984472752,-1.62320876121521,0.29860109090805054
1783696629361580300,5.485580322265625,-0.03086463175714016,-0.8377871513366699,0.08199093490839005
1783696629371543300,5.495543212890625,-0.12160304933786392,0.0010609496384859085,-0.12723444402217865
1783696629381506600,5.505506591796875,-0.31955090165138245,0.6239852905273438,-0.32012632489204407
1783696629391469600,5.515469482421875,-0.5548555254936218,1.0019227266311646,-0.5076464414596558
1783696629401433300,5.525433349609375,-0.7690204381942749,1.2303155660629272,-0.7016981840133667
1783696629411396600,5.535396728515625,-0.9454130530357361,1.2752175331115723,-0.8380634784698486
1783696629421359600,5.545359619140625,-1.0591516494750977,1.1434154510498047,-0.8443365693092346
1783696629431322600,5.555322509765625,-1.1133235692977905,0.9109974503517151,-0.6864281892776489
1783696629441285400,5.565285400390625,-1.1232024431228638,0.6738170385360718,-0.40900132060050964
1783696629451248400,5.575248291015625,-1.09054434299469,0.442263662815094,-0.08894529938697815
1783696629461211400,5.58521142578125,-1.0481274127960205,0.20438045263290405,0.19988906383514404
1783696629471174400,5.59517431640625,-1.0013452768325806,-0.012388328090310097,0.4332512319087982
1783696629481137400,5.605137451171875,-0.9794694781303406,-0.22433115541934967,0.6152613162994385
1783696629491101400,5.615101318359375,-0.9907956123352051,-0.4396064579486847,0.7365750074386597
1783696629501687600,5.6256875,-1.005455732345581,-0.6717557907104492,0.7963610887527466
1783696629511650600,5.635650634765625,-1.0180433988571167,-0.8092033267021179,0.8311953544616699
1783696629521613600,5.645613525390625,-1.0251606702804565,-0.8173443078994751,0.8539813756942749
1783696629531576300,5.655576416015625,-1.0288505554199219,-0.7748305797576904,0.8532769083976746
1783696629541539300,5.665539306640625,-1.0529804229736328,-0.6788284182548523,0.8204926252365112
1783696629551502600,5.675502685546875,-1.0934443473815918,-0.5336370468139648,0.7265431880950928
1783696629561465600,5.685465576171875,-1.1167267560958862,-0.2589423954486847,0.5999016165733337
1783696629571428600,5.6954287109375,-1.0898993015289307,0.05857345834374428,0.4905381202697754
1783696629581391600,5.7053916015625,-1.0077152252197266,0.3224453330039978,0.4437114894390106
1783696629591355600,5.715355712890625,-0.8510478138923645,0.4715304374694824,0.4469814896583557
1783696629601318700,5.725318603515625,-0.6299000382423401,0.44984617829322815,0.4501173794269562
1783696629611281400,5.735281494140625,-0.4452172815799713,0.21191789209842682,0.35107263922691345
1783696629621244400,5.745244384765625,-0.324638694524765,-0.23775579035282135,0.14217932522296906
1783696629631207400,5.75520751953125,-0.2274690419435501,-0.6244306564331055,-0.07705597579479218
1783696629641170400,5.76517041015625,-0.0760776475071907,-0.5587797164916992,-0.16700716316699982
1783696629651133400,5.775133544921875,0.09719335287809372,0.03073812462389469,-0.1031997799873352
1783696629661096400,5.785096435546875,0.21387362480163574,0.8559795618057251,-0.02031794562935829
1783696629671059500,5.7950595703125,0.2763749957084656,1.5722401142120361,-0.1258225440979004
1783696629681023500,5.8050234375,0.38612812757492065,1.9073193073272705,-0.520211398601532
1783696629690986500,5.814986572265625,0.5208249688148499,1.645471215248108,-1.0493175983428955
1783696629700949500,5.824949462890625,0.5642691254615784,0.9551159143447876,-1.438105821609497
1783696629710912500,5.83491259765625,0.5334445834159851,0.3778044879436493,-1.5283104181289673
1783696629720875500,5.84487548828125,0.5026541948318481,0.21155986189842224,-1.381492018699646
1783696629730838500,5.854838623046875,0.5251559615135193,0.34081000089645386,-1.1498817205429077
1783696629740801500,5.864801513671875,0.5879825949668884,0.41995969414711,-0.9793323874473572
1783696629750764300,5.874764404296875,0.6863961815834045,0.2081230878829956,-0.8238416910171509
1783696629760728600,5.884728515625,0.7664097547531128,-0.2483469843864441,-0.5465176701545715
1783696629770691300,5.89469140625,0.8068802356719971,-0.7966483235359192,-0.14061258733272552
1783696629780654300,5.904654296875,0.783195436000824,-1.3274503946304321,0.26009753346443176
1783696629790617300,5.914617431640625,0.6968235969543457,-1.76457941532135,0.5305678844451904
1783696629800580600,5.92458056640625,0.6009609699249268,-1.931372880935669,0.6130878329277039
1783696629810543600,5.934543701171875,0.515148401260376,-1.7628134489059448,0.49810266494750977
1783696629820506600,5.944506591796875,0.4529414474964142,-1.2220537662506104,0.26572588086128235
1783696629830470100,5.95447021484375,0.40703997015953064,-0.41417694091796875,0.010058066807687283
1783696629840433000,5.964432861328125,0.3676646053791046,0.4459812045097351,-0.1979428082704544
1783696629850397000,5.97439697265625,0.33595287799835205,1.1654319763183594,-0.2888169586658478
1783696629860360000,5.98435986328125,0.30440425872802734,1.6287717819213867,-0.2638751268386841
1783696629870323000,5.994322998046875,0.2639946937561035,1.8126035928726196,-0.13662263751029968
1783696629880286000,6.004285888671875,0.1948813945055008,1.7802163362503052,0.028217174112796783
1783696629890249000,6.0142490234375,0.11889267712831497,1.578101634979248,0.18175789713859558
1783696629900212000,6.0242119140625,0.060780905187129974,1.264502763748169,0.31240007281303406
1783696629910175000,6.034175048828125,0.01767495647072792,0.9489206075668335,0.4302845299243927
1783696629920138000,6.044137939453125,-0.010061333887279034,0.7409296035766602,0.5216256976127625
1783696629930101800,6.054101806640625,-0.020179927349090576,0.6752374768257141,0.5883024334907532
1783696629940065000,6.06406494140625,-0.014658927917480469,0.698549211025238,0.6484605669975281
1783696629950028000,6.074028076171875,0.03936949744820595,0.7205591201782227,0.6707550883293152
1783696629959991000,6.083990966796875,0.12700481712818146,0.7610405087471008,0.6669883131980896
1783696629969954000,6.0939541015625,0.200462207198143,0.7578139901161194,0.6613038182258606
1783696629979917000,6.1039169921875,0.23758427798748016,0.7357326149940491,0.6812005639076233
1783696629989880000,6.113880126953125,0.2334626019001007,0.6914948225021362,0.7276929020881653
1783696629999842800,6.1238427734375,0.18824344873428345,0.6352355480194092,0.8000166416168213
1783696630009805800,6.133805908203125,0.12108712643384933,0.5816054344177246,0.8835474848747253
1783696630019769900,6.143769775390625,0.03573042154312134,0.5612977743148804,0.9398341774940491
1783696630029732900,6.15373291015625,-0.06824438273906708,0.5349881052970886,0.9458299279212952
1783696630039696000,6.16369580078125,-0.1600416749715805,0.48755139112472534,0.9306957721710205
1783696630049659100,6.1736591796875,-0.21743489801883698,0.4127064049243927,0.9425991177558899
1783696630059622100,6.1836220703125,-0.2012106478214264,0.31445199251174927,0.9820107221603394
1783696630069585200,6.193585205078125,-0.08190899342298508,0.2668037414550781,1.0415692329406738
1783696630079548000,6.2035478515625,0.1006925106048584,0.2607671320438385,1.0751152038574219
1783696630089511000,6.213510986328125,0.2644067704677582,0.05048518255352974,1.0257407426834106
1783696630099475000,6.223474853515625,0.35780224204063416,-0.5999026894569397,0.8284633159637451
1783696630109438000,6.23343798828125,0.33625882863998413,-1.5271183252334595,0.5755656361579895
1783696630119401000,6.24340087890625,0.20118649303913116,-2.16217303276062,0.494713693857193
1783696630129364000,6.253364013671875,0.07315970957279205,-2.065114736557007,0.5888028144836426
1783696630139327000,6.263326904296875,-0.08476733416318893,-1.4530613422393799,0.6948373913764954
1783696630149290000,6.2732900390625,-0.2590074837207794,-0.657544732093811,0.6806153059005737
1783696630159253000,6.2832529296875,-0.3889537751674652,-0.026232801377773285,0.4571523666381836
1783696630169216000,6.293216064453125,-0.34683123230934143,0.4234486520290375,0.0312589555978775
1783696630179180000,6.303179931640625,-0.14883214235305786,0.6214930415153503,-0.5893006920814514
1783696630189143000,6.31314306640625,0.040289707481861115,0.5048572421073914,-1.2912483215332031
1783696630199106000,6.32310595703125,0.12922729551792145,0.41283172369003296,-1.7971833944320679
1783696630209069000,6.333069091796875,0.18438345193862915,0.6394462585449219,-1.9329928159713745
1783696630219032000,6.343031982421875,0.3052304983139038,0.9835351705551147,-1.7407466173171997
1783696630228995000,6.3529951171875,0.5084854364395142,1.1169742345809937,-1.3565478324890137
1783696630238957800,6.362957763671875,0.7474026679992676,0.9942371845245361,-0.8979749083518982
1783696630248920800,6.3729208984375,0.9289462566375732,0.6726362109184265,-0.45190247893333435
1783696630258883800,6.3828837890625,1.0074043273925781,0.27662599086761475,-0.11823156476020813
1783696630268847900,6.392847900390625,0.995776355266571,-0.07626986503601074,-0.018504880368709564
1783696630278811000,6.402810791015625,0.9352917075157166,-0.33735790848731995,-0.1835217922925949
1783696630288774000,6.41277392578125,0.8560909032821655,-0.5014157891273499,-0.5751712918281555
1783696630298737200,6.422737060546875,0.7580463290214539,-0.56886887550354,-1.0816304683685303
1783696630308700200,6.4327001953125,0.6606752276420593,-0.5148522853851318,-1.5280158519744873
1783696630318663000,6.442662841796875,0.5718369483947754,-0.2943646311759949,-1.7623406648635864
1783696630328626000,6.4526259765625,0.5095149278640747,0.024838371202349663,-1.72252357006073
1783696630338589000,6.4625888671875,0.47844380140304565,0.32439711689949036,-1.4540431499481201
1783696630348553000,6.472552978515625,0.4566931128501892,0.4829844534397125,-1.0187082290649414
1783696630358516000,6.482515869140625,0.40278223156929016,0.5384395122528076,-0.49987006187438965
1783696630368479000,6.49247900390625,0.3455086648464203,0.4882112443447113,0.03335796296596527
1783696630378442000,6.50244189453125,0.30726566910743713,0.37535926699638367,0.5063002109527588
1783696630388405000,6.512405029296875,0.3131173849105835,0.2113019973039627,0.8510510325431824
1783696630398368000,6.522367919921875,0.36122336983680725,0.11862532049417496,1.0650410652160645
1783696630408331000,6.5323310546875,0.43678703904151917,0.16300331056118011,1.1725996732711792
1783696630418294000,6.5422939453125,0.5358113646507263,0.3451786935329437,1.19676673412323
1783696630428257000,6.552257080078125,0.6249467134475708,0.5841664671897888,1.1557259559631348
1783696630438221000,6.562220947265625,0.6646549701690674,0.8374261856079102,1.0807281732559204
1783696630448184000,6.57218408203125,0.6495631337165833,1.0368212461471558,0.9646055698394775
1783696630458147000,6.58214697265625,0.6075727939605713,1.1061822175979614,0.8131211996078491
1783696630468110000,6.592110107421875,0.547834575176239,1.031079649925232,0.6461734175682068
1783696630478072800,6.60207275390625,0.4863656461238861,0.8840192556381226,0.5183483362197876
1783696630488035800,6.612035888671875,0.42142170667648315,0.6867011785507202,0.4608658254146576
1783696630497998800,6.621998779296875,0.3562147319316864,0.4456659257411957,0.48205792903900146
1783696630507962000,6.631962158203125,0.29682955145835876,0.24064907431602478,0.564911425113678
1783696630517926000,6.64192578125,0.2611043155193329,0.09995133429765701,0.6798907518386841
1783696630527889000,6.651888916015625,0.25955620408058167,0.055816955864429474,0.8224896192550659
1783696630537852200,6.66185205078125,0.2661464512348175,0.07333949208259583,0.9835048317909241
1783696630547815200,6.671815185546875,0.271640419960022,0.013037997297942638,1.1064634323120117
1783696630557778000,6.68177783203125,0.3091001808643341,0.012331993319094181,1.1926380395889282
1783696630567741000,6.691740966796875,0.3623667061328888,0.05598878487944603,1.1743096113204956
1783696630577704000,6.701703857421875,0.4430197477340698,-0.000008704839274287224,0.9946836233139038
1783696630587667000,6.7116669921875,0.5372306108474731,-0.14020086824893951,0.740077555179596
1783696630597630000,6.7216298828125,0.5680974721908569,-0.25920024514198303,0.5054000616073608
1783696630607594000,6.731593994140625,0.5154380202293396,-0.31102263927459717,0.21846604347229004
1783696630617557000,6.741556884765625,0.4771134853363037,-0.06656946986913681,-0.09997931122779846
1783696630627520000,6.75152001953125,0.48545727133750916,0.6001914739608765,-0.29595884680747986
1783696630637483000,6.76148291015625,0.47973892092704773,1.4255706071853638,-0.3794865012168884
1783696630647446000,6.771446044921875,0.5204656720161438,1.9827789068222046,-0.5138393044471741
1783696630657409000,6.781408935546875,0.6451719403266907,1.9714975357055664,-0.7800552845001221
1783696630667372000,6.7913720703125,0.7488948106765747,1.458849549293518,-1.0995228290557861
1783696630677335000,6.8013349609375,0.789444625377655,0.7981343865394592,-1.3189305067062378
1783696630687299000,6.811299072265625,0.809079647064209,0.3094370365142822,-1.350113034248352
1783696630697262000,6.821261962890625,0.8683008551597595,0.040790386497974396,-1.2121660709381104
1783696630707225000,6.83122509765625,0.8956210017204285,-0.08019793033599854,-0.9722873568534851
1783696630717187800,6.841187744140625,0.8305296301841736,-0.09373664110898972,-0.7257044911384583
1783696630727150800,6.85115087890625,0.725662887096405,-0.042974814772605896,-0.5363165140151978
1783696630737113900,6.86111376953125,0.6422739624977112,0.06547389924526215,-0.44012898206710815
1783696630747076900,6.871076904296875,0.6211219429969788,0.2020597755908966,-0.44942450523376465
1783696630757040000,6.8810400390625,0.6537594795227051,0.33240315318107605,-0.5741286277770996
1783696630767003100,6.891003173828125,0.6883161067962646,0.4561006426811218,-0.7867855429649353
1783696630776967200,6.90096728515625,0.6937010288238525,0.5731162428855896,-1.021346092224121
1783696630786930200,6.91093017578125,0.6731021404266357,0.6872555613517761,-1.2089569568634033
1783696630796893000,6.920892822265625,0.6394078135490417,0.7901361584663391,-1.2770408391952515
1783696630806856000,6.93085595703125,0.5703555941581726,0.8435714244842529,-1.1944079399108887
1783696630816819000,6.94081884765625,0.46177420020103455,0.7671525478363037,-0.9494203925132751
1783696630826781700,6.95078173828125,0.34303614497184753,0.7081648111343384,-0.5554612874984741
1783696630836744700,6.96074462890625,0.2335146963596344,0.6994022130966187,-0.06290269643068314
1783696630846707700,6.970707763671875,0.13930830359458923,0.7431787252426147,0.4548051655292511
1783696630856671700,6.980671630859375,0.04292744770646095,0.7857152819633484,0.9235241413116455
1783696630866634800,6.990634765625,-0.03560146316885948,0.7382060289382935,1.3031185865402222
1783696630876597800,7.00059765625,-0.07410065084695816,0.6254429817199707,1.6122404336929321
1783696630886560800,7.010560791015625,-0.08227358013391495,0.4827587902545929,1.876381516456604
1783696630896523800,7.020523681640625,-0.03934448957443237,0.43496012687683105,2.047650098800659
1783696630906486800,7.03048681640625,0.055903490632772446,0.41086721420288086,2.121652841567993
1783696630916449800,7.04044970703125,0.17765283584594727,0.4015562832355499,2.114076614379883
1783696630926412800,7.050412841796875,0.2648019790649414,0.3866805136203766,1.9951894283294678
1783696630936375600,7.06037548828125,0.3336534798145294,0.36879366636276245,1.7669469118118286
1783696630946339800,7.07033984375,0.42253315448760986,0.45305222272872925,1.4800198078155518
1783696630956302600,7.080302490234375,0.5173283219337463,0.6098144054412842,1.1498970985412598
1783696630966265600,7.090265625,0.5943119525909424,0.7258105874061584,0.7642899751663208
1783696630976228600,7.100228515625,0.628786027431488,0.7467910051345825,0.34008410573005676
1783696630986192000,7.11019189453125,0.603503942489624,0.6176859140396118,-0.048849646002054214
1783696630996155000,7.12015478515625,0.493325799703598,0.3510292172431946,-0.3189908564090729
1783696631006118000,7.130117919921875,0.3153262138366699,0.07219918072223663,-0.41655468940734863
1783696631016080600,7.14008056640625,0.14287243783473969,-0.0694117471575737,-0.3613708019256592
1783696631026043600,7.150043701171875,0.07198252528905869,-0.03643164038658142,-0.2367839515209198
1783696631036007700,7.160007568359375,0.1345473676919937,0.1929807811975479,-0.1486130803823471
1783696631045970700,7.169970703125,0.2767607867717743,0.28728339076042175,-0.08824454247951508
1783696631055933700,7.17993359375,0.4424605369567871,0.20957450568675995,-0.05684400722384453
1783696631065896700,7.189896728515625,0.5428103804588318,0.1618022620677948,-0.03335333988070488
1783696631075859700,7.199859619140625,0.5342419743537903,-0.01857897639274597,-0.031050506979227066
1783696631085822700,7.20982275390625,0.4816349446773529,-0.36524927616119385,-0.10122345387935638
1783696631095785700,7.21978564453125,0.4877066910266876,-0.5885819792747498,-0.26317718625068665
1783696631105748700,7.229748779296875,0.5477465987205505,-0.49235260486602783,-0.49031421542167664
1783696631115712800,7.239712646484375,0.5415182709693909,-0.18863771855831146,-0.7183926701545715
1783696631125675800,7.24967578125,0.37833887338638306,0.17548225820064545,-0.84921795129776
1783696631135638800,7.259638671875,0.20639903843402863,0.6601791381835938,-0.7649750113487244
1783696631145601800,7.269601806640625,0.1512489914894104,0.9000760912895203,-0.5702035427093506
1783696631155564800,7.279564697265625,0.2462753802537918,0.5766416192054749,-0.44600439071655273
1783696631165527800,7.28952783203125,0.39627835154533386,-0.12638375163078308,-0.39791327714920044
1783696631175490600,7.299490478515625,0.49151673913002014,-0.7884194850921631,-0.33754366636276245
1783696631185453600,7.30945361328125,0.5447699427604675,-1.0609015226364136,-0.2043493241071701
1783696631195416600,7.31941650390625,0.6001562476158142,-0.8911117315292358,-0.04549575597047806
1783696631205380600,7.329380615234375,0.6161747574806213,-0.4787535071372986,0.014591734856367111
1783696631215343600,7.339343505859375,0.6043093204498291,-0.055732209235429764,-0.10375887155532837
1783696631225306600,7.349306640625,0.5856404304504395,0.3444381356239319,-0.3823494017124176
1783696631235270000,7.359269775390625,0.5678496956825256,0.7005558013916016,-0.7391599416732788
1783696631245233000,7.36923291015625,0.5107653737068176,0.9813195466995239,-1.1045295000076294
1783696631255195600,7.379195556640625,0.4074733555316925,1.1570570468902588,-1.4246028661727905
1783696631265158700,7.38915869140625,0.27782803773880005,1.2166056632995605,-1.673504114151001
1783696631275121700,7.39912158203125,0.14422976970672607,1.0583173036575317,-1.8276708126068115
1783696631285085700,7.409085693359375,0.01976105011999607,0.6828963160514832,-1.8398889303207397
1783696631295048700,7.419048583984375,-0.08779869973659515,0.2623254358768463,-1.6772727966308594
1783696631305011700,7.42901171875,-0.20183998346328735,-0.09808650612831116,-1.371089220046997
1783696631314974700,7.438974609375,-0.28711411356925964,-0.3486987352371216,-0.9884449243545532
1783696631324937700,7.448937744140625,-0.3293262720108032,-0.4715798497200012,-0.5911065936088562
1783696631334900700,7.458900634765625,-0.34482240676879883,-0.5088571310043335,-0.25510329008102417
1783696631344863700,7.46886376953125,-0.3568754494190216,-0.5333351492881775,-0.021479712799191475
1783696631354826800,7.47882666015625,-0.35857534408569336,-0.5605190992355347,0.14458516240119934
1783696631364789800,7.488789794921875,-0.34358566999435425,-0.4258875250816345,0.24064385890960693
1783696631374753800,7.49875390625,-0.2571341097354889,-0.24230436980724335,0.2557234764099121
1783696631384716800,7.508716796875,-0.10685324668884277,-0.029823346063494682,0.21658600866794586
1783696631394679800,7.5186796875,0.01899655908346176,0.2670152485370636,0.2080172896385193
1783696631404642800,7.528642822265625,0.08317030221223831,0.5488906502723694,0.24165035784244537
1783696631414605600,7.53860546875,0.14092840254306793,0.74825519323349,0.2867187559604645
1783696631424568600,7.548568603515625,0.2126789689064026,0.8630682826042175,0.33827143907546997
1783696631434531600,7.558531494140625,0.25370895862579346,0.9258885383605957,0.40954187512397766
1783696631444494800,7.568494873046875,0.24265827238559723,0.9625455737113953,0.5045889019966125
1783696631454457900,7.578457763671875,0.2117576003074646,0.9530783295631409,0.6137662529945374
1783696631464421600,7.588421630859375,0.16816063225269318,0.787129282951355,0.6975712180137634
1783696631474385000,7.598385009765625,0.10422904789447784,0.4435878396034241,0.7413349151611328
1783696631484348000,7.608347900390625,0.01943649724125862,0.14732836186885834,0.7529074549674988
1783696631494310700,7.618310546875,-0.09242132306098938,-0.18475398421287537,0.6926891207695007
1783696631504273700,7.628273681640625,-0.17534862458705902,-0.5501877069473267,0.5744422078132629
1783696631514236700,7.638236572265625,-0.1766117662191391,-0.8327602744102478,0.49312904477119446
1783696631524199700,7.64819970703125,-0.1251934915781021,-0.8266608715057373,0.4719447195529938
1783696631534162700,7.65816259765625,-0.02052913047373295,-0.5158060193061829,0.5408324599266052
1783696631544125700,7.668125732421875,0.06527894735336304,0.008014729246497154,0.579308032989502
1783696631554089700,7.67808984375,0.13295705616474152,0.41120317578315735,0.4850321412086487
1783696631564052700,7.688052734375,0.1899004876613617,0.5194976329803467,0.31074342131614685
1783696631574015700,7.698015625,0.1531456708908081,0.22409291565418243,0.15201768279075623
1783696631583978800,7.707978759765625,-0.02260185405611992,-0.19309639930725098,0.0666331946849823
1783696631593941800,7.717941650390625,-0.21185193955898285,-0.45299482345581055,0.06083469092845917
1783696631603904800,7.72790478515625,-0.3072257339954376,-0.4587475657463074,0.15118633210659027
1783696631613867800,7.73786767578125,-0.31633880734443665,-0.3016524910926819,0.29544657468795776
1783696631623830800,7.747830810546875,-0.23459285497665405,-0.10598006099462509,0.38952121138572693
1783696631633794800,7.757794921875,-0.02516159601509571,0.030956745147705078,0.32287243008613586
1783696631643757800,7.7677578125,0.27777814865112305,-0.07760350406169891,0.0069989836774766445
1783696631653720600,7.777720458984375,0.5635878443717957,-0.40814974904060364,-0.5358235239982605
1783696631663683600,7.78768359375,0.7593967318534851,-0.7308976054191589,-1.12991464138031
1783696631673646600,7.797646484375,0.8417859077453613,-0.8507640361785889,-1.5497803688049316
1783696631683609600,7.807609619140625,0.869432270526886,-0.8180715441703796,-1.7307103872299194
1783696631693572900,7.81757275390625,0.9040471911430359,-0.8312960267066956,-1.743817925453186
1783696631703535900,7.827535888671875,0.9126781821250916,-0.8794063329696655,-1.6303784847259521
1783696631713499000,7.837498779296875,0.8267640471458435,-0.8474369645118713,-1.383302927017212
1783696631723463000,7.847462890625,0.6499817967414856,-0.6294184923171997,-0.9904604554176331
1783696631733425700,7.85742578125,0.47481343150138855,-0.29277491569519043,-0.5023051500320435
1783696631743388700,7.867388671875,0.35337284207344055,-0.04609745368361473,-0.036202024668455124
1783696631753351700,7.8773515625,0.2808091640472412,0.05254789814352989,0.3045845925807953
1783696631763314700,7.887314697265625,0.22056058049201965,0.07002311199903488,0.46838924288749695
1783696631773277700,7.897277587890625,0.14502428472042084,0.06696394085884094,0.4660658836364746
1783696631783240700,7.90724072265625,0.05524488165974617,0.004928741604089737,0.3414963483810425
1783696631793203700,7.91720361328125,-0.03633084148168564,-0.05167381837964058,0.20682348310947418
1783696631803166700,7.927166748046875,-0.12222479283809662,-0.00730403745546937,0.12904907763004303
1783696631813130500,7.937130615234375,-0.195736825466156,0.16714580357074738,0.12128569185733795
1783696631823093200,7.94709326171875,-0.23600627481937408,0.3845413327217102,0.14874616265296936
1783696631833056300,7.95705615234375,-0.26302245259284973,0.5781265497207642,0.1862378716468811
1783696631843019300,7.967019287109375,-0.27452266216278076,0.6919854879379272,0.20871132612228394
1783696631852982300,7.976982177734375,-0.26822373270988464,0.7376866936683655,0.23788146674633026
1783696631862945300,7.9869453125,-0.23379291594028473,0.7503765821456909,0.2950165867805481
1783696631872908300,7.996908203125,-0.1855630725622177,0.7745229005813599,0.3795815408229828
1783696631882871300,8.006871337890624,-0.12951511144638062,0.8125326037406921,0.4855981171131134
1783696631892835300,8.01683544921875,-0.0771094262599945,0.8630218505859375,0.5946868062019348
1783696631902798000,8.026798095703125,-0.047366321086883545,0.8834371566772461,0.6532703042030334
1783696631912761000,8.036760986328124,-0.04534338414669037,0.8774306774139404,0.6556050777435303
1783696631922724400,8.046724365234375,-0.04624827206134796,0.8510434627532959,0.6105116009712219
1783696631932687400,8.056687255859375,-0.04569113999605179,0.7753750681877136,0.5297136902809143
1783696631942650400,8.066650390625,-0.05329643562436104,0.6447117924690247,0.44240185618400574
1783696631952613400,8.07661328125,-0.09600687772035599,0.48458367586135864,0.37956351041793823
1783696631962576400,8.086576416015625,-0.18543772399425507,0.32432377338409424,0.34351086616516113
1783696631972539100,8.0965390625,-0.28916090726852417,0.16051113605499268,0.3186039328575134
1783696631982503200,8.106503173828125,-0.3766123354434967,-0.1711915284395218,0.25913915038108826
1783696631992466200,8.116466064453125,-0.4208487868309021,-0.7045207023620605,0.17853885889053345
1783696632002429200,8.12642919921875,-0.39875975251197815,-1.2067599296569824,0.18816176056861877
1783696632012392200,8.13639208984375,-0.33472272753715515,-1.462532639503479,0.35333022475242615
1783696632022355200,8.146355224609374,-0.25122103095054626,-1.5136774778366089,0.624706506729126
1783696632032318500,8.156318359375,-0.15844395756721497,-1.5058600902557373,0.8784301280975342
1783696632042281500,8.166281494140625,-0.07221928983926773,-1.4411044120788574,1.0250693559646606
1783696632052244200,8.176244140625,0.000408038729801774,-1.413285255432129,1.044883370399475
1783696632062207200,8.186207275390625,0.014286655932664871,-1.340074062347412,0.9731321930885315
1783696632072171300,8.196171142578125,-0.06058518588542938,-0.935842752456665,0.8480539321899414
1783696632082134300,8.20613427734375,-0.19638146460056305,-0.2896222770214081,0.687370240688324
1783696632092097300,8.21609716796875,-0.33170413970947266,0.30668506026268005,0.49941202998161316
1783696632102060300,8.226060302734375,-0.3543730080127716,0.6946990489959717,0.29481613636016846
1783696632112023300,8.236023193359374,-0.2630862593650818,0.7182773351669312,0.05866111442446709
1783696632121986300,8.245986328125,-0.07557206600904465,0.4127214848995209,-0.16106903553009033
1783696632131949300,8.25594921875,0.1707809865474701,-0.03093690611422062,-0.312889963388443
1783696632141912300,8.265912353515626,0.37632450461387634,-0.5129114389419556,-0.3856240212917328
1783696632151875300,8.275875244140625,0.49526581168174744,-0.8672024011611938,-0.38736972212791443
1783696632161839400,8.28583935546875,0.5800360441207886,-0.9430923461914062,-0.3285258710384369
1783696632171802400,8.29580224609375,0.6641852855682373,-0.702284038066864,-0.2363101840019226
1783696632181765400,8.305765380859375,0.7518178820610046,-0.37267372012138367,-0.18505389988422394
1783696632191728400,8.315728271484375,0.8393173813819885,-0.14810478687286377,-0.2282882034778595
1783696632201691400,8.32569140625,0.9303601384162903,-0.029878051951527596,-0.3512287735939026
1783696632211654100,8.335654052734375,1.003218412399292,0.06967463344335556,-0.518852710723877
1783696632221617200,8.3456171875,1.03457772731781,0.1678486317396164,-0.7467788457870483
1783696632231580200,8.355580078125,1.0113999843597412,0.23817233741283417,-1.0708857774734497
1783696632241544200,8.365544189453125,0.9701910018920898,0.24510255455970764,-1.4303497076034546
1783696632251507200,8.375507080078124,0.9194859862327576,0.2875048816204071,-1.7360670566558838
1783696632261470200,8.38547021484375,0.8229033350944519,0.40811678767204285,-1.9200633764266968
1783696632271433500,8.39543359375,0.6540749073028564,0.5195854902267456,-1.9510167837142944
1783696632281396500,8.405396484375,0.4478587806224823,0.6113978624343872,-1.8444123268127441
1783696632291359200,8.415359130859375,0.23735001683235168,0.7534436583518982,-1.6259516477584839
1783696632301322200,8.425322265625,0.024257145822048187,0.8964940905570984,-1.3294718265533447
1783696632311285200,8.43528515625,-0.17266470193862915,0.9414589405059814,-0.9802472591400146
1783696632321248300,8.445248291015625,-0.33618590235710144,0.9176990985870361,-0.5932883620262146
1783696632331211300,8.455211181640625,-0.479414165019989,0.9100475311279297,-0.23264120519161224
1783696632341175300,8.46517529296875,-0.5743810534477234,0.8674134016036987,0.037936482578516006
1783696632351138300,8.47513818359375,-0.6014710068702698,0.7723785042762756,0.20555822551250458
1783696632361101300,8.485101318359375,-0.5761151313781738,0.6755087375640869,0.29605796933174133
1783696632371064000,8.49506396484375,-0.5360864400863647,0.6377749443054199,0.3308505713939667
1783696632381027300,8.50502734375,-0.5094168782234192,0.6573407649993896,0.35983720421791077
1783696632390990300,8.514990234375,-0.512643575668335,0.7250614762306213,0.4052092134952545
1783696632400953300,8.524953369140626,-0.5488252639770508,0.8281500935554504,0.471138596534729
1783696632410916400,8.534916259765625,-0.6057229042053223,0.9526411890983582,0.5198624730110168
1783696632420880400,8.54488037109375,-0.6451752781867981,1.1103287935256958,0.5522595643997192
1783696632430843400,8.554843505859376,-0.6702121496200562,1.2077443599700928,0.5600396990776062
1783696632440806400,8.564806396484375,-0.6865933537483215,1.180315613746643,0.5368530750274658
1783696632450769200,8.57476904296875,-0.7028990387916565,1.0102258920669556,0.4943346381187439
1783696632460732200,8.584732177734375,-0.7207477688789368,0.765948474407196,0.4663654863834381
1783696632470695200,8.594695068359375,-0.7265033721923828,0.6412009596824646,0.4901379346847534
1783696632480658200,8.604658203125,-0.730725109577179,0.6386291980743408,0.5500475168228149
1783696632490621400,8.614621337890625,-0.732596218585968,0.6582721471786499,0.5987045764923096
1783696632500584400,8.62458447265625,-0.6989781856536865,0.6683434844017029,0.6484743356704712
1783696632510548500,8.634548583984374,-0.6084509491920471,0.7028753161430359,0.7112045884132385
1783696632520511500,8.644511474609375,-0.4533110558986664,0.8576277494430542,0.805188000202179
1783696632530474200,8.65447412109375,-0.29587534070014954,0.9949166178703308,0.8765538334846497
1783696632540437200,8.664437255859376,-0.1838732659816742,1.1085588932037354,0.8586198091506958
1783696632550400300,8.674400146484375,-0.14646437764167786,1.1530643701553345,0.7473585605621338
1783696632560363300,8.68436328125,-0.11940854787826538,0.9821438193321228,0.5526931285858154
1783696632570326300,8.694326171875,-0.04243732616305351,0.5483905076980591,0.31222352385520935
1783696632580289300,8.704289306640625,0.15619349479675293,0.023159140720963478,0.16730928421020508
1783696632590252300,8.714252197265624,0.4492916762828827,-0.3247290551662445,0.2003181129693985
1783696632600216300,8.72421630859375,0.7628324627876282,-0.42177486419677734,0.36569422483444214
1783696632610179000,8.734178955078125,1.1078191995620728,-0.46849390864372253,0.500573456287384
1783696632620142300,8.744142333984374,1.4799548387527466,-0.5580663681030273,0.5131505727767944
1783696632630105300,8.754105224609376,1.761998176574707,-0.6681811809539795,0.3702535927295685
1783696632640068400,8.764068359375,1.8750368356704712,-0.7979083061218262,0.05890514701604843
1783696632650031400,8.77403125,1.8207595348358154,-0.9405946135520935,-0.36838918924331665
1783696632659994400,8.783994384765625,1.609238862991333,-1.0512070655822754,-0.8103929758071899
1783696632669957000,8.79395703125,1.2737205028533936,-1.160240650177002,-1.1861389875411987
1783696632679920000,8.803920166015626,0.8567119240760803,-1.300925374031067,-1.4458045959472656
1783696632689884200,8.81388427734375,0.4872766137123108,-1.4507801532745361,-1.5342926979064941
1783696632699847200,8.82384716796875,0.24611292779445648,-1.483413815498352,-1.4527477025985718
1783696632709810200,8.83381005859375,0.13555073738098145,-1.2809566259384155,-1.2398974895477295
1783696632719773200,8.843773193359375,0.121122345328331,-0.8610721826553345,-0.9888308644294739
1783696632729736400,8.853736328125,0.16323597729206085,-0.468050092458725,-0.7928518056869507
1783696632739699500,8.863699462890626,0.2009442001581192,-0.2595689296722412,-0.664138913154602
1783696632749662200,8.873662109375,0.16736891865730286,-0.18819302320480347,-0.5762532353401184
1783696632759625200,8.883625244140624,0.062456704676151276,-0.15992403030395508,-0.5184208750724792
1783696632769589200,8.89358935546875,-0.07041958719491959,-0.18500539660453796,-0.5029013156890869
1783696632779552300,8.90355224609375,-0.1945257931947708,-0.22617851197719574,-0.5144625306129456
1783696632789515300,8.913515380859375,-0.30706754326820374,-0.2517411410808563,-0.5255588293075562
1783696632799478300,8.923478271484376,-0.3864195942878723,-0.2166997641324997,-0.5073049664497375
1783696632809441300,8.933441162109375,-0.422945111989975,-0.09865807741880417,-0.44853782653808594
1783696632819404300,8.943404296875,-0.39664217829704285,0.02309887297451496,-0.3455008268356323
1783696632829368000,8.9533681640625,-0.3100316524505615,0.13287730515003204,-0.20472800731658936
1783696632839331000,8.9633310546875,-0.1947144865989685,0.23318034410476685,-0.039845049381256104
1783696632849294000,8.973294189453124,-0.07374946027994156,0.2851034700870514,0.1258493810892105
1783696632859258000,8.983258056640626,0.013973147608339787,0.31872838735580444,0.28530916571617126
1783696632869221000,8.99322119140625,0.04663015902042389,0.32729604840278625,0.41712072491645813
1783696632879184100,9.00318408203125,0.03359496220946312,0.31703242659568787,0.508773922920227
1783696632889147100,9.013147216796876,-0.017168879508972168,0.3477458655834198,0.5471248030662537
1783696632899110100,9.023110107421875,-0.08944397419691086,0.41218435764312744,0.5216053128242493
1783696632909073200,9.0330732421875,-0.16854572296142578,0.4765564203262329,0.45166563987731934
1783696632919036200,9.0430361328125,-0.24515442550182343,0.49485570192337036,0.38100895285606384
1783696632928999200,9.052999267578125,-0.33226773142814636,0.4396347999572754,0.3414224088191986
1783696632938962200,9.062962158203124,-0.4229011833667755,0.32663169503211975,0.350416362285614
1783696632948926200,9.07292626953125,-0.5144314169883728,0.1898868978023529,0.39581605792045593
1783696632958889000,9.082888916015625,-0.5752987861633301,0.07998756319284439,0.46826300024986267
1783696632968852000,9.09285205078125,-0.5749542117118835,0.04364926367998123,0.5590552091598511
1783696632978815000,9.10281494140625,-0.506122887134552,0.040620289742946625,0.6333925127983093
1783696632988778200,9.1127783203125,-0.39240485429763794,0.04795436933636665,0.6979922652244568
1783696632998741200,9.1227412109375,-0.2629663646221161,0.11352688074111938,0.7081356048583984
1783696633008704300,9.132704345703125,-0.14432308077812195,0.25295135378837585,0.6243488192558289
1783696633018667300,9.142667236328125,-0.050704147666692734,0.46514663100242615,0.4368850290775299
1783696633028630000,9.152630126953126,0.03137687221169472,0.6044235825538635,0.14303767681121826
1783696633038594000,9.162593994140625,0.1338929831981659,0.5147472620010376,-0.1974705457687378
1783696633048557000,9.17255712890625,0.2034773826599121,0.24461349844932556,-0.5623214840888977
1783696633058520000,9.18252001953125,0.24796074628829956,-0.013971581123769283,-0.8610104918479919
1783696633068483000,9.192483154296875,0.22017492353916168,-0.05135597288608551,-0.9269192218780518
1783696633078446000,9.202446044921874,0.04717443883419037,0.07839390635490417,-0.815680980682373
1783696633088409000,9.2124091796875,-0.07431310415267944,0.223380908370018,-0.708027184009552
1783696633098372000,9.2223720703125,-0.024268513545393944,0.12139721214771271,-0.7976412773132324
1783696633108335000,9.232335205078124,0.08689583092927933,-0.19457939267158508,-1.0414893627166748
1783696633118298000,9.242298095703125,0.2019660770893097,-0.48520928621292114,-1.289604902267456
1783696633128262100,9.25226220703125,0.3838096559047699,-0.6545729637145996,-1.4529719352722168
1783696633138225200,9.26222509765625,0.6102692484855652,-0.808089554309845,-1.5458285808563232
1783696633148188200,9.272188232421875,0.7529215216636658,-1.0369541645050049,-1.5995995998382568
1783696633158151200,9.282151123046875,0.7610373497009277,-1.3206279277801514,-1.6146552562713623
1783696633168114200,9.2921142578125,0.676137387752533,-1.4961163997650146,-1.5564748048782349
1783696633178077200,9.3020771484375,0.5534073710441589,-1.4528284072875977,-1.40420663356781
1783696633188040000,9.3120400390625,0.4558402895927429,-1.2169607877731323,-1.209873080253601
1783696633199871000,9.32387109375,0.4364607632160187,-0.8414111137390137,-1.0014005899429321
1783696633209834000,9.333833984375,0.46611839532852173,-0.5845896005630493,-0.8890959024429321
1783696633219798000,9.343798095703125,0.4781878590583801,-0.4450354278087616,-0.8404836058616638
1783696633229761000,9.353760986328124,0.4395773112773895,-0.3624586760997772,-0.8480255603790283
1783696633239724000,9.36372412109375,0.35840147733688354,-0.356158971786499,-0.8773829340934753
1783696633249687300,9.373687255859375,0.27221640944480896,-0.4620741307735443,-0.8906802535057068
1783696633259650000,9.383650146484374,0.18828393518924713,-0.6350885033607483,-0.863470196723938
1783696633269613000,9.393613037109375,0.1308111548423767,-0.7234745025634766,-0.786210298538208
1783696633279576000,9.403576171875,0.11338421702384949,-0.19491106271743774,-0.6413516402244568
1783696633289539000,9.4135390625,0.048411112278699875,0.08669260144233704,-0.5336261987686157
1783696633299502000,9.423502197265625,-0.036549054086208344,0.003405170049518347,-0.43594035506248474
1783696633309466000,9.433466064453125,-0.07904468476772308,0.07384218275547028,-0.25658607482910156
1783696633319429000,9.44342919921875,-0.07667261362075806,0.36346790194511414,0.0003690375597216189
1783696633329392000,9.45339208984375,-0.05703705549240112,0.6375693082809448,0.2623808681964874
1783696633339355000,9.46335498046875,-0.06245206296443939,0.8701719641685486,0.5084686279296875
1783696633349318100,9.473318115234376,-0.11722487956285477,1.02194082736969,0.7469213604927063
1783696633359281200,9.48328125,-0.21219347417354584,0.9813506603240967,0.9389427304267883
1783696633369244200,9.493244140625,-0.31571826338768005,0.7215526700019836,1.0652015209197998
1783696633379207200,9.503207275390626,-0.3959505259990692,0.359138548374176,1.113513708114624
1783696633389170200,9.513170166015625,-0.42982402443885803,0.0014639653963968158,1.106900930404663
1783696633399134200,9.52313427734375,-0.4331228733062744,-0.24876347184181213,1.039436936378479
1783696633409097200,9.53309716796875,-0.42478859424591064,-0.3069952726364136,0.9459153413772583
1783696633419060000,9.54306005859375,-0.3889927864074707,-0.16963554918766022,0.901791512966156
1783696633429023000,9.55302294921875,-0.3328365385532379,0.1375485211610794,0.9198830723762512
1783696633438986000,9.562986083984375,-0.26654937863349915,0.4828619658946991,0.9784782528877258
1783696633448949000,9.572948974609375,-0.24169908463954926,0.7739866375923157,1.0440517663955688
1783696633458912300,9.582912353515624,-0.2611340284347534,0.9740027785301208,1.0844130516052246
1783696633468875300,9.592875244140625,-0.2858966588973999,1.0177898406982422,1.0454351902008057
1783696633478838300,9.60283837890625,-0.2566426396369934,0.8752212524414062,0.9234924912452698
1783696633488802300,9.61280224609375,-0.18460200726985931,0.5681666731834412,0.7211580872535706
1783696633498765000,9.62276513671875,-0.06665220111608505,0.15520521998405457,0.4812621474266052
1783696633509351000,9.633350830078125,0.10587775707244873,-0.28248050808906555,0.1937161386013031
1783696633519314200,9.643314208984375,0.2802679240703583,-0.44324588775634766,-0.11309821903705597
1783696633529277200,9.653277099609374,0.4912131726741791,-0.11934450268745422,-0.3837328851222992
1783696633539240200,9.663240234375,0.6794559955596924,0.6762356162071228,-0.5488144755363464
1783696633549203200,9.673203125,0.7417577505111694,1.4987789392471313,-0.5884010195732117
1783696633559166200,9.683166259765626,0.6881017088890076,1.9759624004364014,-0.5517680048942566
1783696633569129200,9.693129150390625,0.621574342250824,1.8432501554489136,-0.5234756469726562
1783696633579092000,9.703092041015625,0.5389378666877747,1.1946989297866821,-0.5218378901481628
1783696633589055000,9.713054931640626,0.4223681390285492,0.4412049651145935,-0.488690048456192
1783696633599019000,9.72301904296875,0.3041849136352539,-0.09651977568864822,-0.41207098960876465
1783696633608982000,9.73298193359375,0.24446512758731842,-0.37407416105270386,-0.3337692618370056
1783696633618945000,9.742945068359376,0.24963022768497467,-0.5245808959007263,-0.3588258624076843
1783696633628908000,9.752907958984375,0.23220889270305634,-0.7115369439125061,-0.5906902551651001
1783696633638871300,9.762871337890624,0.18618187308311462,-0.9118692278862,-0.9841306805610657
1783696633648834300,9.772834228515626,0.17277872562408447,-0.942875862121582,-1.3301405906677246
1783696633658797000,9.782797119140625,0.1790691465139389,-0.8495612740516663,-1.4809610843658447
1783696633668760000,9.792760009765624,0.17852719128131866,-0.6971927881240845,-1.4154713153839111
1783696633678723000,9.80272314453125,0.1582874059677124,-0.5257466435432434,-1.1919986009597778
1783696633688687000,9.81268701171875,0.13134260475635529,-0.4907095730304718,-0.921593964099884
1783696633698650000,9.822650146484374,0.07455509155988693,-0.5953003168106079,-0.7330237030982971
1783696633708613000,9.832613037109375,0.008985665626823902,-0.7172542214393616,-0.6559385061264038
1783696633718576000,9.842576171875,-0.03970247134566307,-0.7335570454597473,-0.6682975888252258
1783696633728539100,9.8525390625,-0.08534213155508041,-0.5169270038604736,-0.6619299650192261
1783696633738502100,9.862502197265625,-0.18204763531684875,-0.1817181557416916,-0.6167404651641846
1783696633748465200,9.872465087890625,-0.19538262486457825,0.03554917871952057,-0.5909898281097412
1783696633758428200,9.88242822265625,-0.1256479024887085,0.33573833107948303,-0.46317020058631897
1783696633768391200,9.89239111328125,-0.058596424758434296,0.6461385488510132,-0.22159966826438904
1783696633778355200,9.902355224609375,-0.03301564231514931,0.8124474883079529,0.03307008370757103
1783696633788318200,9.912318115234376,-0.06314212083816528,0.7809007167816162,0.24894937872886658
1783696633798281200,9.92228125,-0.16105644404888153,0.6141409873962402,0.470792293548584
1783696633808244200,9.932244140625,-0.2561270296573639,0.5187561511993408,0.752612292766571
1783696633818207000,9.94220703125,-0.3224896490573883,0.41531050205230713,0.9655779600143433
