time,seconds_elapsed,z,y,x
1783696710590526500,0.0615263671875,-0.0009557927260175347,0.593707263469696,1.1469446420669556
1783696710600489500,0.071489501953125,-0.07112769037485123,0.4607422649860382,1.1853668689727783
1783696710610452200,0.0814521484375,-0.09352380037307739,0.31967175006866455,1.2157193422317505
1783696710620415200,0.091415283203125,-0.08514229953289032,0.24519671499729156,1.207546353340149
1783696710630378200,0.101378173828125,-0.10502960532903671,0.2521672546863556,1.1468170881271362
1783696710640341200,0.11134130859375,-0.1124020367860794,0.3090971112251282,1.0091428756713867
1783696710650304300,0.12130419921875,-0.06519977003335953,0.39360395073890686,0.8176019191741943
1783696710660267300,0.131267333984375,0.012708345428109169,0.4233434498310089,0.5734683871269226
1783696710670229200,0.141229248046875,0.060134973376989365,0.3043316602706909,0.250188410282135
1783696710680192300,0.151192138671875,0.08590345084667206,0.08242296427488327,-0.08820295333862305
1783696710690155300,0.1611552734375,0.11171619594097137,0.005074444692581892,-0.30260422825813293
1783696710700118300,0.1711181640625,0.1124725341796875,0.2400994747877121,-0.32991573214530945
1783696710710081300,0.181081298828125,0.0920293927192688,0.6901029944419861,-0.2565203309059143
1783696710720044300,0.191044189453125,0.10340908169746399,1.0713105201721191,-0.2234547734260559
1783696710730007300,0.20100732421875,0.12019965797662735,1.1154167652130127,-0.33158624172210693
1783696710739970300,0.21097021484375,0.09708981215953827,0.8742861747741699,-0.5624450445175171
1783696710749932300,0.220932373046875,0.036963123828172684,0.4697900116443634,-0.8306266665458679
1783696710759895300,0.230895263671875,-0.03546367213129997,-0.030934618785977364,-1.055443286895752
1783696710769858300,0.2408583984375,-0.09900578111410141,-0.5774649977684021,-1.2113922834396362
1783696710779821000,0.250821044921875,-0.15515746176242828,-1.1892324686050415,-1.3612024784088135
1783696710789784300,0.260784423828125,-0.18270662426948547,-1.7826589345932007,-1.514190912246704
1783696710799747300,0.270747314453125,-0.19445276260375977,-2.1437642574310303,-1.6548775434494019
1783696710809710300,0.28071044921875,-0.17367367446422577,-2.039274215698242,-1.7038837671279907
1783696710819673300,0.29067333984375,-0.13061276078224182,-1.419268250465393,-1.6162686347961426
1783696710829635000,0.300635009765625,-0.11212708801031113,-0.5839084386825562,-1.4411970376968384
1783696710839598000,0.31059814453125,-0.16943113505840302,0.019096221774816513,-1.2461004257202148
1783696710849561000,0.32056103515625,-0.29340866208076477,0.21108707785606384,-1.0193766355514526
1783696710859524400,0.3305244140625,-0.42621731758117676,0.03835923597216606,-0.7653768062591553
1783696710869487400,0.3404873046875,-0.5557747483253479,-0.3746543824672699,-0.5152541399002075
1783696710879450400,0.350450439453125,-0.6736680865287781,-0.8963024020195007,-0.29547175765037537
1783696710889413400,0.360413330078125,-0.7466039657592773,-1.3744195699691772,-0.1439317762851715
1783696710899375000,0.370375,-0.769048810005188,-1.7006895542144775,-0.047668348997831345
1783696710909338000,0.380338134765625,-0.7359867095947266,-1.8100013732910156,-0.030761267989873886
1783696710919301400,0.39030126953125,-0.602050244808197,-1.7643585205078125,-0.05444476008415222
1783696710929264000,0.40026416015625,-0.40253427624702454,-1.73155677318573,-0.10449331253767014
1783696710939227100,0.41022705078125,-0.26143574714660645,-1.5992083549499512,-0.15177932381629944
1783696710949190100,0.420190185546875,-0.18902920186519623,-1.3387584686279297,-0.16003398597240448
1783696710959153200,0.430153076171875,-0.13601525127887726,-0.9562279582023621,-0.1458076387643814
1783696710969116200,0.4401162109375,-0.07766662538051605,-0.5110376477241516,-0.11070236563682556
1783696710979078400,0.450078369140625,-0.0012754470808431506,-0.08310624957084656,-0.06841696053743362
1783696710989041200,0.460041259765625,0.08843221515417099,0.2463214248418808,-0.055903926491737366
1783696710999004200,0.470004150390625,0.17767900228500366,0.45761796832084656,-0.07582437247037888
1783696711008967200,0.47996728515625,0.2527317404747009,0.5850359797477722,-0.10186206549406052
1783696711018930200,0.48993017578125,0.31231358647346497,0.6634761691093445,-0.11800907552242279
1783696711028893200,0.49989306640625,0.3656080961227417,0.7476736307144165,-0.12006760388612747
1783696711038856200,0.509856201171875,0.3829846680164337,0.878013014793396,-0.10385800898075104
1783696711048819000,0.51981884765625,0.35468313097953796,1.0138254165649414,-0.05749227851629257
1783696711058781200,0.52978125,0.30861470103263855,1.1142423152923584,0.01410015020519495
1783696711068744200,0.539744140625,0.2681061029434204,1.1698856353759766,0.12874971330165863
1783696711078707200,0.549707275390625,0.25462624430656433,1.1683770418167114,0.3162280023097992
1783696711088670200,0.559670166015625,0.22282440960407257,1.0732765197753906,0.5051829814910889
1783696711098633200,0.56963330078125,0.1892121285200119,0.7034521698951721,0.648114025592804
1783696711108596000,0.579595947265625,0.20019079744815826,0.11561832576990128,0.7329651713371277
1783696711118559200,0.589559326171875,0.2386804074048996,-0.26770085096359253,0.7804133296012878
1783696711128521200,0.599521240234375,0.282367080450058,-0.18040268123149872,0.7768821120262146
1783696711138484200,0.609484130859375,0.30466413497924805,0.20341528952121735,0.7206004858016968
1783696711148447200,0.619447265625,0.3197104334831238,0.5003297328948975,0.628777801990509
1783696711158410000,0.629409912109375,0.3172304928302765,0.5807342529296875,0.5578932166099548
1783696711168373000,0.639373046875,0.23620015382766724,0.6313198208808899,0.569591224193573
1783696711178336300,0.649336181640625,0.054688408970832825,0.7326600551605225,0.6752949953079224
1783696711188299300,0.65929931640625,-0.1732846200466156,0.7220016717910767,0.7888358235359192
1783696711198262300,0.66926220703125,-0.378508597612381,0.6197323203086853,0.8193250298500061
1783696711208224000,0.67922412109375,-0.5539788603782654,0.5428837537765503,0.727921187877655
1783696711218187000,0.68918701171875,-0.7430433034896851,0.4472748935222626,0.4794946014881134
1783696711228150000,0.69914990234375,-0.9427679777145386,0.21941491961479187,0.0916483998298645
1783696711238113300,0.70911328125,-1.1132843494415283,-0.09496085345745087,-0.4180539846420288
1783696711248076300,0.719076171875,-1.2012733221054077,-0.33165451884269714,-0.9667935371398926
1783696711258039300,0.729039306640625,-1.2124298810958862,-0.390169233083725,-1.463692307472229
1783696711268002300,0.739002197265625,-1.141952633857727,-0.26751449704170227,-1.8530676364898682
1783696711277964000,0.748964111328125,-1.02534818649292,0.09695430099964142,-2.159724235534668
1783696711287927000,0.758927001953125,-0.9091185331344604,0.6060114502906799,-2.447897434234619
1783696711297890300,0.768890380859375,-0.8344104886054993,1.0590438842773438,-2.683278799057007
1783696711307853300,0.778853271484375,-0.7564915418624878,1.300430417060852,-2.703084945678711
1783696711317816300,0.78881640625,-0.64169842004776,1.1773713827133179,-2.4727799892425537
1783696711327779300,0.798779296875,-0.50990229845047,0.644420862197876,-2.050271511077881
1783696711337742000,0.8087421875,-0.39848580956459045,-0.12631896138191223,-1.485901117324829
1783696711347705000,0.818705078125,-0.3176567554473877,-0.9261171221733093,-0.8453559279441833
1783696711357667300,0.828667236328125,-0.24806438386440277,-1.6110811233520508,-0.2111739218235016
1783696711367630300,0.83863037109375,-0.15339519083499908,-2.1089038848876953,0.3286830484867096
1783696711377593300,0.84859326171875,-0.042979463934898376,-2.3422515392303467,0.691571831703186
1783696711387556000,0.85855615234375,0.08740143477916718,-2.273496627807617,0.897858738899231
1783696711397519000,0.86851904296875,0.2212308645248413,-1.9791659116744995,1.0150071382522583
1783696711407482000,0.878482177734375,0.2882115840911865,-1.5328173637390137,0.9955187439918518
1783696711417445000,0.888445068359375,0.2892446219921112,-1.0576624870300293,0.904335618019104
1783696711427407400,0.898407470703125,0.27233824133872986,-0.5403333306312561,0.832077145576477
1783696711437370000,0.9083701171875,0.2500030994415283,0.0507374033331871,0.8067566156387329
1783696711447333000,0.9183330078125,0.22878609597682953,0.6520330905914307,0.8586775660514832
1783696711457296100,0.928296142578125,0.1921045184135437,1.1523127555847168,0.9902377128601074
1783696711467259100,0.938259033203125,0.12664920091629028,1.4636638164520264,1.1518335342407227
1783696711477222100,0.94822216796875,0.03896196931600571,1.5485854148864746,1.3042083978652954
1783696711487185200,0.95818505859375,-0.06823615729808807,1.4406390190124512,1.421825647354126
1783696711497147100,0.968147216796875,-0.15491726994514465,1.2166962623596191,1.5137414932250977
1783696711507110100,0.978110107421875,-0.19953536987304688,0.9428207874298096,1.5859522819519043
1783696711517073200,0.9880732421875,-0.22167982161045074,0.6813604235649109,1.6170907020568848
1783696711527036200,0.9980361328125,-0.20833587646484375,0.45666709542274475,1.615760326385498
1783696711536999200,1.007999267578125,-0.17426766455173492,0.3045731782913208,1.6055963039398193
1783696711546962200,1.017962158203125,-0.15532295405864716,0.2801189422607422,1.5696392059326172
1783696711556925200,1.02792529296875,-0.15391334891319275,0.34522151947021484,1.4835556745529175
1783696711566888200,1.03788818359375,-0.14955028891563416,0.49633699655532837,1.3603028059005737
1783696711576850200,1.04785009765625,-0.10216066241264343,0.6298381090164185,1.1820749044418335
1783696711586813200,1.057813232421875,0.03353289142251015,0.5252713561058044,0.9462031722068787
1783696711596776200,1.067776123046875,0.2724224328994751,0.25574612617492676,0.7390435934066772
1783696711606739200,1.0777392578125,0.5614930987358093,0.0343514010310173,0.6296806335449219
1783696711616702000,1.087701904296875,0.7863861322402954,-0.0595436692237854,0.613154947757721
1783696711626665200,1.097665283203125,0.8293435573577881,-0.16204461455345154,0.5824550986289978
1783696711636628200,1.107628173828125,0.6377131342887878,-0.20430152118206024,0.47317978739738464
1783696711646590200,1.117590087890625,0.2410343885421753,0.07429036498069763,0.2652828097343445
1783696711656553200,1.12755322265625,-0.20928964018821716,0.6244411468505859,-0.012202870100736618
1783696711666516000,1.137515869140625,-0.556368350982666,1.1802581548690796,-0.34033146500587463
1783696711676479000,1.14747900390625,-0.7442916631698608,1.4762935638427734,-0.694267749786377
1783696711686442200,1.157442138671875,-0.7977674007415771,1.3873589038848877,-1.0457741022109985
1783696711696405200,1.1674052734375,-0.7694894075393677,1.0176975727081299,-1.3989672660827637
1783696711706368300,1.1773681640625,-0.7000223994255066,0.4281489849090576,-1.7383075952529907
1783696711716331300,1.187331298828125,-0.5749329328536987,-0.27239659428596497,-2.027648687362671
1783696711726293000,1.19729296875,-0.39216968417167664,-0.7675796747207642,-2.2256338596343994
1783696711736256000,1.207256103515625,-0.208320751786232,-0.9298354387283325,-2.2959635257720947
1783696711746219300,1.21721923828125,-0.056457798928022385,-0.8220718502998352,-2.22141432762146
1783696711756182300,1.227182373046875,0.08465325087308884,-0.48485067486763,-1.9879730939865112
1783696711766145300,1.237145263671875,0.23172813653945923,-0.09654540568590164,-1.6454805135726929
1783696711776108300,1.2471083984375,0.3726724684238434,0.1569422483444214,-1.2650392055511475
1783696711786070000,1.257070068359375,0.4988623559474945,0.21436990797519684,-0.8938305377960205
1783696711796033000,1.267032958984375,0.5507476329803467,0.04770076647400856,-0.5714008808135986
1783696711805996300,1.276996337890625,0.509856104850769,-0.3155798614025116,-0.32383444905281067
1783696711815959300,1.286959228515625,0.42418619990348816,-0.796156108379364,-0.13200747966766357
1783696711825922300,1.29692236328125,0.3698227107524872,-1.2299690246582031,0.022408561781048775
1783696711835885300,1.30688525390625,0.3671547472476959,-1.5745338201522827,0.14198769629001617
1783696711845848000,1.31684814453125,0.44055166840553284,-1.807538390159607,0.20687349140644073
1783696711855811000,1.32681103515625,0.5676747560501099,-1.847876787185669,0.2073209136724472
1783696711865773300,1.336773193359375,0.717836320400238,-1.7285819053649902,0.1379917711019516
1783696711875736300,1.346736328125,0.863899290561676,-1.4932564496994019,0.01709224283695221
1783696711885699300,1.35669921875,0.9786252975463867,-1.159749984741211,-0.11447346210479736
1783696711895662000,1.366662109375,1.041233777999878,-0.7613211274147034,-0.21773965656757355
1783696711905624000,1.3766240234375,1.0296841859817505,-0.36365240812301636,-0.2652324140071869
1783696711915587000,1.386587158203125,0.9290470480918884,0.0026909452863037586,-0.2673994302749634
1783696711925549300,1.39654931640625,0.758151650428772,0.2902269959449768,-0.2247772365808487
1783696711935512300,1.40651220703125,0.5515550374984741,0.4913944602012634,-0.15497899055480957
1783696711945475300,1.416475341796875,0.30993741750717163,0.6739765405654907,-0.024610549211502075
1783696711955438300,1.426438232421875,0.11617912352085114,0.8350932598114014,0.21125897765159607
1783696711965401000,1.436401123046875,-0.03707876801490784,0.9166815876960754,0.5205426216125488
1783696711975364000,1.446364013671875,-0.15011955797672272,0.9016464352607727,0.8610445261001587
1783696711985327400,1.456327392578125,-0.21844066679477692,0.7976095080375671,1.1918495893478394
1783696711995289300,1.466289306640625,-0.2677443027496338,0.6839264035224915,1.4754908084869385
1783696712005252400,1.47625244140625,-0.32400083541870117,0.5832198262214661,1.6919602155685425
1783696712015215000,1.486215087890625,-0.40741902589797974,0.4927127957344055,1.833785891532898
1783696712025178000,1.49617822265625,-0.48110711574554443,0.38991206884384155,1.9106687307357788
1783696712035141000,1.50614111328125,-0.5099270343780518,0.2490236461162567,1.9265656471252441
1783696712045104400,1.5161044921875,-0.49221375584602356,0.18083041906356812,1.8459471464157104
1783696712055067400,1.5260673828125,-0.4464992582798004,0.11021856963634491,1.672252893447876
1783696712065029000,1.536029052734375,-0.3635210692882538,-0.10495970398187637,1.3739162683486938
1783696712074992000,1.5459921875,-0.2520507276058197,-0.4754067361354828,0.9031016230583191
1783696712084955100,1.555955078125,-0.16647814214229584,-0.7964261770248413,0.3582107126712799
1783696712094918100,1.565918212890625,-0.18077638745307922,-0.6105878353118896,-0.08310890197753906
1783696712104881400,1.57588134765625,-0.33069831132888794,-0.03887512534856796,-0.4284742474555969
1783696712114844400,1.585844482421875,-0.44370874762535095,0.7027414441108704,-0.6326878070831299
1783696712124807400,1.595807373046875,-0.41936248540878296,1.2240811586380005,-0.7609583139419556
1783696712134769200,1.60576904296875,-0.3712269067764282,1.3362865447998047,-0.9363083243370056
1783696712144732200,1.615732177734375,-0.3846128284931183,1.2043955326080322,-1.1429338455200195
1783696712154695200,1.625695068359375,-0.4312783479690552,0.9367984533309937,-1.2993570566177368
1783696712164658400,1.635658447265625,-0.43462270498275757,0.6071290969848633,-1.352799892425537
1783696712174621400,1.645621337890625,-0.37641558051109314,0.25899454951286316,-1.3088915348052979
1783696712184584400,1.65558447265625,-0.31568798422813416,-0.0507999062538147,-1.2565115690231323
1783696712194547200,1.665547119140625,-0.3176049292087555,-0.31391197443008423,-1.3120079040527344
1783696712204509200,1.67550927734375,-0.3889782130718231,-0.4987856149673462,-1.4952462911605835
1783696712214472200,1.68547216796875,-0.5189926624298096,-0.6150355339050293,-1.6676141023635864
1783696712224435500,1.695435546875,-0.5965859293937683,-0.6098677515983582,-1.6674766540527344
1783696712234398500,1.7053984375,-0.5577461123466492,-0.6431567668914795,-1.4685003757476807
1783696712244361200,1.715361328125,-0.4288100600242615,-0.7640712857246399,-1.0846961736679077
1783696712254324200,1.72532421875,-0.24821844696998596,-0.9430410265922546,-0.5546547770500183
1783696712264287200,1.735287353515625,-0.0567178912460804,-1.1525713205337524,0.0466390997171402
1783696712274249200,1.745249267578125,0.11855112761259079,-1.3718138933181763,0.6362301707267761
1783696712284212200,1.755212158203125,0.2458864003419876,-1.6286429166793823,1.0998929738998413
1783696712294175200,1.76517529296875,0.39226382970809937,-1.8703609704971313,1.3849377632141113
1783696712304138200,1.77513818359375,0.5779371857643127,-1.9858967065811157,1.4920158386230469
1783696712314101200,1.785101318359375,0.7386823892593384,-1.951059103012085,1.464310884475708
1783696712324064300,1.795064208984375,0.8399721384048462,-1.7535417079925537,1.3666706085205078
1783696712334027300,1.80502734375,0.8845667243003845,-1.427964687347412,1.2463651895523071
1783696712343989200,1.8149892578125,0.8670251369476318,-1.0004607439041138,1.112607717514038
1783696712353952300,1.8249521484375,0.8145360946655273,-0.46853771805763245,0.9983051419258118
1783696712363915300,1.834915283203125,0.7577428817749023,0.16242749989032745,0.9097586870193481
1783696712373878300,1.844878173828125,0.7227540016174316,0.8129610419273376,0.8696224093437195
1783696712383841300,1.85484130859375,0.7064456343650818,1.350735068321228,0.875777006149292
1783696712393804300,1.86480419921875,0.6964819431304932,1.6712430715560913,0.9051194787025452
1783696712403767300,1.874767333984375,0.6864461898803711,1.6325139999389648,0.9648918509483337
1783696712413729300,1.884729248046875,0.6711732745170593,1.3776118755340576,1.0928977727890015
1783696712423692300,1.8946923828125,0.616217851638794,1.1066278219223022,1.2920631170272827
1783696712433655300,1.9046552734375,0.521841824054718,0.8145599961280823,1.5163180828094482
1783696712443618300,1.914618408203125,0.4288928210735321,0.5196428894996643,1.7318158149719238
1783696712453581300,1.924581298828125,0.3917992413043976,0.24085970222949982,1.9368339776992798
1783696712463544300,1.93454443359375,0.42513805627822876,-0.04863610118627548,2.09993839263916
1783696712473507000,1.944507080078125,0.5144663453102112,-0.2571280300617218,2.194952964782715
1783696712483469300,1.95446923828125,0.6216939091682434,-0.16949951648712158,2.2071115970611572
1783696712493432300,1.964432373046875,0.7311128377914429,-0.04489392787218094,2.1908085346221924
1783696712503395300,1.974395263671875,0.7921534180641174,0.4663688540458679,2.1145098209381104
1783696712513358300,1.9843583984375,0.8422445058822632,0.9796766638755798,1.9033843278884888
1783696712523321000,1.994321044921875,0.8722369074821472,1.1256179809570312,1.4984573125839233
1783696712533284000,2.0042841796875,0.8805505037307739,0.8852315545082092,0.951346755027771
1783696712543247000,2.0142470703125,0.922870397567749,0.6270486116409302,0.4854721128940582
1783696712553209300,2.024209228515625,0.9434632658958435,0.6568179130554199,0.2534458041191101
1783696712563172400,2.03417236328125,0.8693375587463379,0.8498788475990295,0.2221778929233551
1783696712573135400,2.04413525390625,0.7284728288650513,0.9142162799835205,0.26606863737106323
1783696712583098000,2.05409814453125,0.5998099446296692,0.8099735975265503,0.2658080458641052
1783696712593061000,2.06406103515625,0.5146018266677856,0.6903178095817566,0.11618579924106598
1783696712603024100,2.074024169921875,0.4715269207954407,0.7055022716522217,-0.2404257208108902
1783696712612987400,2.0839873046875,0.4837694764137268,0.8344008922576904,-0.7553783059120178
1783696712622949400,2.093949462890625,0.5901353359222412,0.9748075604438782,-1.2630456686019897
1783696712632912100,2.103912109375,0.7683146595954895,1.0269758701324463,-1.6384174823760986
1783696712642875100,2.113875244140625,0.9814807176589966,0.9128457307815552,-1.8638558387756348
1783696712652838100,2.123838134765625,1.1922578811645508,0.7211306095123291,-1.939882516860962
1783696712662801200,2.13380126953125,1.3418694734573364,0.5203365683555603,-1.892907977104187
1783696712672764400,2.143764404296875,1.424162745475769,0.3645171523094177,-1.745564579963684
1783696712682726100,2.15372607421875,1.4385613203048706,0.27304866909980774,-1.521509051322937
1783696712692689200,2.163689208984375,1.3851404190063477,0.24178050458431244,-1.2633986473083496
1783696712702652200,2.173652099609375,1.278325080871582,0.24296563863754272,-1.0166267156600952
1783696712712615200,2.183615234375,1.1558220386505127,0.28354501724243164,-0.8172691464424133
1783696712722578200,2.193578125,1.034289836883545,0.37113988399505615,-0.6947703957557678
1783696712732541400,2.20354150390625,0.9313674569129944,0.5096959471702576,-0.6661909222602844
1783696712742504400,2.21350439453125,0.8795721530914307,0.7027585506439209,-0.7029749751091003
1783696712752466200,2.223466064453125,0.8663418292999268,0.963813304901123,-0.7750973701477051
1783696712762429200,2.23342919921875,0.8779174089431763,1.2684160470962524,-0.8603276014328003
1783696712772392200,2.24339208984375,0.8909620642662048,1.5858310461044312,-0.9435516595840454
1783696712782355200,2.253355224609375,0.8978183269500732,1.8750578165054321,-1.011249303817749
1783696712792318500,2.263318359375,0.9165177345275879,2.1235108375549316,-1.0620019435882568
1783696712802281200,2.27328125,0.974933385848999,2.3413798809051514,-1.0911943912506104
1783696712812244200,2.283244140625,1.0792313814163208,2.5623974800109863,-1.1246980428695679
1783696712822206200,2.293206298828125,1.2210462093353271,2.7420542240142822,-1.1558291912078857
1783696712832169200,2.303169189453125,1.3624781370162964,2.819375991821289,-1.171271800994873
1783696712842132200,2.31313232421875,1.464286208152771,2.763400077819824,-1.1590217351913452
1783696712852095500,2.323095458984375,1.4443726539611816,2.675769329071045,-1.0596776008605957
1783696712862058200,2.333058349609375,1.2720999717712402,2.5743610858917236,-0.8468447923660278
1783696712872021200,2.343021240234375,1.0022069215774536,2.1957788467407227,-0.6087086796760559
1783696712881983200,2.352983154296875,0.676045835018158,1.6231802701950073,-0.3419346809387207
1783696712891946200,2.3629462890625,0.2915588915348053,1.2023528814315796,-0.05460808426141739
1783696712901909500,2.372909423828125,-0.1337941437959671,0.9282178282737732,0.20779743790626526
1783696712911872500,2.38287255859375,-0.5527000427246094,0.7087637782096863,0.40337467193603516
1783696712921835800,2.392835693359375,-0.9517637491226196,0.4622771143913269,0.4933367967605591
1783696712931798800,2.402798828125,-1.3008160591125488,0.03238645941019058,0.45010730624198914
1783696712941761800,2.41276171875,-1.5232980251312256,-0.578591525554657,0.2881922125816345
1783696712951723500,2.4227236328125,-1.504982829093933,-1.1597479581832886,0.05849562957882881
1783696712961686500,2.4326865234375,-1.2137627601623535,-1.5217851400375366,-0.14137810468673706
1783696712971649500,2.4426494140625,-0.759139358997345,-1.560245156288147,-0.235563725233078
1783696712981612800,2.45261279296875,-0.3231123089790344,-1.3865851163864136,-0.25044557452201843
1783696712991575800,2.462575927734375,-0.09296377748250961,-1.185564637184143,-0.22994749248027802
1783696713001538800,2.472538818359375,-0.056677889078855515,-0.9250359535217285,-0.12776975333690643
1783696713011501600,2.48250146484375,-0.12589077651500702,-0.5887532830238342,0.15068769454956055
1783696713021463600,2.492463623046875,-0.25408464670181274,-0.22448137402534485,0.5455443263053894
1783696713031426600,2.502426513671875,-0.4148184061050415,0.02077471651136875,0.8131763339042664
1783696713041389800,2.512389892578125,-0.6480419635772705,-0.0370568186044693,0.7676700353622437
1783696713051352800,2.522352783203125,-0.9731124639511108,-0.392229825258255,0.3845927119255066
1783696713061315600,2.532315673828125,-1.2807297706604004,-0.7975172996520996,-0.19803525507450104
1783696713071278600,2.542278564453125,-1.4306588172912598,-0.9586316347122192,-0.7085731029510498
1783696713081241600,2.55224169921875,-1.3967978954315186,-0.8164076209068298,-1.0185247659683228
1783696713091203600,2.56220361328125,-1.2674611806869507,-0.4947217106819153,-1.1509166955947876
1783696713101166800,2.572166748046875,-1.142654538154602,-0.15552954375743866,-1.15126633644104
1783696713111129600,2.582129638671875,-1.081317663192749,0.024605607613921165,-1.1009182929992676
1783696713121092600,2.592092529296875,-1.0412800312042236,-0.0009717436041682959,-1.0445212125778198
1783696713131055600,2.6020556640625,-0.9291750192642212,-0.17216826975345612,-0.9779044389724731
1783696713141018600,2.6120185546875,-0.7301883697509766,-0.387149453163147,-0.8960219025611877
1783696713150981600,2.621981689453125,-0.5083808898925781,-0.6244957447052002,-0.8120449781417847
1783696713160943900,2.63194384765625,-0.3163723349571228,-0.8559650182723999,-0.7517278790473938
1783696713170906600,2.64190673828125,-0.20090056955814362,-1.0218431949615479,-0.7336626052856445
1783696713180869600,2.65186962890625,-0.17929576337337494,-1.077979326248169,-0.7436676025390625
1783696713190832600,2.66183251953125,-0.23623840510845184,-0.9823158979415894,-0.752081036567688
1783696713200795600,2.671795654296875,-0.33113622665405273,-0.764230489730835,-0.7400403618812561
1783696713210758700,2.681758544921875,-0.4158247411251068,-0.4862894117832184,-0.7014873623847961
1783696713220720600,2.691720703125,-0.47927138209342957,-0.2112404853105545,-0.6499883532524109
1783696713230683600,2.70168359375,-0.5242830514907837,0.04872956499457359,-0.582736074924469
1783696713240646700,2.711646728515625,-0.5343945622444153,0.2808903157711029,-0.4810631275177002
1783696713250609700,2.721609619140625,-0.49817314743995667,0.40262821316719055,-0.3447393774986267
1783696713260572700,2.73157275390625,-0.4091172218322754,0.42760440707206726,-0.16125737130641937
1783696713270535700,2.74153564453125,-0.2715130150318146,0.40241143107414246,0.06261700391769409
1783696713280498700,2.751498779296875,-0.10248105227947235,0.3728444278240204,0.3119039535522461
1783696713290460700,2.761460693359375,0.053055018186569214,0.32111304998397827,0.5611537098884583
1783696713300423700,2.771423583984375,0.1569584459066391,0.2636205852031708,0.7523279190063477
1783696713310386700,2.78138671875,0.19647017121315002,0.24186068773269653,0.8618128895759583
1783696713320349700,2.791349609375,0.1910974234342575,0.2812093496322632,0.9012139439582825
1783696713330312700,2.801312744140625,0.13784219324588776,0.38709741830825806,0.9067988991737366
1783696713340275500,2.811275390625,0.043491020798683167,0.49015164375305176,0.9137716293334961
1783696713350238500,2.821238525390625,-0.04351365193724632,0.4776928424835205,0.9534862637519836
1783696713360200700,2.83120068359375,-0.10713563114404678,0.293136864900589,1.067286729812622
1783696713370163700,2.841163818359375,-0.13512839376926422,-0.11597339063882828,1.2407338619232178
1783696713380126700,2.851126708984375,-0.09646807610988617,-0.709444522857666,1.414330244064331
1783696713390089700,2.86108984375,0.038180284202098846,-1.300673246383667,1.5128275156021118
1783696713400052500,2.871052490234375,0.22960908710956573,-1.6308928728103638,1.4245272874832153
1783696713410015500,2.881015380859375,0.4481757879257202,-1.5900191068649292,1.1574214696884155
1783696713419977700,2.890977783203125,0.7545183897018433,-1.275161623954773,0.8375436067581177
1783696713429940700,2.900940673828125,1.0778075456619263,-0.8770898580551147,0.4449944794178009
1783696713439903700,2.91090380859375,1.2909067869186401,-0.9139120578765869,-0.08958902955055237
1783696713449866500,2.920866455078125,1.326820731163025,-1.1659469604492188,-0.7381460070610046
1783696713459829500,2.93082958984375,1.1124383211135864,-1.135655164718628,-1.3168448209762573
1783696713469792500,2.94079248046875,0.6421157717704773,-0.6273513436317444,-1.5639930963516235
1783696713479755500,2.950755615234375,-0.009455978870391846,0.07573718577623367,-1.377052664756775
1783696713489717800,2.9607177734375,-0.5935724377632141,0.6389952301979065,-0.9058307409286499
1783696713499680500,2.970680419921875,-0.9788315892219543,0.775943398475647,-0.500625491142273
1783696713509643500,2.9806435546875,-1.1671868562698364,0.6917571425437927,-0.34150296449661255
1783696713519606500,2.9906064453125,-1.1079840660095215,0.5818965435028076,-0.38500097393989563
1783696713529569500,3.000569580078125,-0.7859645485877991,0.48560279607772827,-0.48563170433044434
1783696713539532500,3.010532470703125,-0.3377428352832794,0.3311401605606079,-0.5528079867362976
1783696713549495800,3.020495849609375,0.0748543068766594,0.026855621486902237,-0.5699459910392761
1783696713559457500,3.03045751953125,0.3143816590309143,-0.4749225080013275,-0.5751141309738159
1783696713569420500,3.040420654296875,0.3507692217826843,-1.0899628400802612,-0.6060238480567932
1783696713579383600,3.050383544921875,0.275201678276062,-1.5802390575408936,-0.6245865821838379
1783696713589346600,3.0603466796875,0.17379595339298248,-1.8179024457931519,-0.6063713431358337
1783696713599309600,3.0703095703125,0.06717582046985626,-1.7942180633544922,-0.5933091640472412
1783696713609272800,3.08027294921875,-0.047855157405138016,-1.5261613130569458,-0.594536304473877
1783696713619234600,3.090234619140625,-0.1587429791688919,-1.1555829048156738,-0.6154063940048218
1783696713629197600,3.100197509765625,-0.26068422198295593,-0.8030978441238403,-0.6896569132804871
1783696713639160600,3.11016064453125,-0.35817354917526245,-0.48569852113723755,-0.8280368447303772
1783696713649123600,3.12012353515625,-0.4627809226512909,-0.14049425721168518,-0.9477142095565796
1783696713659086600,3.130086669921875,-0.5628422498703003,0.18318387866020203,-0.9453222751617432
1783696713669049900,3.1400498046875,-0.6110835671424866,0.42431551218032837,-0.8284334540367126
1783696713679012600,3.1500126953125,-0.5866115689277649,0.6225734353065491,-0.6676634550094604
1783696713688974600,3.159974609375,-0.48256319761276245,0.7697964310646057,-0.49379202723503113
1783696713698937600,3.1699375,-0.3430352509021759,0.8490049839019775,-0.3316146731376648
1783696713708900600,3.179900634765625,-0.19791509211063385,0.9362061619758606,-0.15553045272827148
1783696713718863600,3.189863525390625,-0.07555719465017319,0.9820745587348938,0.02146810106933117
1783696713728826600,3.19982666015625,0.011403266340494156,0.9623295664787292,0.22122728824615479
1783696713738789600,3.20978955078125,0.07104958593845367,0.9146347045898438,0.4327825605869293
1783696713748751600,3.219751708984375,0.13918575644493103,0.8488226532936096,0.6375383734703064
1783696713758714600,3.229714599609375,0.21365588903427124,0.767055094242096,0.8082536458969116
1783696713768677600,3.239677734375,0.2645004093647003,0.6935097575187683,0.9176496267318726
1783696713778640600,3.249640625,0.2764042615890503,0.6546257138252258,0.955920934677124
1783696713788603600,3.259603759765625,0.2777877748012543,0.589910626411438,0.9209184646606445
1783696713798566700,3.269566650390625,0.26128682494163513,0.5059986710548401,0.8589547872543335
1783696713808529700,3.27952978515625,0.21842965483665466,0.36913082003593445,0.7893394827842712
1783696713818491600,3.28949169921875,0.1753789484500885,0.14381010830402374,0.7275161147117615
1783696713828454700,3.29945458984375,0.14218877255916595,-0.161449134349823,0.6859700083732605
1783696713838417400,3.30941748046875,0.12442173063755035,-0.5870690941810608,0.6145438551902771
1783696713848380700,3.319380615234375,0.14274880290031433,-1.0666288137435913,0.5132251977920532
1783696713858343700,3.32934375,0.1884995400905609,-1.2158252000808716,0.37657222151756287
1783696713868306700,3.339306640625,0.28011786937713623,-1.1774077415466309,0.16814309358596802
1783696713878269700,3.349269775390625,0.41085085272789,-0.8843561410903931,0.023870225995779037
1783696713888231700,3.359231689453125,0.5904253721237183,-0.5005751848220825,0.029870327562093735
1783696713898194400,3.3691943359375,0.8117328882217407,-0.16069330275058746,0.2339187115430832
1783696713908158000,3.379157958984375,0.9949826002120972,0.12941735982894897,0.5167182087898254
1783696713918121200,3.389121337890625,1.036946415901184,0.4113491475582123,0.6724206209182739
1783696713928084000,3.399083984375,0.924136221408844,0.873537540435791,0.6019022464752197
1783696713938047000,3.409046875,0.7622565031051636,1.5233619213104248,0.458234578371048
1783696713948009000,3.419009033203125,0.618455708026886,2.0928633213043213,0.4319944679737091
1783696713957972000,3.428971923828125,0.4942295253276825,2.25628399848938,0.5554057359695435
1783696713967935000,3.43893505859375,0.38835474848747253,1.9980148077011108,0.7119199633598328
1783696713977898200,3.448898193359375,0.17082560062408447,1.4222334623336792,0.6908407807350159
1783696713987861000,3.458861083984375,-0.20428036153316498,0.7100293040275574,0.3804139792919159
1783696713997824000,3.468823974609375,-0.5932347774505615,0.09949568659067154,-0.08686251193284988
1783696714007787000,3.478787109375,-0.8775421380996704,-0.29142919182777405,-0.5028319954872131
1783696714017749000,3.4887490234375,-1.024539828300476,-0.48304858803749084,-0.7369939684867859
1783696714027712000,3.4987119140625,-1.0643237829208374,-0.5553526282310486,-0.8076614737510681
1783696714037675000,3.508675048828125,-1.0659959316253662,-0.5014074444770813,-0.7999482154846191
1783696714047638000,3.518637939453125,-1.0581108331680298,-0.346871942281723,-0.7494839429855347
1783696714057601000,3.52860107421875,-1.0215212106704712,-0.15810416638851166,-0.6769353747367859
1783696714067564000,3.53856396484375,-0.9422279000282288,0.014216738753020763,-0.6147441864013672
1783696714077526000,3.548526123046875,-0.7906860709190369,0.13046321272850037,-0.5689871907234192
1783696714087489000,3.558489013671875,-0.5869566798210144,0.17343437671661377,-0.5245070457458496
1783696714097452000,3.5684521484375,-0.37326881289482117,0.14115571975708008,-0.48192712664604187
1783696714107415000,3.5784150390625,-0.18986064195632935,0.061395108699798584,-0.449979305267334
1783696714117378000,3.5883779296875,-0.058508601039648056,-0.03278450667858124,-0.422293484210968
1783696714127341000,3.598341064453125,0.02727528102695942,-0.1253615766763687,-0.3867189884185791
1783696714137304000,3.608303955078125,0.07086385786533356,-0.20946380496025085,-0.3262885808944702
1783696714147265800,3.618265869140625,0.08019157499074936,-0.26207056641578674,-0.2388029247522354
1783696714157229000,3.62822900390625,0.06452299654483795,-0.2576853930950165,-0.14319002628326416
1783696714167192000,3.638192138671875,0.039929237216711044,-0.18158049881458282,-0.07199999690055847
1783696714177155000,3.648155029296875,0.009730091318488121,-0.019986072555184364,-0.03406152129173279
1783696714187118000,3.6581181640625,-0.002929776906967163,0.20420709252357483,-0.038906875997781754
1783696714197081000,3.6680810546875,0.013183536939322948,0.46149641275405884,-0.08929591625928879
1783696714207042800,3.678042724609375,0.03805506229400635,0.7133992314338684,-0.17814455926418304
1783696714217006000,3.688006103515625,0.044492367655038834,0.9279497861862183,-0.2871902883052826
1783696714226969000,3.697968994140625,0.04278261959552765,1.1038463115692139,-0.37439844012260437
1783696714236932000,3.70793212890625,0.02458454668521881,1.1807488203048706,-0.44534289836883545
1783696714246895000,3.71789501953125,-0.04467308893799782,1.137912392616272,-0.5041700005531311
1783696714256858000,3.727858154296875,-0.1386903077363968,0.9854893684387207,-0.5401262044906616
1783696714266820900,3.73782080078125,-0.21041375398635864,0.796352207660675,-0.5458487868309021
1783696714276783000,3.747783203125,-0.25503069162368774,0.6104848980903625,-0.5400750041007996
1783696714286746000,3.75774609375,-0.2718123197555542,0.39640533924102783,-0.5522390007972717
1783696714296709000,3.767709228515625,-0.25576305389404297,0.12385756522417068,-0.5936718583106995
1783696714306672000,3.777672119140625,-0.20613904297351837,-0.12591685354709625,-0.5796082019805908
1783696714316635000,3.787634765625,-0.10289262980222702,-0.4315061867237091,-0.4916750192642212
1783696714326598000,3.797597900390625,0.0715276449918747,-0.797214925289154,-0.3616850674152374
1783696714336561000,3.807560791015625,0.3130055367946625,-0.9909290671348572,-0.22660194337368011
1783696714346523100,3.817523193359375,0.5490607023239136,-0.824386715888977,-0.1436663269996643
1783696714356486100,3.827486083984375,0.6974173188209534,-0.391580194234848,-0.14791274070739746
1783696714366449200,3.83744921875,0.6870842576026917,0.015634462237358093,-0.2416994273662567
1783696714376412000,3.847411865234375,0.4560644030570984,0.11917698383331299,-0.4183602035045624
1783696714386375000,3.857375,0.0795149952173233,-0.09465540945529938,-0.5972830653190613
1783696714396338000,3.867337890625,-0.2883285582065582,-0.4076649844646454,-0.6449030041694641
1783696714406301000,3.877301025390625,-0.5277557373046875,-0.6602860689163208,-0.5338297486305237
1783696714416263200,3.88726318359375,-0.6338812708854675,-0.8682572841644287,-0.34823888540267944
1783696714426226000,3.897225830078125,-0.704689621925354,-1.0760242938995361,-0.2076772302389145
1783696714436189000,3.90718896484375,-0.7911680936813354,-1.236043930053711,-0.205181285738945
1783696714446152000,3.91715185546875,-0.829079270362854,-1.2783328294754028,-0.3197275698184967
1783696714456115000,3.927114990234375,-0.7561966776847839,-1.2038154602050781,-0.45553234219551086
1783696714466078000,3.937077880859375,-0.593159019947052,-0.992391049861908,-0.5422059893608093
1783696714476041000,3.947041015625,-0.3936058282852173,-0.7268126010894775,-0.5819161534309387
1783696714486003000,3.9570029296875,-0.2200516164302826,-0.5515236258506775,-0.5995042324066162
1783696714495966000,3.966966064453125,-0.10367130488157272,-0.5355094075202942,-0.5766990780830383
1783696714505929000,3.976928955078125,-0.035492248833179474,-0.6654354333877563,-0.4988812804222107
1783696714515892000,3.98689208984375,0.03580259904265404,-0.8885074853897095,-0.32935142517089844
1783696714525855000,3.99685498046875,0.12277717888355255,-1.1317352056503296,-0.07386557012796402
1783696714535818000,4.00681787109375,0.20066098868846893,-1.3072973489761353,0.19950202107429504
1783696714545781000,4.016781005859375,0.29189980030059814,-1.3730311393737793,0.43081194162368774
1783696714555743000,4.026742919921875,0.4033442437648773,-1.3786368370056152,0.6115676164627075
1783696714565706000,4.0367060546875,0.4801980257034302,-1.313779354095459,0.6620963215827942
1783696714575669000,4.0466689453125,0.5224973559379578,-1.1039159297943115,0.5926948189735413
1783696714585632000,4.056632080078125,0.572769045829773,-0.7685103416442871,0.4563518762588501
1783696714595595000,4.066594970703125,0.6402869820594788,-0.3912467062473297,0.2734406590461731
1783696714605558000,4.07655810546875,0.7075653672218323,0.022494809702038765,0.059887077659368515
1783696714615521000,4.08652099609375,0.7668778300285339,0.42889082431793213,-0.14540717005729675
1783696714625483000,4.09648291015625,0.7946851849555969,0.7842406630516052,-0.315292626619339
1783696714635446000,4.106446044921875,0.7951669096946716,1.0531061887741089,-0.42884162068367004
1783696714645409000,4.116408935546875,0.7778209447860718,1.1603270769119263,-0.4727416932582855
1783696714655372000,4.1263720703125,0.7483187317848206,1.1201167106628418,-0.42404237389564514
1783696714665335000,4.1363349609375,0.7142750024795532,0.9893832206726074,-0.27252286672592163
1783696714675298000,4.146298095703125,0.6849997043609619,0.8128504753112793,-0.029843585565686226
1783696714685260000,4.156260009765625,0.6494094729423523,0.6003552675247192,0.24847006797790527
1783696714695223000,4.16622314453125,0.5922271609306335,0.39058685302734375,0.4873207211494446
1783696714705186000,4.17618603515625,0.5186629295349121,0.2715272903442383,0.6544591188430786
1783696714715148800,4.186148681640625,0.44334474205970764,0.22571803629398346,0.7503602504730225
1783696714725112000,4.196112060546875,0.37417659163475037,0.18323847651481628,0.7707619071006775
1783696714735075000,4.206074951171875,0.32348448038101196,0.1694745421409607,0.6985297203063965
1783696714745038000,4.2160380859375,0.26155558228492737,-0.1831037551164627,0.6885306239128113
1783696714755000000,4.226,0.23455312848091125,-0.6415219902992249,0.7346952557563782
1783696714764962800,4.235962890625,0.2305930107831955,-0.9448368549346924,0.8013472557067871
1783696714774925800,4.24592578125,0.2501922845840454,-0.8709835410118103,0.7716588973999023
1783696714784889000,4.25588916015625,0.28045591711997986,-0.4710923433303833,0.6217618584632874
1783696714794852000,4.26585205078125,0.33068299293518066,-0.13588939607143402,0.43680211901664734
1783696714804815000,4.275815185546875,0.33646684885025024,-0.010476076044142246,0.2222229540348053
1783696714814778000,4.285778076171875,0.3050293028354645,-0.11692262440919876,0.12170460820198059
1783696714824739800,4.29573974609375,0.2565690875053406,-0.3735956847667694,0.22677616775035858
1783696714834702800,4.305702880859375,0.18348051607608795,-0.6700236797332764,0.4572841227054596
1783696714844666000,4.315666015625,0.09378605335950851,-0.89577716588974,0.686007559299469
1783696714854629000,4.325629150390625,-0.02047896198928356,-0.9042423367500305,0.8957998752593994
1783696714864592100,4.335592041015625,-0.22467869520187378,-0.6944590210914612,1.068676233291626
1783696714874555100,4.34555517578125,-0.4504131078720093,-0.3897256553173065,1.1091301441192627
1783696714884518000,4.355517822265625,-0.6159620881080627,-0.10986337810754776,0.947558581829071
1783696714894480000,4.36547998046875,-0.7458911538124084,0.0887172520160675,0.6234394907951355
1783696714904442000,4.375442138671875,-0.8558487892150879,0.19399654865264893,0.23910300433635712
1783696714914405000,4.385405029296875,-0.9259277582168579,0.2417130023241043,-0.09597774595022202
1783696714924368100,4.3953681640625,-0.9400981664657593,0.2143159955739975,-0.2788706123828888
1783696714934331000,4.405330810546875,-0.9148758053779602,0.07021953910589218,-0.2675136625766754
1783696714944294000,4.4152939453125,-0.8828981518745422,-0.21302016079425812,-0.12330986559391022
1783696714954257000,4.4252568359375,-0.8742790818214417,-0.581112265586853,0.08079662173986435
1783696714964219100,4.43521923828125,-0.9235643148422241,-0.9147483110427856,0.30609285831451416
1783696714974182100,4.44518212890625,-1.0037108659744263,-1.1734461784362793,0.5181660056114197
1783696714984145200,4.455145263671875,-1.0776301622390747,-1.3468022346496582,0.6992028951644897
1783696714994108000,4.46510791015625,-1.1276830434799194,-1.4349751472473145,0.8489125370979309
1783696715004071000,4.47507080078125,-1.1501805782318115,-1.4442501068115234,0.9392195343971252
1783696715014034000,4.485033935546875,-1.145641565322876,-1.376251220703125,0.9275025725364685
1783696715023997200,4.4949970703125,-1.1025679111480713,-1.2047516107559204,0.7711193561553955
1783696715033959200,4.504959228515625,-1.0218160152435303,-0.9096666574478149,0.489187628030777
1783696715043922000,4.514921875,-0.9063888192176819,-0.5068199038505554,0.1409449428319931
1783696715053885000,4.524885009765625,-0.793006181716919,-0.011881547048687935,-0.21456992626190186
1783696715063848000,4.534847900390625,-0.7091850638389587,0.555552065372467,-0.5261041522026062
1783696715073811000,4.54481103515625,-0.6577011942863464,1.1065398454666138,-0.77410888671875
1783696715083774200,4.554774169921875,-0.6121712327003479,1.5407469272613525,-0.9395796060562134
1783696715093737200,4.5647373046875,-0.5589096546173096,1.8255081176757812,-1.0034548044204712
1783696715103699000,4.574698974609375,-0.49407294392585754,1.9510339498519897,-0.9396649599075317
1783696715113662000,4.584661865234375,-0.42510414123535156,1.8838392496109009,-0.7298214435577393
1783696715123625000,4.594625,-0.36695483326911926,1.660719394683838,-0.3886611759662628
1783696715133588000,4.604587890625,-0.33055177330970764,1.2983036041259766,0.017343180254101753
1783696715143551200,4.61455126953125,-0.310391902923584,0.8167654275894165,0.40314891934394836
1783696715153514200,4.62451416015625,-0.27802714705467224,0.2482062727212906,0.7137002348899841
1783696715163477000,4.63447705078125,-0.2461182028055191,-0.29475101828575134,0.9312203526496887
1783696715173439000,4.64443896484375,-0.22115281224250793,-0.7159814834594727,1.0456751585006714
1783696715183402000,4.654402099609375,-0.2080540508031845,-0.9630186557769775,1.079343318939209
1783696715193365000,4.664364990234375,-0.21290701627731323,-1.0474308729171753,1.0640599727630615
1783696715203328300,4.674328369140625,-0.2367503046989441,-0.998370349407196,1.0278010368347168
1783696715213291300,4.684291259765625,-0.2557445168495178,-0.8662264347076416,1.0133832693099976
1783696715223254000,4.69425390625,-0.24706926941871643,-0.693520188331604,1.0065163373947144
1783696715233217000,4.704217041015625,-0.2112792283296585,-0.5337051153182983,0.9548617005348206
1783696715243179000,4.714178955078125,-0.14644616842269897,-0.4357391595840454,0.8209430575370789
1783696715253142000,4.72414208984375,-0.04666639491915703,-0.4031752347946167,0.6092776656150818
1783696715263105300,4.734105224609375,0.07425283640623093,-0.4133051037788391,0.3632659912109375
1783696715273068000,4.744068115234375,0.21819905936717987,-0.44830185174942017,0.13197287917137146
1783696715283031000,4.754031005859375,0.389232337474823,-0.4778408408164978,-0.06470528990030289
1783696715292994000,4.763994140625,0.5418171882629395,-0.49227088689804077,-0.2745695412158966
1783696715302957000,4.77395703125,0.6049308776855469,-0.4256143569946289,-0.5190384387969971
1783696715312920000,4.783920166015625,0.5726306438446045,-0.1624930202960968,-0.7548973560333252
1783696715322882000,4.793882080078125,0.4291384518146515,0.3264119625091553,-0.8026462197303772
1783696715332845000,4.803844970703125,0.0993821993470192,0.7754167914390564,-0.5473809838294983
1783696715342808000,4.81380810546875,-0.33856505155563354,0.8498023152351379,-0.16082130372524261
1783696715352771000,4.82377099609375,-0.7066166400909424,0.46998485922813416,0.09573552012443542
1783696715362734000,4.833734130859375,-0.9280638098716736,-0.19883796572685242,0.16218377649784088
1783696715372697000,4.843697021484375,-1.0135235786437988,-0.9643518328666687,0.0954970121383667
1783696715382660000,4.85366015625,-0.9502552151679993,-1.665034532546997,-0.00907653197646141
1783696715392622000,4.8636220703125,-0.7722028493881226,-2.210606098175049,-0.04518112167716026
1783696715402585000,4.873585205078125,-0.5616248250007629,-2.6595265865325928,0.03566232696175575
1783696715412548000,4.883548095703125,-0.3802244961261749,-3.023829221725464,0.18416757881641388
1783696715422511000,4.893510986328125,-0.25671321153640747,-3.2264256477355957,0.321846604347229
1783696715432474000,4.90347412109375,-0.17201751470565796,-3.259046792984009,0.3723626434803009
1783696715442436900,4.913436767578125,-0.09188059717416763,-3.086538076400757,0.31675636768341064
1783696715452399900,4.92339990234375,-0.0037853093817830086,-2.668323040008545,0.20003914833068848
1783696715462362000,4.933362060546875,0.09665101766586304,-2.1024599075317383,0.06451033055782318
1783696715472325000,4.9433251953125,0.21190857887268066,-1.485146403312683,-0.07681170850992203
1783696715482288000,4.9532880859375,0.325154185295105,-0.9047772884368896,-0.21177111566066742
1783696715492251100,4.963251220703125,0.42736679315567017,-0.46633514761924744,-0.3264111578464508
1783696715502214000,4.9732138671875,0.5053604245185852,-0.24467839300632477,-0.3881317675113678
1783696715512177000,4.983177001953125,0.5565944910049438,-0.1681784689426422,-0.3704814016819
1783696715522139100,4.99313916015625,0.5916422009468079,-0.17007383704185486,-0.26825860142707825
1783696715532102100,5.00310205078125,0.6076576113700867,-0.19666078686714172,-0.10777111351490021
1783696715542065200,5.013065185546875,0.5847155451774597,-0.22608019411563873,0.10663945227861404
1783696715552028000,5.02302783203125,0.5200359225273132,-0.25605669617652893,0.3468661606311798
1783696715561991000,5.032990966796875,0.4361599385738373,-0.26752451062202454,0.5932642221450806
1783696715571954000,5.042953857421875,0.3417362570762634,-0.2508339583873749,0.8264567255973816
1783696715581917000,5.0529169921875,0.2264155149459839,-0.19856862723827362,1.0513755083084106
1783696715591879200,5.062879150390625,0.09390128403902054,-0.11612804234027863,1.2425447702407837
1783696715601842200,5.07284228515625,-0.04828062281012535,-0.012062621302902699,1.401751160621643
1783696715611805000,5.082804931640625,-0.2043154537677765,0.08831077069044113,1.513372540473938
1783696715621768000,5.092767822265625,-0.3745308518409729,0.17477641999721527,1.5721285343170166
1783696715631731000,5.10273095703125,-0.543105959892273,0.2518245279788971,1.5778290033340454
1783696715641694000,5.11269384765625,-0.6888930201530457,0.3572401702404022,1.5323776006698608
1783696715651657200,5.1226572265625,-0.7894183993339539,0.5286271572113037,1.426916480064392
1783696715661619000,5.132618896484375,-0.8579918146133423,0.7911307215690613,1.2492763996124268
1783696715671582000,5.14258203125,-0.8896723985671997,1.1764869689941406,0.9815942049026489
1783696715681545000,5.152544921875,-0.8829386234283447,1.6585962772369385,0.6162314414978027
1783696715691508000,5.162508056640625,-0.8279426693916321,2.148275375366211,0.1613265722990036
1783696715701471000,5.172470947265625,-0.7004725933074951,2.4886581897735596,-0.3556379973888397
1783696715711434200,5.182434326171875,-0.4863205850124359,2.4980437755584717,-0.8639169931411743
1783696715721397200,5.192397216796875,-0.16850294172763824,2.1233069896698,-1.3013174533843994
1783696715731359000,5.20235888671875,0.25637781620025635,1.6913546323776245,-1.5651370286941528
1783696715741322000,5.212322021484375,0.7110486030578613,1.6036341190338135,-1.5875686407089233
1783696715751285000,5.222284912109375,1.0743601322174072,1.806776762008667,-1.3826236724853516
1783696715761248000,5.232248046875,1.1479151248931885,1.943274974822998,-1.0817726850509644
1783696715771211300,5.242211181640625,0.7928847670555115,1.6898130178451538,-0.7861771583557129
1783696715781174000,5.252174072265625,0.21672101318836212,1.0407776832580566,-0.5581575632095337
1783696715791137000,5.262136962890625,-0.33904120326042175,0.23305143415927887,-0.3451704680919647
1783696715801099000,5.27209912109375,-0.770858645439148,-0.5038185715675354,-0.0551794096827507
1783696715811062000,5.28206201171875,-1.0249954462051392,-0.9254359602928162,0.22313974797725677
1783696715821025000,5.29202490234375,-1.0711253881454468,-0.9574924111366272,0.30467453598976135
1783696715830988300,5.30198828125,-0.9627165794372559,-0.7918012142181396,0.11268884688615799
1783696715840951000,5.311950927734375,-0.7261703610420227,-0.624628484249115,-0.2824331820011139
1783696715852782000,5.323781982421875,-0.2670952379703522,-0.4710390865802765,-0.7867815494537354
1783696715862745000,5.3337451171875,0.18783670663833618,-0.27289876341819763,-1.0263478755950928
1783696715872707000,5.34370703125,0.594391942024231,-0.02844693511724472,-1.0001220703125
1783696715882670000,5.353670166015625,0.8775458335876465,0.14217950403690338,-0.7793857455253601
1783696715892633000,5.363633056640625,0.99234539270401,0.14441469311714172,-0.49682196974754333
1783696715902596000,5.37359619140625,0.9509978890419006,0.007253255695104599,-0.2009267359972
1783696715912558800,5.383558837890625,0.7850989699363708,-0.20717434585094452,0.07928147912025452
1783696715922521900,5.39352197265625,0.5618057250976562,-0.43529829382896423,0.3073841333389282
1783696715932483800,5.40348388671875,0.343267560005188,-0.6339602470397949,0.45269525051116943
1783696715942446800,5.41344677734375,0.1555548757314682,-0.7859523892402649,0.4807266891002655
1783696715952409900,5.423409912109375,-0.005442273803055286,-0.8654554486274719,0.4015248119831085
1783696715962372900,5.433372802734375,-0.11856229603290558,-0.8240200281143188,0.24289953708648682
1783696715972335900,5.4433359375,-0.16699162125587463,-0.6699857711791992,0.031015511602163315
1783696715982299000,5.453298828125,-0.17325513064861298,-0.4468371272087097,-0.2001204788684845
1783696715992262000,5.463261962890625,-0.15435227751731873,-0.20614144206047058,-0.4075982868671417
1783696716002223900,5.473223876953125,-0.12615709006786346,0.0010327601339668036,-0.5571051239967346
1783696716012187000,5.483186767578125,-0.09754569828510284,0.15077272057533264,-0.6365850567817688
1783696716022150000,5.49314990234375,-0.07659084349870682,0.24419160187244415,-0.6546284556388855
1783696716032113000,5.50311279296875,-0.07070312649011612,0.3379034399986267,-0.6318832039833069
1783696716042076000,5.513075927734375,-0.056869689375162125,0.4971105754375458,-0.5854170322418213
1783696716052039000,5.523038818359375,-0.024794578552246094,0.69752436876297,-0.5172187685966492
1783696716062002000,5.533001953125,0.0280215535312891,0.9207708835601807,-0.4257678985595703
1783696716071964000,5.5429638671875,0.09676758944988251,1.1075551509857178,-0.30508917570114136
1783696716081927000,5.552927001953125,0.1592714786529541,1.217367172241211,-0.16078348457813263
1783696716091890000,5.562889892578125,0.21569934487342834,1.2975897789001465,-0.009151623584330082
1783696716101853000,5.57285302734375,0.26370885968208313,1.402305245399475,0.14397409558296204
1783696716111816000,5.58281591796875,0.30044370889663696,1.5331155061721802,0.2780221700668335
1783696716121779000,5.592779052734375,0.32415398955345154,1.686331868171692,0.3682645857334137
1783696716131741000,5.602740966796875,0.3243127167224884,1.9021815061569214,0.4414258897304535
1783696716141704000,5.612703857421875,0.30519381165504456,2.1502270698547363,0.5071521997451782
1783696716151667000,5.6226669921875,0.2754811942577362,2.412388801574707,0.5649142861366272
1783696716161630000,5.6326298828125,0.26026442646980286,2.6652462482452393,0.6044331789016724
1783696716172215000,5.643215087890625,0.2838400602340698,2.8477630615234375,0.6096442341804504
1783696716182177800,5.653177734375,0.33798134326934814,2.858734130859375,0.562086284160614
1783696716192140800,5.663140869140625,0.4015556871891022,2.75242018699646,0.4438153803348541
1783696716202103800,5.673103759765625,0.4788728356361389,2.602860927581787,0.23847554624080658
1783696716212066800,5.68306689453125,0.6005899906158447,2.394294500350952,-0.11571063101291656
1783696716222029800,5.69302978515625,0.7107234597206116,2.062319040298462,-0.6653473973274231
1783696716231991800,5.70299169921875,0.680404782295227,1.4939091205596924,-1.3729523420333862
1783696716241954800,5.712954833984375,0.41830578446388245,0.5508147478103638,-2.1278765201568604
1783696716251917800,5.722917724609375,-0.061168406158685684,-0.5024790167808533,-2.6436004638671875
1783696716261880800,5.732880859375,-0.6121450066566467,-1.2078826427459717,-2.8308329582214355
1783696716271843800,5.74284375,-1.0667834281921387,-1.451146125793457,-2.8408424854278564
1783696716281806800,5.752806884765625,-1.3660324811935425,-0.7926760315895081,-2.793480634689331
1783696716291768800,5.762768798828125,-1.3753935098648071,0.024875186383724213,-2.640326976776123
1783696716301731800,5.77273193359375,-1.1297227144241333,0.6554768085479736,-2.5965216159820557
1783696716311694800,5.78269482421875,-0.8065962195396423,1.0667253732681274,-2.801116466522217
1783696716321657900,5.792657958984375,-0.5813532471656799,1.3657011985778809,-3.198394775390625
1783696716331620900,5.802620849609375,-0.5427048802375793,1.4823639392852783,-3.541907787322998
1783696716341584000,5.812583984375,-0.6877382397651672,1.4270333051681519,-3.611551284790039
1783696716351547000,5.822546875,-0.9520553946495056,1.2131067514419556,-3.385610818862915
1783696716361508900,5.8325087890625,-1.2456246614456177,0.9165059328079224,-2.9951207637786865
1783696716371472000,5.842471923828125,-1.4845776557922363,0.5981401801109314,-2.5803098678588867
1783696716381435000,5.852434814453125,-1.6658835411071777,0.19890064001083374,-2.206963539123535
1783696716391398000,5.86239794921875,-1.8363559246063232,-0.28895288705825806,-1.8431553840637207
1783696716401361000,5.87236083984375,-1.941784381866455,-0.8184662461280823,-1.4068366289138794
1783696716411324000,5.882323974609375,-1.9338881969451904,-1.3459537029266357,-0.8974912762641907
1783696716421287000,5.892286865234375,-1.8192481994628906,-1.8370795249938965,-0.3296339809894562
1783696716431249000,5.902248779296875,-1.593991994857788,-2.190166711807251,0.2630269527435303
1783696716441212000,5.9122119140625,-1.2408443689346313,-2.262589454650879,0.8126397132873535
1783696716451175000,5.9221748046875,-0.7448932528495789,-2.0553460121154785,1.2906520366668701
1783696716461137700,5.9321376953125,-0.17752008140087128,-1.7285834550857544,1.640198826789856
1783696716471101000,5.942100830078125,0.3511268198490143,-1.2414276599884033,1.9231789112091064
1783696716481064000,5.95206396484375,0.7767564058303833,-0.6166281700134277,2.1943650245666504
1783696716491027000,5.96202685546875,1.0503515005111694,-0.06853576004505157,2.385950803756714
1783696716500989000,5.971989013671875,1.1740946769714355,0.34461212158203125,2.522808313369751
1783696716510952000,5.981951904296875,1.1739393472671509,0.6115378141403198,2.635416030883789
1783696716520914700,5.991914794921875,1.0889238119125366,0.7162402272224426,2.707702398300171
1783696716530878000,6.0018779296875,0.9821886420249939,0.687801718711853,2.743192434310913
1783696716540841000,6.011841064453125,0.8949596881866455,0.5822878479957581,2.7425029277801514
1783696716550804000,6.021803955078125,0.857538104057312,0.4586832821369171,2.698458671569824
1783696716560766000,6.031765869140625,0.8725833892822266,0.3463277220726013,2.5915589332580566
1783696716570728700,6.041728759765625,0.9208064079284668,0.26061129570007324,2.393181324005127
1783696716580691700,6.051691650390625,0.9849401116371155,0.1985604465007782,2.121403694152832
1783696716590655000,6.061655029296875,1.053366780281067,0.1425398737192154,1.8146088123321533
1783696716600618000,6.071617919921875,1.1195157766342163,0.12614093720912933,1.5048884153366089
1783696716610581000,6.0815810546875,1.161669135093689,0.2276051640510559,1.2358014583587646
1783696716620544000,6.0915439453125,1.1582746505737305,0.5314995646476746,1.0434319972991943
1783696716630505700,6.101505615234375,1.090659737586975,1.011841058731079,0.8995934724807739
1783696716640468700,6.11146875,0.9829221367835999,1.564318299293518,0.7441197037696838
1783696716650431700,6.121431640625,0.9025220274925232,2.0586752891540527,0.5593211054801941
1783696716660395000,6.13139501953125,0.8855129480361938,2.388441801071167,0.362295925617218
1783696716670358000,6.14135791015625,0.9592716693878174,2.4349567890167236,0.17476359009742737
1783696716680321000,6.151321044921875,1.1571143865585327,2.246105670928955,-0.04845377802848816
1783696716690283800,6.16128369140625,1.441688060760498,1.9239684343338013,-0.33594802021980286
1783696716700245800,6.171245849609375,1.6737838983535767,1.4465166330337524,-0.6846607327461243
1783696716710208800,6.181208740234375,1.709417700767517,0.8334002494812012,-0.9082559943199158
1783696716720172000,6.191172119140625,1.4367079734802246,0.3824509084224701,-0.8941795825958252
1783696716730135000,6.201135009765625,0.8896476030349731,0.2957245409488678,-0.6312525868415833
1783696716740098000,6.21109814453125,0.24683913588523865,0.3818434476852417,-0.24009889364242554
1783696716750060800,6.221060791015625,-0.3152734637260437,0.5039263963699341,0.09971264749765396
1783696716760023800,6.23102392578125,-0.7158304452896118,0.5044004917144775,0.22210034728050232
1783696716769985800,6.24098583984375,-0.9820223450660706,0.4094819724559784,0.029417244717478752
1783696716779949000,6.250948974609375,-1.1893420219421387,0.3678700923919678,-0.46042197942733765
1783696716789912000,6.260912109375,-1.3578187227249146,0.4725302755832672,-1.1096686124801636
1783696716799874800,6.270874755859375,-1.4593359231948853,0.6676883101463318,-1.6907951831817627
1783696716809837800,6.280837890625,-1.4746973514556885,0.8535522222518921,-2.0732762813568115
1783696716819800800,6.29080078125,-1.4237103462219238,0.9108285903930664,-2.2874128818511963
1783696716829762800,6.3007626953125,-1.3481093645095825,0.8295953869819641,-2.380728244781494
1783696716839726000,6.31072607421875,-1.277071237564087,0.6712880730628967,-2.3436264991760254
1783696716849688800,6.320688720703125,-1.239651083946228,0.4376358687877655,-2.136129856109619
1783696716859651800,6.33065185546875,-1.2333735227584839,0.11238136142492294,-1.7566676139831543
1783696716869614800,6.34061474609375,-1.2427095174789429,-0.30992862582206726,-1.258155345916748
1783696716879577900,6.350577880859375,-1.2701072692871094,-0.7850179076194763,-0.6901787519454956
1783696716889540900,6.360540771484375,-1.2976113557815552,-1.271114468574524,-0.11041279882192612
1783696716899503000,6.370503173828125,-1.2895344495773315,-1.6780918836593628,0.3961643576622009
1783696716909466000,6.380466064453125,-1.2129929065704346,-1.846102237701416,0.7542268633842468
1783696716919429000,6.39042919921875,-1.0439894199371338,-1.7060431241989136,0.9246566891670227
1783696716929392000,6.40039208984375,-0.7870668172836304,-1.3372694253921509,0.9279863238334656
1783696716939355100,6.410355224609375,-0.46412843465805054,-0.8594945669174194,0.8282373547554016
1783696716949318100,6.420318115234375,-0.11306123435497284,-0.38412079215049744,0.6841689348220825
1783696716959281000,6.430281005859375,0.22534771263599396,-0.006049388088285923,0.5320984721183777
1783696716969243100,6.4402431640625,0.5237982273101807,0.23626595735549927,0.41577860713005066
1783696716979206100,6.4502060546875,0.7619529962539673,0.36693793535232544,0.35687828063964844
1783696716989169200,6.460169189453125,0.9290805459022522,0.4354468882083893,0.36701500415802
1783696716999132200,6.470132080078125,1.0123370885849,0.4301021695137024,0.4349176287651062
1783696717009095000,6.480094970703125,0.9978274703025818,0.30949199199676514,0.5359828472137451
1783696717019058000,6.490057861328125,0.9167970418930054,0.07916078716516495,0.6497882604598999
1783696717029020200,6.500020263671875,0.827663242816925,-0.21443471312522888,0.7530505061149597
1783696717038983200,6.509983154296875,0.7512779235839844,-0.5404940247535706,0.8341296315193176
1783696717048946200,6.5199462890625,0.6520907282829285,-0.8646460175514221,0.8912206292152405
1783696717058909000,6.529908935546875,0.5051012635231018,-1.1177024841308594,0.9416510462760925
1783696717068872000,6.539871826171875,0.34135597944259644,-1.2229244709014893,1.0161765813827515
1783696717078835000,6.5498349609375,0.19868458807468414,-1.1885052919387817,1.1127431392669678
1783696717088798000,6.5597978515625,0.09909380972385406,-1.1028790473937988,1.1837438344955444
1783696717098760200,6.56976025390625,0.035845864564180374,-1.0557783842086792,1.1816962957382202
1783696717108723200,6.57972314453125,-0.002765584271401167,-1.0372529029846191,1.078778624534607
1783696717118686000,6.58968603515625,-0.03544230759143829,-1.0005584955215454,0.9051066637039185
1783696717128649000,6.59964892578125,-0.0341317318379879,-0.9073449373245239,0.7207129001617432
1783696717138612000,6.609612060546875,0.014833147637546062,-0.7658469676971436,0.5394213795661926
1783696717148575000,6.619574951171875,0.12074320018291473,-0.5831258296966553,0.38022831082344055
1783696717158537200,6.629537109375,0.2717907726764679,-0.3225342035293579,0.304692804813385
1783696717168500000,6.6395,0.35444584488868713,-0.1334916055202484,0.3188951313495636
1783696717178463000,6.649462890625,0.1999894231557846,-0.19892068207263947,0.3987060785293579
1783696717188426000,6.659426025390625,-0.163423553109169,-0.39160972833633423,0.5715048909187317
1783696717198389000,6.669388916015625,-0.529890239238739,-0.5620485544204712,0.8681964874267578
1783696717208352000,6.67935205078125,-0.7322721481323242,-0.6701406240463257,1.2737987041473389
1783696717218315000,6.68931494140625,-0.721828818321228,-0.8016035556793213,1.6581714153289795
1783696717228277000,6.699277099609375,-0.5744815468788147,-0.9414123892784119,1.843064308166504
1783696717238240000,6.709239990234375,-0.4057023525238037,-1.0459390878677368,1.708495020866394
1783696717248203000,6.719203125,-0.23318547010421753,-1.077910304069519,1.2823632955551147
1783696717258166000,6.729166015625,-0.0418192483484745,-0.9838886857032776,0.7081000208854675
1783696717268129000,6.73912890625,0.1530255526304245,-0.7583506107330322,0.1745707392692566
1783696717278092000,6.749092041015625,0.29459360241889954,-0.4770028293132782,-0.17383278906345367
1783696717288055000,6.759054931640625,0.37057241797447205,-0.23273691534996033,-0.3207104206085205
1783696717298017000,6.76901708984375,0.3630218207836151,-0.08968736231327057,-0.32370540499687195
1783696717307980000,6.77897998046875,0.26240384578704834,-0.03033873438835144,-0.23713527619838715
1783696717317943000,6.788943115234375,0.09667880088090897,-0.01673237793147564,-0.09723835438489914
1783696717327906000,6.798906005859375,-0.0935540571808815,-0.053342949599027634,0.06715390831232071
1783696717337869000,6.808869140625,-0.277494877576828,-0.16480901837348938,0.2590431869029999
1783696717347832000,6.81883203125,-0.4456169307231903,-0.35654890537261963,0.44745931029319763
1783696717357794000,6.8287939453125,-0.5967385172843933,-0.6193800568580627,0.6065804958343506
1783696717367757000,6.838757080078125,-0.7249295115470886,-0.8870471715927124,0.7099838256835938
1783696717377720000,6.848719970703125,-0.8367441892623901,-1.0895992517471313,0.7500465512275696
1783696717387683000,6.85868310546875,-0.9238073229789734,-1.175920009613037,0.7285099625587463
1783696717397645800,6.868645751953125,-0.985996425151825,-1.1132360696792603,0.6614041924476624
1783696717407609000,6.878609130859375,-1.014624834060669,-0.9117525219917297,0.5703973770141602
1783696717417572000,6.888572021484375,-0.996454119682312,-0.5927377939224243,0.4932110011577606
1783696717427534000,6.8985341796875,-0.941158652305603,-0.21561600267887115,0.44138503074645996
1783696717437497000,6.9084970703125,-0.8649125695228577,0.14543859660625458,0.4306541085243225
1783696717447459800,6.9184599609375,-0.7814089059829712,0.44517549872398376,0.4751003384590149
1783696717457422800,6.9284228515625,-0.6938977241516113,0.6451043486595154,0.552726149559021
1783696717467386000,6.93838623046875,-0.62516850233078,0.6591254472732544,0.5852161645889282
1783696717477349000,6.94834912109375,-0.5977888107299805,0.6319891810417175,0.5795862674713135
1783696717487311000,6.95831103515625,-0.565433144569397,0.71778404712677,0.5871514678001404
1783696717497274000,6.968274169921875,-0.5348182320594788,0.8235362768173218,0.5698273181915283
1783696717507236900,6.97823681640625,-0.5019984841346741,0.8461620807647705,0.5209654569625854
1783696717517200000,6.988199951171875,-0.46098393201828003,0.7619420289993286,0.4378414750099182
1783696717527163100,6.9981630859375,-0.4106290638446808,0.6622917652130127,0.3324413299560547
1783696717537126100,7.008126220703125,-0.3411330580711365,0.6436299085617065,0.2252775877714157
1783696717547089200,7.018089111328125,-0.24669909477233887,0.7607038021087646,0.13157017529010773
1783696717557051000,7.02805078125,-0.14500150084495544,0.9714522361755371,0.03880748152732849
1783696717567014000,7.038013916015625,-0.05023929849267006,1.2486103773117065,-0.06616717576980591
1783696717576977000,7.047976806640625,0.04406057298183441,1.5909972190856934,-0.16964909434318542
1783696717586940200,7.057940185546875,0.1533183753490448,1.899985432624817,-0.25761961936950684
1783696717596903200,7.067903076171875,0.2946656346321106,2.0154318809509277,-0.3182997405529022
1783696717606866200,7.0778662109375,0.4547673165798187,1.8415037393569946,-0.37050771713256836
1783696717616828000,7.087827880859375,0.6300438046455383,1.4540457725524902,-0.4633042514324188
1783696717626791000,7.097791015625,0.8172736167907715,1.0879665613174438,-0.6027926802635193
1783696717636754000,7.10775390625,1.0072349309921265,0.8376898765563965,-0.7446140050888062
1783696717646717200,7.11771728515625,1.1576857566833496,0.5606880784034729,-0.9166321158409119
1783696717656680200,7.12768017578125,1.149991512298584,0.19527336955070496,-1.1696529388427734
1783696717666643200,7.137643310546875,0.9078205227851868,-0.123809814453125,-1.3849670886993408
1783696717676606000,7.14760595703125,0.4476100504398346,-0.4125412106513977,-1.401953101158142
1783696717686568000,7.15756787109375,-0.13525336980819702,-0.605584442615509,-1.1451148986816406
1783696717696531000,7.167531005859375,-0.660876452922821,-0.6269493699073792,-0.7679412961006165
1783696717706494200,7.177494140625,-0.9997624754905701,-0.5067518949508667,-0.4100053906440735
1783696717716457200,7.187457275390625,-1.172158122062683,-0.3907349705696106,-0.08970647305250168
1783696717726420200,7.197420166015625,-1.2081539630889893,-0.5761773586273193,0.19652816653251648
1783696717736383000,7.207383056640625,-1.0996344089508057,-1.1195595264434814,0.4370933473110199
1783696717746345000,7.217344970703125,-0.8786069750785828,-1.6974042654037476,0.6051439046859741
1783696717756308000,7.227307861328125,-0.6388423442840576,-2.063309907913208,0.6648879051208496
1783696717766271200,7.237271240234375,-0.4326367676258087,-2.1640634536743164,0.6338528990745544
1783696717776234200,7.247234130859375,-0.2560310959815979,-2.0455002784729004,0.6015588641166687
1783696717786197000,7.257197021484375,-0.07209710031747818,-1.8416787385940552,0.617510974407196
1783696717796160000,7.267159912109375,0.13747049868106842,-1.6819833517074585,0.6667576432228088
1783696717806122000,7.2771220703125,0.3489469587802887,-1.60776948928833,0.7284346222877502
1783696717816085000,7.2870849609375,0.48988863825798035,-1.5676567554473877,0.7737842798233032
1783696717826048300,7.29704833984375,0.5110228657722473,-1.5152747631072998,0.7558492422103882
1783696717836011000,7.307010986328125,0.41003313660621643,-1.4240516424179077,0.6401285529136658
1783696717845974000,7.31697412109375,0.20572273433208466,-1.2781686782836914,0.41652363538742065
1783696717855937000,7.32693701171875,-0.06125596910715103,-1.059709906578064,0.11683543771505356
1783696717865900000,7.336900146484375,-0.31375598907470703,-0.7748759388923645,-0.20199380815029144
1783696717875862000,7.346862060546875,-0.4895099699497223,-0.4439784586429596,-0.5008199214935303
1783696717885825300,7.3568251953125,-0.5640273690223694,-0.07012607902288437,-0.7753711938858032
1783696717895788000,7.3667880859375,-0.5317208170890808,0.32811635732650757,-1.0178083181381226
1783696717905751000,7.3767509765625,-0.41543418169021606,0.7408120632171631,-1.2517778873443604
1783696717915715300,7.38671533203125,-0.2334238737821579,1.1169300079345703,-1.4937005043029785
1783696717925678300,7.39667822265625,-0.006594630423933268,1.423604130744934,-1.7344049215316772
1783696717935640000,7.40664013671875,0.2457185685634613,1.6581388711929321,-1.9556688070297241
1783696717945603000,7.41660302734375,0.5277958512306213,1.8124812841415405,-2.121098518371582
1783696717955566000,7.426566162109375,0.8201709985733032,1.8420852422714233,-2.218601942062378
1783696717965529000,7.436529052734375,1.0787343978881836,1.7652312517166138,-2.2111470699310303
1783696717975492400,7.446492431640625,1.2156745195388794,1.7220009565353394,-2.0833303928375244
1783696717985455400,7.456455322265625,1.155469536781311,1.786466121673584,-1.8170194625854492
1783696717995418000,7.466418212890625,0.8903193473815918,1.8785077333450317,-1.432916283607483
1783696718005380000,7.476380126953125,0.4848480522632599,1.8249133825302124,-0.9892417788505554
1783696718015343000,7.486343017578125,0.05515019968152046,1.570155382156372,-0.5325051546096802
1783696718025306000,7.49630615234375,-0.2963239550590515,1.1795551776885986,-0.08950250595808029
1783696718035269400,7.506269287109375,-0.5326265096664429,0.6739566922187805,0.2950361371040344
1783696718045232400,7.516232421875,-0.6807987093925476,0.043330706655979156,0.607788622379303
1783696718055195100,7.526195068359375,-0.7721995115280151,-0.7921018600463867,0.8491588830947876
1783696718065157000,7.5361572265625,-0.804103672504425,-1.8779830932617188,1.0507028102874756
1783696718075120000,7.5461201171875,-0.7323729991912842,-3.1443257331848145,1.2522351741790771
1783696718085083100,7.556083251953125,-0.5773887634277344,-4.195034503936768,1.4287902116775513
1783696718095046400,7.56604638671875,-0.39051151275634766,-4.656527519226074,1.5034191608428955
1783696718105009200,7.576009033203125,-0.15841351449489594,-4.504917144775391,1.442628026008606
1783696718114972200,7.58597216796875,0.06781695783138275,-3.6817495822906494,1.2051140069961548
1783696718124935200,7.59593505859375,0.2828659415245056,-2.677093505859375,0.8797022700309753
1783696718134897200,7.605897216796875,0.4326876699924469,-1.8517510890960693,0.4542415142059326
1783696718144860200,7.615860107421875,0.4605587124824524,-1.3994272947311401,-0.03564274683594704
1783696718154823200,7.6258232421875,0.41024360060691833,-1.2450262308120728,-0.4275577962398529
1783696718164786200,7.6357861328125,0.28557485342025757,-0.9857915043830872,-0.6238039135932922
1783696718174749200,7.645749267578125,0.10613583028316498,-0.5415083169937134,-0.6277341842651367
1783696718184712200,7.655712158203125,-0.015850884839892387,-0.3018287122249603,-0.5527147650718689
1783696718194675200,7.66567529296875,0.011955180205404758,-0.35852208733558655,-0.46691328287124634
1783696718204637200,7.67563720703125,0.13803820312023163,-0.4846956133842468,-0.3938036859035492
1783696718214600200,7.68560009765625,0.2570277154445648,-0.5324090719223022,-0.30518433451652527
1783696718224563200,7.695563232421875,0.3231752812862396,-0.448354572057724,-0.17914877831935883
1783696718234526200,7.705526123046875,0.39282944798469543,-0.24700310826301575,-0.016126567497849464
1783696718244489200,7.7154892578125,0.5369452834129333,-0.049062710255384445,0.11902422457933426
1783696718254452200,7.7254521484375,0.6628475189208984,0.04106824845075607,0.1523696631193161
1783696718264415200,7.735415283203125,0.6902869343757629,-0.0033240702468901873,0.06448449939489365
1783696718274377200,7.745377197265625,0.6412426829338074,-0.09820131957530975,-0.14560933411121368
1783696718284340200,7.75534033203125,0.5798085927963257,-0.1595020592212677,-0.44663751125335693
1783696718294303200,7.76530322265625,0.5460077524185181,-0.1488315761089325,-0.8120831251144409
1783696718304266200,7.775266357421875,0.5215235352516174,-0.09471370279788971,-1.1615979671478271
1783696718314229200,7.785229248046875,0.45863327383995056,0.025370361283421516,-1.4248721599578857
1783696718324192300,7.795192138671875,0.3173845708370209,0.1417814940214157,-1.5701349973678589
1783696718334154200,7.805154296875,0.11380081623792648,0.19212882220745087,-1.578482747077942
1783696718344117200,7.8151171875,-0.12829232215881348,0.1682271659374237,-1.464341402053833
1783696718354080300,7.825080322265625,-0.4048863649368286,0.08690675348043442,-1.2492674589157104
1783696718364043300,7.835043212890625,-0.6832070350646973,-0.03855119273066521,-0.945121705532074
1783696718374006300,7.84500634765625,-0.9114934802055359,-0.1683395355939865,-0.6051319241523743
1783696718383969000,7.854968994140625,-1.0511335134506226,-0.27006521821022034,-0.27490106225013733
1783696718393932000,7.86493212890625,-1.0963242053985596,-0.3465639650821686,0.00431966595351696
1783696718403894300,7.874894287109375,-1.0787516832351685,-0.4144032299518585,0.2136688232421875
1783696718413857300,7.884857177734375,-1.0384825468063354,-0.4841519594192505,0.3618236780166626
1783696718423820300,7.8948203125,-1.0011767148971558,-0.5646786689758301,0.4629933536052704
1783696718433783300,7.904783203125,-0.9892465472221375,-0.6408753991127014,0.5152972936630249
1783696718443746000,7.91474609375,-0.9662177562713623,-0.7475579977035522,0.5132644772529602
1783696718453709000,7.924708984375,-0.8747648000717163,-0.8325343728065491,0.5976520776748657
1783696718463672000,7.934672119140625,-0.7651978731155396,-0.8756160736083984,0.6991822123527527
1783696718473634300,7.94463427734375,-0.6740583777427673,-0.7722164988517761,0.7875000834465027
1783696718483597300,7.954597412109375,-0.601269543170929,-0.43918803334236145,0.8972740173339844
1783696718493560000,7.96456005859375,-0.5896016955375671,0.02505180984735489,0.9737658500671387
1783696718503523000,7.974523193359375,-0.6789605021476746,0.4554572105407715,0.9015843272209167
1783696718513486000,7.984486083984375,-0.7137616276741028,0.26967430114746094,0.8038178086280823
1783696718523449000,7.994448974609375,-0.6640701293945312,0.026221290230751038,0.7571914792060852
1783696718533412000,8.004412109375,-0.5176770091056824,0.09037364274263382,0.8169251084327698
1783696718543374000,8.0143740234375,-0.2820643186569214,0.32879874110221863,0.9711472988128662
1783696718553337000,8.024337158203124,0.05287933722138405,0.5653052926063538,1.1927005052566528
1783696718563300000,8.034300048828126,0.36038854718208313,0.7793763279914856,1.4338161945343018
1783696718573263000,8.04426318359375,0.5865452289581299,0.8755084872245789,1.654500961303711
1783696718583226000,8.05422607421875,0.67792809009552,0.6245146989822388,1.6713521480560303
1783696718593189000,8.064189208984375,0.5420493483543396,0.1775672882795334,1.185044765472412
1783696718603151000,8.074151123046875,0.3579765260219574,0.0048893410712480545,0.541017472743988
1783696718613114000,8.084114013671876,0.2149253636598587,0.15309451520442963,-0.011908825486898422
1783696718623077000,8.0940771484375,0.1625886708498001,0.4637746512889862,-0.32686495780944824
1783696718633040100,8.1040400390625,0.212584987282753,0.8264583349227905,-0.3991122543811798
1783696718643003100,8.114003173828126,0.2720874845981598,1.0475953817367554,-0.337059885263443
1783696718652966100,8.123966064453125,0.2742006778717041,0.9797817468643188,-0.27278900146484375
1783696718662929200,8.13392919921875,0.18606442213058472,0.5832414031028748,-0.3107054829597473
1783696718672891100,8.14389111328125,0.05955254286527634,-0.08050992339849472,-0.47113537788391113
1783696718682854100,8.153854248046875,-0.07679780572652817,-0.8188749551773071,-0.6976762413978577
1783696718692817200,8.163817138671876,-0.19018349051475525,-1.4527837038040161,-0.8689888715744019
1783696718702780200,8.1737802734375,-0.23200154304504395,-1.8523026704788208,-0.8871425986289978
1783696718712743200,8.1837431640625,-0.18949270248413086,-2.0049424171447754,-0.7571960687637329
1783696718722706200,8.1937060546875,-0.12138905376195908,-1.96748685836792,-0.4933815896511078
1783696718732669200,8.203669189453125,-0.07173174619674683,-1.7189712524414062,-0.19350513815879822
1783696718742631200,8.213631103515626,-0.030410848557949066,-1.3138526678085327,0.07588223367929459
1783696718752594200,8.22359423828125,0.030795784667134285,-0.8518094420433044,0.27588483691215515
1783696718762557200,8.23355712890625,0.1074906513094902,-0.41834765672683716,0.3982159197330475
1783696718772520200,8.243520263671876,0.1887332946062088,-0.1175776794552803,0.4399002492427826
1783696718782483200,8.253483154296875,0.2854602336883545,-0.020701507106423378,0.40589532256126404
1783696718792446200,8.2634462890625,0.4354715645313263,-0.1264180839061737,0.3085530698299408
1783696718802409200,8.2734091796875,0.6464863419532776,-0.308189332485199,0.19215905666351318
1783696718812371200,8.28337109375,0.8450548648834229,-0.4009222090244293,0.11313693970441818
1783696718822334200,8.293334228515626,0.9795991778373718,-0.3761616349220276,0.06910527497529984
1783696718832297000,8.303296875,1.0338029861450195,-0.33217793703079224,0.0012154353316873312
1783696718842260200,8.31326025390625,0.9983883500099182,-0.33389192819595337,-0.10989673435688019
1783696718852223200,8.32322314453125,0.9251031875610352,-0.3654162883758545,-0.24110323190689087
1783696718862186200,8.333186279296875,0.8449490070343018,-0.3169667422771454,-0.36392343044281006
1783696718872148200,8.343148193359376,0.7867962121963501,-0.15340711176395416,-0.44931742548942566
1783696718882111000,8.353111083984375,0.7250913381576538,0.07611261308193207,-0.48267900943756104
1783696718892074000,8.363073974609375,0.6419580578804016,0.2972676455974579,-0.47766053676605225
1783696718902037200,8.373037353515626,0.5275993943214417,0.4637208580970764,-0.4455181062221527
1783696718911999200,8.382999267578125,0.41532477736473083,0.5997428894042969,-0.392823725938797
1783696718921962200,8.392962158203124,0.3277531862258911,0.7715185880661011,-0.32549798488616943
1783696718931925200,8.40292529296875,0.2644256055355072,0.9909681081771851,-0.22136598825454712
1783696718941887500,8.412887451171875,0.20534196496009827,1.2257822751998901,-0.061331577599048615
1783696718951850200,8.422850341796876,0.15362177789211273,1.4149852991104126,0.12867777049541473
1783696718961813200,8.432813232421875,0.112580306828022,1.5059248208999634,0.35210204124450684
1783696718971776300,8.4427763671875,0.08363387733697891,1.5439549684524536,0.592312753200531
1783696718981739300,8.4527392578125,0.045667268335819244,1.515421748161316,0.8121960163116455
1783696718991702300,8.462702392578125,-0.031896233558654785,1.4072185754776,0.9648543000221252
1783696719001665300,8.472665283203124,-0.1551487147808075,1.1922448873519897,1.0329959392547607
1783696719011627300,8.482627197265625,-0.30332350730895996,0.7976624369621277,1.0249990224838257
1783696719021590300,8.49259033203125,-0.4312300384044647,0.1506003439426422,0.9229522943496704
1783696719031553300,8.50255322265625,-0.47916746139526367,-0.6511632204055786,0.7323083281517029
1783696719041516300,8.512516357421875,-0.4123796820640564,-1.1587978601455688,0.48862767219543457
1783696719051479300,8.522479248046874,-0.2707863450050354,-1.074859857559204,0.21884652972221375
1783696719061442300,8.5324423828125,-0.149276465177536,-0.5836344957351685,-0.12057474255561829
1783696719071405000,8.542405029296875,-0.10142640024423599,-0.019123993813991547,-0.5343455672264099
1783696719081367300,8.5523671875,-0.14089810848236084,0.5252227187156677,-0.9025066494941711
1783696719091330300,8.562330322265625,-0.23099230229854584,1.0553572177886963,-1.1273912191390991
1783696719101293300,8.572293212890624,-0.31737983226776123,1.3369804620742798,-1.2549434900283813
1783696719111256300,8.58225634765625,-0.36693593859672546,1.18207848072052,-1.31808602809906
1783696719121219000,8.592218994140625,-0.38277527689933777,0.8540768027305603,-1.2993512153625488
1783696719131182000,8.60218212890625,-0.4074055254459381,0.5725130438804626,-1.1959649324417114
1783696719141145300,8.612145263671875,-0.4135935604572296,0.35006484389305115,-0.9959770441055298
1783696719151108400,8.6221083984375,-0.35587993264198303,0.2257266342639923,-0.7123581171035767
1783696719161070300,8.6320703125,-0.25987792015075684,0.11800871044397354,-0.3931616544723511
1783696719171033000,8.642033203125,-0.18575255572795868,-0.11827652901411057,-0.14412732422351837
1783696719180996000,8.65199609375,-0.15749715268611908,-0.4539875090122223,-0.04160923883318901
1783696719190959000,8.661958984375,-0.18016092479228973,-0.7876427173614502,-0.07526121288537979
1783696719200922400,8.67192236328125,-0.24703790247440338,-1.0258346796035767,-0.18412894010543823
1783696719210885400,8.681885498046874,-0.31269681453704834,-1.1016780138015747,-0.28999996185302734
1783696719220848400,8.691848388671875,-0.35109010338783264,-0.9956135749816895,-0.34454500675201416
1783696719230810000,8.70181005859375,-0.3591943681240082,-0.7626716494560242,-0.3441396653652191
1783696719240773000,8.711773193359376,-0.3837437033653259,-0.4718007445335388,-0.3331817090511322
1783696719250736000,8.721736083984375,-0.4312094748020172,-0.13604538142681122,-0.35248032212257385
1783696719260699400,8.731699462890624,-0.47925642132759094,0.24493351578712463,-0.4057598412036896
1783696719270662400,8.741662353515625,-0.5151217579841614,0.5992357134819031,-0.49402979016304016
1783696719280625400,8.75162548828125,-0.5035384297370911,0.8284480571746826,-0.607567310333252
1783696719290588400,8.76158837890625,-0.4376809000968933,0.9153123497962952,-0.7360935807228088
1783696719300550100,8.771550048828125,-0.3669463098049164,0.8956915736198425,-0.8517199754714966
1783696719310513200,8.78151318359375,-0.3205527067184448,0.8337650895118713,-0.9178689122200012
1783696719320476400,8.791476318359376,-0.31063851714134216,0.758031964302063,-0.9215031266212463
1783696719330439400,8.801439453125,-0.3114774227142334,0.6667419672012329,-0.856225848197937
1783696719340402400,8.81140234375,-0.30583614110946655,0.6113505959510803,-0.7268127799034119
1783696719350365200,8.821365234375,-0.29664504528045654,0.5723810791969299,-0.511317789554596
1783696719360328200,8.831328125,-0.3303365707397461,0.49630051851272583,-0.20175683498382568
1783696719370290200,8.841290283203126,-0.440773606300354,0.3555884063243866,0.1529594510793686
1783696719380253400,8.85125341796875,-0.607905387878418,0.19061170518398285,0.5054349303245544
1783696719390216400,8.861216552734374,-0.7820619940757751,-0.006554614752531052,0.7899960875511169
1783696719400179200,8.87117919921875,-0.9339587688446045,-0.2864557206630707,0.9728441834449768
1783696719410142200,8.88114208984375,-1.0133545398712158,-0.5842783451080322,1.0836513042449951
1783696719420105200,8.891105224609374,-1.0236142873764038,-0.7777125835418701,1.150220513343811
1783696719430068200,8.901068115234375,-0.9847179651260376,-0.8579895496368408,1.170503854751587
1783696719440030500,8.911030517578125,-0.9125887155532837,-0.7896599769592285,1.150720477104187
1783696719449993500,8.920993408203126,-0.8147063851356506,-0.5451871156692505,1.1142679452896118
1783696719459956200,8.930956298828125,-0.6987249255180359,-0.24716177582740784,1.0424470901489258
1783696719469919200,8.940919189453124,-0.5698849558830261,-0.02397581934928894,0.9792161583900452
1783696719479882200,8.95088232421875,-0.4180643856525421,0.09308314323425293,1.004753828048706
1783696719489845200,8.96084521484375,-0.2554629445075989,0.09810080379247665,1.1231294870376587
1783696719499808300,8.970808349609374,-0.08761691302061081,0.04445701465010643,1.2956595420837402
1783696719509770200,8.980770263671875,0.04523726925253868,-0.015308048576116562,1.4167982339859009
1783696719519733200,8.990733154296874,0.14458149671554565,0.015128955245018005,1.4376569986343384
1783696719529696300,9.0006962890625,0.21481171250343323,0.12296886742115021,1.4060086011886597
1783696719539659300,9.0106591796875,0.21656443178653717,0.039976365864276886,1.3516477346420288
1783696719549622300,9.020622314453124,0.11421462893486023,-0.37706801295280457,1.2978153228759766
1783696719559585300,9.030585205078125,-0.07959457486867905,-0.7647892832756042,1.2739888429641724
1783696719569548300,9.04054833984375,-0.2982819080352783,-0.7551131844520569,1.2335036993026733
1783696719579510300,9.05051025390625,-0.4278208315372467,-0.25599390268325806,1.1237677335739136
1783696719589473300,9.060473388671875,-0.38127994537353516,0.49288299679756165,0.9022638201713562
1783696719599436300,9.070436279296874,-0.22559970617294312,0.9592993259429932,0.49713364243507385
1783696719609399300,9.0803994140625,-0.12290128320455551,0.7062162160873413,-0.10898423194885254
1783696719619362300,9.0903623046875,-0.18054911494255066,-0.2668399512767792,-0.8396502137184143
1783696719629325000,9.100324951171874,-0.34789496660232544,-1.3467621803283691,-1.4001433849334717
1783696719639288000,9.1102880859375,-0.4946500062942505,-1.9859833717346191,-1.5527212619781494
1783696719649250300,9.120250244140625,-0.468162477016449,-2.0682384967803955,-1.2654482126235962
1783696719659213300,9.13021337890625,-0.23790711164474487,-1.6758770942687988,-0.6701666712760925
1783696719669176300,9.14017626953125,0.06855347752571106,-1.1122792959213257,-0.005574570503085852
1783696719679139300,9.150139404296874,0.3191699683666229,-0.5715131759643555,0.5634433031082153
1783696719689102000,9.16010205078125,0.46595489978790283,-0.18098463118076324,0.9627976417541504
1783696719699065000,9.170065185546875,0.5360344648361206,0.03736512362957001,1.20694899559021
1783696719709028400,9.1800283203125,0.5197295546531677,0.11020310968160629,1.291240930557251
1783696719718990300,9.189990234375,0.40922820568084717,0.054570168256759644,1.1898682117462158
1783696719728953300,9.199953369140625,0.24631012976169586,-0.11706710606813431,0.9247044920921326
1783696719738916000,9.209916015625,0.0768103376030922,-0.3593434989452362,0.5498413443565369
1783696719748879000,9.219879150390625,-0.010863588191568851,-0.5923234820365906,0.12035764008760452
1783696719758842000,9.229842041015624,0.04081745445728302,-0.7543194890022278,-0.3179582953453064
1783696719768805400,9.239805419921876,0.2262357920408249,-0.7589027881622314,-0.7038362622261047
1783696719778768400,9.249768310546875,0.472426176071167,-0.5483801364898682,-0.9978278875350952
1783696719788730000,9.259730224609376,0.7081702947616577,-0.12477269768714905,-1.1836779117584229
1783696719798693000,9.269693115234375,0.9303931593894958,0.4550752639770508,-1.2430732250213623
1783696719808656100,9.27965625,1.1421363353729248,1.1182053089141846,-1.1648173332214355
1783696719818619100,9.289619140625,1.3077573776245117,1.723580241203308,-0.9746547341346741
1783696719828582400,9.29958251953125,1.3363182544708252,2.1353423595428467,-0.7310324907302856
1783696719838545400,9.30954541015625,1.1902467012405396,2.280803680419922,-0.4787366986274719
1783696719848508400,9.31950830078125,0.9264901280403137,2.150449752807617,-0.22896148264408112
1783696719859093200,9.33009326171875,0.6230280995368958,1.7586352825164795,0.014464310370385647
1783696719869056300,9.34005615234375,0.43584176898002625,1.200604796409607,0.22514313459396362
1783696719879019300,9.350019287109374,0.3452516794204712,0.6192880272865295,0.3999570310115814
1783696719888982300,9.359982177734375,0.3286026418209076,0.19398069381713867,0.5406299829483032
1783696719898945300,9.3699453125,0.3797192871570587,0.025442935526371002,0.672752857208252
1783696719908908300,9.379908203125,0.4570417106151581,0.06716996431350708,0.7910036444664001
1783696719918872000,9.3898720703125,0.503040075302124,0.19944384694099426,0.8829751014709473
1783696719928834800,9.399834716796875,0.4888210594654083,0.31826522946357727,0.9230953454971313
1783696719938797000,9.409797119140626,0.435611367225647,0.38033097982406616,0.8867764472961426
1783696719948760000,9.419760009765625,0.3679763972759247,0.4310760200023651,0.7827974557876587
1783696719958723000,9.42972314453125,0.30701637268066406,0.5151160955429077,0.6659826636314392
1783696719968686000,9.43968603515625,0.2837175130844116,0.6169994473457336,0.6026647090911865
1783696719978648800,9.44964892578125,0.3038475513458252,0.6764856576919556,0.625948429107666
1783696719988611800,9.45961181640625,0.37596288323402405,0.639216959476471,0.6924691200256348
1783696719998574800,9.469574951171875,0.5073150396347046,0.5555188655853271,0.7693082094192505
1783696720008537000,9.479537109375,0.6610373854637146,0.48392000794410706,0.7991832494735718
1783696720018500000,9.4895,0.753513514995575,0.41286715865135193,0.725424587726593
1783696720028463000,9.499463134765625,0.7579801678657532,0.37616637349128723,0.5761670470237732
1783696720038425900,9.50942578125,0.6993458867073059,0.4525604844093323,0.44185179471969604
1783696720048388900,9.519388916015625,0.5993419885635376,0.5549181699752808,0.348306268453598
1783696720058351900,9.529351806640625,0.4805609881877899,0.5612266659736633,0.26150479912757874
1783696720068315100,9.539315185546876,0.38429170846939087,0.37637078762054443,0.14534009993076324
1783696720078277000,9.549277099609375,0.3045428395271301,-0.004311851225793362,-0.03988620638847351
1783696720088239900,9.559239990234374,0.1879672259092331,-0.5310912132263184,-0.31977617740631104
1783696720098203000,9.569202880859375,0.017003202810883522,-1.0067565441131592,-0.6856130361557007
1783696720108166000,9.579165771484375,-0.14956319332122803,-1.231687307357788,-1.0529921054840088
1783696720118129000,9.58912890625,-0.28411221504211426,-1.1963356733322144,-1.3611621856689453
1783696720128092200,9.599092041015625,-0.38317784667015076,-1.0273114442825317,-1.5919017791748047
1783696720138055200,9.60905517578125,-0.44373148679733276,-0.7583212852478027,-1.7436915636062622
1783696720148017000,9.619016845703126,-0.4679950177669525,-0.3889214098453522,-1.832227349281311
1783696720157980000,9.62897998046875,-0.4560483694076538,0.052397411316633224,-1.8645141124725342
1783696720168566000,9.63956591796875,-0.4419596791267395,0.5099040269851685,-1.8681776523590088
1783696720178529000,9.649529052734374,-0.44829320907592773,0.9010414481163025,-1.8697245121002197
1783696720188491000,9.659490966796875,-0.46326810121536255,1.2190990447998047,-1.86600661277771
1783696720198454000,9.6694541015625,-0.4897814691066742,1.3577847480773926,-1.8799411058425903
1783696720208417000,9.6794169921875,-0.540301501750946,1.2866891622543335,-1.8985053300857544
1783696720218380000,9.689380126953125,-0.6014732122421265,1.030076265335083,-1.8733421564102173
1783696720228343000,9.699343017578125,-0.6531862020492554,0.7031920552253723,-1.7721433639526367
1783696720238306000,9.70930615234375,-0.6766976714134216,0.39350607991218567,-1.5932668447494507
1783696720248269000,9.71926904296875,-0.6733609437942505,0.18055245280265808,-1.3549294471740723
1783696720258231000,9.72923095703125,-0.6681675314903259,0.05418332666158676,-1.0884349346160889
1783696720268194000,9.739194091796875,-0.696602463722229,0.00005848205182701349,-0.8050718307495117
1783696720278157000,9.749156982421875,-0.7796227931976318,-0.013681565411388874,-0.5320576429367065
1783696720288120000,9.7591201171875,-0.9000769853591919,-0.022049838677048683,-0.27604612708091736
1783696720298083000,9.7690830078125,-0.9998027682304382,-0.03347133472561836,-0.06252454221248627
1783696720308046000,9.779046142578125,-1.0425773859024048,-0.04911386966705322,0.08888116478919983
1783696720318008800,9.7890087890625,-0.9915852546691895,-0.034694183617830276,0.161607563495636
1783696720327971800,9.798971923828125,-0.8445532321929932,0.05908317118883133,0.17908896505832672
1783696720337934000,9.80893408203125,-0.6327259540557861,0.2471098005771637,0.1617102324962616
1783696720347897000,9.81889697265625,-0.39839643239974976,0.4449560046195984,0.11311734467744827
1783696720357860000,9.828860107421875,-0.17642012238502502,0.5601819753646851,0.022368794307112694
1783696720367823000,9.838822998046876,0.03218578174710274,0.6065926551818848,-0.06788348406553268
1783696720377785900,9.848785888671875,0.22831080853939056,0.6451402902603149,-0.09025696665048599
1783696720387748900,9.858748779296874,0.3641226589679718,0.6160144209861755,-0.06544585525989532
1783696720397712000,9.8687119140625,0.4345603287220001,0.4784083664417267,0.012272907420992851
1783696720407674000,9.878674072265625,0.4301638901233673,0.32854053378105164,0.18435630202293396
1783696720417637000,9.88863720703125,0.24571549892425537,0.3221697211265564,0.5793108344078064
1783696720427600000,9.898599853515625,0.007508581038564444,-0.1112862080335617,0.8255892395973206
1783696720437563000,9.90856298828125,-0.0775889977812767,-0.6707351803779602,0.9784892797470093
1783696720447526000,9.91852587890625,-0.04481388255953789,-1.0581674575805664,1.148768663406372
1783696720457489000,9.928489013671875,0.044925857335329056,-1.2610747814178467,1.3370174169540405
1783696720467452200,9.9384521484375,0.14934997260570526,-1.3597323894500732,1.5287506580352783
1783696720477415200,9.948415283203126,0.23092207312583923,-1.3096699714660645,1.7509392499923706
