time,seconds_elapsed,z,y,x
1783696700174484700,0.067484619140625,2.3209628209441897,0.25965514479279517,-0.5735656844515353
1783696700184446700,0.07744677734375,2.5990882729291913,0.5318272413313389,-0.7743085484832525
1783696700194409700,0.08740966796875,2.919325604456663,0.9405904130518435,-0.8734545668900012
1783696700204373000,0.097373046875,3.192869573870301,1.4677029008209705,-0.9691508832342922
1783696700214335700,0.107335693359375,3.431264488491416,1.9777274756669998,-1.0602992539506404
1783696700224298800,0.117298828125,3.2931343671739097,2.3917630348324774,-1.1505227649070322
1783696700234261800,0.12726171875,2.8417800079613924,2.736785848048329,-1.2049806966077536
1783696700244224800,0.137224853515625,2.238200366583466,3.0439521010786295,-1.2132934015966952
1783696700254187800,0.147187744140625,1.7112421925932169,3.3708740249365565,-1.101299153663218
1783696700264150800,0.15715087890625,1.0578963575273752,3.4719910511553285,-0.9224812673222273
1783696700274113800,0.16711376953125,0.2369616669476032,3.3628286656469104,-0.8895424359250813
1783696700284076800,0.177076904296875,-0.029720015481114387,3.002185673972964,-0.7622460625067353
1783696700294039800,0.187039794921875,-0.061364861544966696,2.171380162242055,-0.5476718761950731
1783696700304002800,0.1970029296875,0.16226795275211334,1.2148784788310527,-0.08106500279307365
1783696700313965800,0.2069658203125,0.009651040920615195,0.02072071646749973,0.7388859374463558
1783696700323928800,0.2169287109375,-0.881526814186573,-1.158819322478771,1.8318731898382306
1783696700333890600,0.226890625,-2.4855653541237115,-2.0924124239891766,2.7190958775788543
1783696700343853800,0.236853759765625,-4.333231448638439,-2.6775562449663877,2.8754315176725385
1783696700353816800,0.24681689453125,-6.0404340104520315,-3.1971751621097324,2.249420410386473
1783696700363779800,0.25677978515625,-7.413594587269425,-4.190091974726319,1.2589663346216082
1783696700373742800,0.266742919921875,-7.965338242948055,-5.44359799811542,0.047038211762439455
1783696700383705900,0.276705810546875,-7.6323478128314015,-6.343824836596847,-1.3991094031967222
1783696700393668900,0.2866689453125,-6.647385758611559,-6.853474148389696,-2.2359723152704536
1783696700403631600,0.296631591796875,-5.300923219105601,-7.525376215365529,-2.079131502133608
1783696700413594600,0.3065947265625,-3.8194495670855044,-8.149882909438013,-1.3356794258154927
1783696700423557600,0.3165576171875,-2.594564073503017,-8.161683821868897,-0.7803279549032449
1783696700433521000,0.32652099609375,-2.0189912139475346,-7.707825370880961,-0.44834882072098553
1783696700443484000,0.33648388671875,-2.2335580937355757,-7.04466775137484,-0.07197098383386619
1783696700453447000,0.346447021484375,-2.92169993237257,-5.98060761052072,0.2538668254486285
1783696700463410000,0.356409912109375,-3.569564121156931,-4.663973807567357,0.24554968174658715
1783696700473371600,0.36637158203125,-3.9066234081476923,-3.391257472273707,-0.06534785763337277
1783696700483334700,0.376334716796875,-3.9534816054344173,-2.265396416544914,-0.38712672864757475
1783696700493298000,0.3862978515625,-3.440715622925758,-1.2825170138180255,-0.6613092151604593
1783696700503261000,0.396260986328125,-2.4043466220736502,-0.3812205002784729,-0.9049356737595051
1783696700513224000,0.406223876953125,-1.1188269193083047,0.48817163947820663,-0.940627603257075
1783696700523186700,0.416186767578125,0.23856150335967538,1.399174138996005,-0.7754001431122421
1783696700533149700,0.426149658203125,1.4705840092152356,2.293479770734906,-0.5093090469878166
1783696700543112700,0.43611279296875,2.529848732486367,3.0889743151098488,-0.1175910084946081
1783696700553075700,0.44607568359375,3.3921126277983187,3.711103758656978,0.2371145742206834
1783696700563038700,0.456038818359375,4.101847874084115,4.1977001116424795,0.41717710859421636
1783696700573002000,0.466001953125,4.740970538008213,4.619855848899483,0.3463914346879348
1783696700582965000,0.475965087890625,5.316954900974035,5.0052463283389805,0.049066849779523906
1783696700592927700,0.485927734375,5.8588704055994745,5.3458647691160435,-0.35577881970368325
1783696700602890800,0.495890869140625,6.209936006110906,5.518531950807571,-0.7802063743501901
1783696700612853800,0.505853759765625,6.392751072329283,5.501603612360358,-1.1669713570132851
1783696700622815700,0.515815673828125,6.5254141604125495,5.3354684627860784,-1.4475358727134764
1783696700632779000,0.525779052734375,6.604255641937256,5.1846057011455295,-1.635541347181797
1783696700642741800,0.53574169921875,6.597041472774744,5.130325829425454,-1.7828052075475453
1783696700652704800,0.545704833984375,6.533684560629725,5.121991131800413,-1.885239746105671
1783696700662667800,0.555667724609375,6.4381029567062855,5.1671127145528795,-1.8725114896968007
1783696700672630800,0.565630859375,6.137541216507554,5.2752264677911995,-1.6528768051251768
1783696700682593800,0.57559375,5.6474447464466095,5.56374238088727,-1.3390075473248957
1783696700692556800,0.585556884765625,5.158253700792789,5.911760868787765,-1.0331924897078424
1783696700702519800,0.595519775390625,4.813097032064199,6.169525669789314,-0.8454767189010978
1783696700712482800,0.60548291015625,4.456482565253973,6.1951055167257785,-0.760438574693352
1783696700722445800,0.61544580078125,3.981084482631087,5.816372741609811,-0.5111506927991286
1783696700732408800,0.625408935546875,3.6028064655452963,5.175071564602852,0.009449673129618167
1783696700742371800,0.635371826171875,3.2962066142261026,4.666193821704387,0.497262343102321
1783696700752334800,0.6453349609375,2.858750431984663,3.978943378949165,1.0123566224280744
1783696700762296600,0.655296630859375,2.304489240527153,2.914662288820743,1.4247963637694716
1783696700772259800,0.665259765625,1.5887901174008845,1.5275234555333852,1.6799635494932532
1783696700782222800,0.675222900390625,0.10966098268032073,-0.4337620038986206,2.2986448984131216
1783696700792185900,0.685185791015625,-1.9910510676205158,-2.739942266252637,3.3073785811036824
1783696700802148900,0.69514892578125,-4.079126923710108,-4.494880392709375,4.183050239521265
1783696700812112000,0.70511181640625,-6.662274700185656,-5.360888150724769,3.9147476778924464
1783696700822075000,0.715074951171875,-10.126230328923464,-5.575933169418573,2.44444482370615
1783696700832037600,0.72503759765625,-13.205441374909878,-5.3686564466387034,1.0163790098119527
1783696700842000600,0.735000732421875,-14.93440802476406,-5.535063983413576,0.8766849271133541
1783696700851963600,0.744963623046875,-14.99250248633623,-6.363950509780645,2.047446324059367
1783696700861927000,0.754927001953125,-13.427254572564363,-7.102642970481514,3.136106068640947
1783696700871890000,0.764889892578125,-11.125799000644683,-7.649967056152224,3.656703767688572
1783696700881853000,0.77485302734375,-9.0462296916157,-8.106258287245035,3.985039942258596
1783696700891815400,0.7848154296875,-7.3892358065605155,-8.237380575627087,4.051578991571069
1783696700901778400,0.7947783203125,-6.0791550785124295,-7.660439350327849,3.3312036933273075
1783696700911740400,0.804740478515625,-5.169241543275118,-6.712004653516411,2.1860060689657925
1783696700921703400,0.814703369140625,-4.540502326199412,-5.639136352306604,1.2475253415443002
1783696700931666400,0.82466650390625,-4.2216824602544305,-4.390433345285058,0.6659463734418153
1783696700941629400,0.83462939453125,-3.84894337259531,-3.0112416716098784,0.31489421693384645
1783696700951592400,0.844592529296875,-2.9712054292976853,-1.6609429149419068,-0.04204977409169078
1783696700961555500,0.854555419921875,-1.5747598384827375,-0.5198942269533873,-0.34244960172697897
1783696700971518500,0.8645185546875,0.21866028658151626,0.43834524003565306,-0.5974874619826674
1783696700981481200,0.874481201171875,1.9589900419712065,1.0920347739726304,-0.980064345306158
1783696700991444200,0.8844443359375,3.512259348657727,1.4213473923593758,-1.6534668799728154
1783696701001407500,0.894407470703125,4.788771569103003,1.4598562789738176,-2.607052383676171
1783696701011370500,0.90437060546875,5.886002742674947,1.4243085802525282,-3.554591885213554
1783696701021333500,0.91433349609375,6.649514587333798,1.4230436748832462,-4.033474302820861
1783696701031296500,0.924296630859375,7.009765949341654,1.6482202114909887,-3.968021879701316
1783696701041259500,0.934259521484375,6.987101113069057,2.2580752798765897,-3.405694870688021
1783696701051222300,0.94422216796875,6.553491669383645,3.06013926576972,-2.2614519167028364
1783696701061184500,0.9541845703125,5.918498068088293,3.7637680118739603,-1.0169171352766453
1783696701071147500,0.9641474609375,5.3313756405144925,4.338065444666147,-0.009647789517603814
1783696701081110500,0.974110595703125,5.124295317089557,4.673653490060568,0.48022009595185516
1783696701091073500,0.984073486328125,5.301504233863949,4.836988195261359,0.6208239139065146
1783696701101036300,0.994036376953125,5.859309381538629,4.730598781597614,0.38863150718733663
1783696701110999300,1.003999267578125,6.633745940315723,4.495879925140739,-0.06545647824015469
1783696701120962300,1.01396240234375,7.296020347246527,4.256471449562907,-0.3024956308707595
1783696701130925300,1.02392529296875,7.667296961137652,4.228851621231437,-0.3527037961725145
1783696701140888600,1.033888671875,7.698518613353371,4.419603910189867,-0.2699540551628917
1783696701150851600,1.0438515625,7.475267491850256,4.595723278161883,-0.20780673800334334
1783696701160814600,1.053814697265625,6.809093154871463,4.766734509339928,0.056985988873615855
1783696701170777300,1.06377734375,5.70151009863317,4.926157594054937,0.33370888058431447
1783696701180740400,1.073740234375,4.346965959480404,4.740387185162305,0.5970189676880836
1783696701190702300,1.083702392578125,3.1865105602324006,4.139666440346836,0.9060290950194001
1783696701200665600,1.09366552734375,2.4916736078709363,3.3494571428984403,1.2817819775417447
1783696701210628600,1.103628662109375,2.009662829110026,2.1847043387174607,1.628998793670535
1783696701220591400,1.11359130859375,1.2191279529690742,0.29492694918215273,1.8995919504545629
1783696701230554400,1.123554443359375,-0.0016600421667098998,-1.7808377068668604,1.6572408455535768
1783696701240517400,1.133517333984375,-2.022275057923794,-3.987093952178955,1.2083538993678986
1783696701250480400,1.14348046875,-4.956314247387647,-5.670650265467167,0.679279902267456
1783696701260443400,1.153443359375,-8.776337230446934,-6.484639666953682,0.213893802832067
1783696701270406400,1.163406494140625,-12.248436418151854,-6.810202577418089,-0.08875906442701816
1783696701280369400,1.173369384765625,-14.201958842366933,-6.675167499506474,-0.5831393492870033
1783696701290332400,1.18333251953125,-14.71114988899827,-6.678436145913601,-0.577858924666047
1783696701300295400,1.19329541015625,-14.25452021973133,-7.041209135353565,-0.30872721873670816
1783696701310258400,1.203258544921875,-13.090211067664622,-7.342492760086059,-0.33897900300696493
1783696701320221400,1.213221435546875,-11.37562131820917,-7.571338925117254,-0.6283648308053612
1783696701330183400,1.223183349609375,-9.458536819553375,-7.718822565713524,-0.6904474852308631
1783696701340146200,1.233146240234375,-7.458545489630103,-7.483599266865849,-0.4388733555629849
1783696701350109400,1.243109375,-5.249384755048156,-6.861124370881915,-0.12411387092471123
1783696701360072400,1.253072509765625,-3.0181057121604677,-6.023100013813376,0.026612843246012926
1783696701370035500,1.263035400390625,-1.4381588264286518,-4.994536133754253,0.2774836469501257
1783696701379998500,1.27299853515625,-0.8276759815335273,-3.7646389494895933,0.5611280084870756
1783696701389961500,1.28296142578125,-0.5755412953734398,-2.3721955800533294,0.8384159867346286
1783696701399924500,1.292924560546875,0.003298457023501396,-1.3309294548094273,1.1629635826766491
1783696701409887200,1.30288720703125,1.1199427715957164,-0.6790852564781904,1.2749388336487113
1783696701419850200,1.312850341796875,2.3309265810757873,-0.181138657438755,1.1753291432529687
1783696701429813500,1.3228134765625,3.159579298686981,0.30259003115594385,1.0203079467587173
1783696701439776500,1.332776611328125,3.6902924412965774,0.8731213894128799,0.6907716026186943
1783696701449739500,1.342739501953125,3.963537135502696,1.4551462015867231,0.2514870359063148
1783696701459701200,1.352701171875,3.964178356015682,2.0302391686707733,-0.13201470717713237
1783696701469664300,1.362664306640625,3.907637553626299,2.55701672539711,-0.37356428643688555
1783696701479627300,1.372627197265625,4.003660471576452,3.0122967336207624,-0.4502082579173147
1783696701489590500,1.382590576171875,4.289079003179073,3.41311040764153,-0.37089345979243515
1783696701499553500,1.392553466796875,4.720581245452165,3.643311494413018,-0.3086851331606507
1783696701509516500,1.4025166015625,5.104397607442737,3.7062247544437645,-0.3414063762843609
1783696701519479600,1.4124794921875,5.257267032730579,3.7293876033663746,-0.36343452208861704
1783696701529442300,1.4224423828125,5.2490907405376435,3.807221369153261,-0.40750820322334763
1783696701539405300,1.4324052734375,5.238366517427563,3.920296544191241,-0.5351544860579073
1783696701549368300,1.442368408203125,5.203128615307808,3.9097564454764124,-0.47826107083857056
1783696701559331300,1.452331298828125,5.083638897052407,3.862826351997256,-0.30101635209843514
1783696701569294300,1.46229443359375,4.793135609531403,3.7802281482875344,-0.0998774014212191
1783696701579256600,1.472256591796875,4.655523374608158,3.6946506365060805,-0.18415508265048264
1783696701589219300,1.48221923828125,4.795996844181418,3.5104940925508736,-0.6460590390585362
1783696701599182300,1.492182373046875,4.663439554560184,3.021239334011078,-1.1213475238271058
1783696701609145300,1.502145263671875,4.188924099990725,2.588846280378103,-1.5925824954211711
1783696701619108400,1.5121083984375,3.5147523345172402,2.421641455745697,-1.9899629801228642
1783696701629071400,1.5220712890625,2.4703023185402153,2.345166703352332,-1.9567136214718222
1783696701639034600,1.53203466796875,1.05115448205173,2.2773411213606596,-1.6663273844592272
1783696701648997400,1.541997314453125,-0.335227395388484,2.2425965557157994,-1.4054618409633635
1783696701658960400,1.55196044921875,-1.3433821091473102,1.992588944712281,-1.120324172128737
1783696701668923400,1.56192333984375,-1.4765052159577607,1.3812941989123821,-0.4955779702119529
1783696701678886400,1.571886474609375,-0.6432803681254387,0.44481472831070423,0.851600024086982
1783696701688849400,1.581849365234375,0.4175876986891031,-0.6140279701560736,2.4555463556960224
1783696701698812400,1.5918125,0.8803197764843702,-1.6498948667049407,3.142085143050551
1783696701708774400,1.6017744140625,0.5398562340080738,-2.560333887121081,2.658688755150139
1783696701718737400,1.6117373046875,-0.735537796062231,-3.406754901134968,1.5398289564855396
1783696701728700400,1.621700439453125,-3.1608804444134235,-4.386762547817826,0.4441179782181978
1783696701738663400,1.631663330078125,-6.035900458675623,-4.964624979615211,-0.7129083233639597
1783696701748626400,1.64162646484375,-8.351808334317802,-4.971889417660236,-1.445726631334424
1783696701758589400,1.65158935546875,-9.443304179108143,-4.9178334178239105,-0.9111401544228196
1783696701768552200,1.66155224609375,-9.020911710485816,-5.299430934721231,0.7217746436476707
1783696701778515500,1.671515380859375,-7.173657119381427,-5.643368875309824,2.2247810591705144
1783696701788478500,1.681478515625,-4.932279291805624,-6.013572307011485,3.279553001067042
1783696701798441500,1.69144140625,-3.1588591677188873,-6.559591155302524,3.9777193901121612
1783696701808404500,1.701404541015625,-2.162756710803509,-7.202479309239983,4.400121795606613
1783696701818367500,1.711367431640625,-1.4869780946552753,-7.365501879751682,4.350972857034206
1783696701828329200,1.7213291015625,-0.7574626276224851,-6.949340998995304,3.5428403648823497
1783696701838292500,1.73129248046875,-0.2622597743332386,-6.144485336557031,2.229389429748803
1783696701848255500,1.74125537109375,-0.4080038777858019,-4.896660865935683,0.617957564689964
1783696701858218500,1.751218505859375,-1.0861509766310453,-3.3484768996894356,-0.648475598680973
1783696701868181500,1.761181396484375,-1.5886790582418442,-1.9041846850723028,-1.2344738445304333
1783696701878144500,1.77114453125,-1.541015389791131,-0.5706032544493674,-1.484859787327051
1783696701888107300,1.781107177734375,-0.9537082533001899,0.6576736351370811,-1.5247437616869806
1783696701898071600,1.791071533203125,-0.040298108118772505,1.5876210736215113,-1.3913731098562478
1783696701908034600,1.80103466796875,1.0409855547368525,2.295145073598623,-1.2675094143003225
1783696701917997600,1.81099755859375,2.1956389897078274,2.873696656703949,-1.2936246832877396
1783696701927960600,1.820960693359375,3.2273931902408597,3.2965690177977085,-1.4412640989676118
1783696701937923600,1.830923583984375,4.117974833020567,3.6732659031718966,-1.7228472901910543
1783696701947885600,1.840885498046875,4.900809217786788,3.9655385384529827,-2.0778376629307864
1783696701957848600,1.8508486328125,5.403889088061452,4.194887976831198,-2.3935943419128654
1783696701967811600,1.8608115234375,5.595303640320897,4.389680481091141,-2.663969033640623
1783696701977774600,1.870774658203125,5.581150027284026,4.550675929689407,-2.850159713771939
1783696701987737600,1.880737548828125,5.5440451622486115,4.733673366737365,-3.0354969919443127
1783696701997700600,1.89070068359375,5.5146431266754865,4.837741059455276,-3.08927972779721
1783696702007663600,1.90066357421875,5.501466834238172,4.810602877160907,-2.89576674195379
1783696702017626600,1.910626708984375,5.527662182724476,4.769585222595929,-2.629374397860467
1783696702027589600,1.920589599609375,5.513277099019288,4.687540561115742,-2.4316794501572847
1783696702037552600,1.930552734375,5.538599171802401,4.53957468996048,-2.3464079355850815
1783696702047515600,1.940515625,5.6404842597842215,4.305904465773701,-2.4492642066866157
1783696702057478700,1.950478759765625,5.956406650722027,4.005833139440417,-2.718998262423277
1783696702067440400,1.9604404296875,6.275784150549769,3.7384184665620324,-2.7350392966419457
1783696702077403600,1.970403564453125,6.318120486497879,3.4770658702015873,-2.355444643999636
1783696702087366700,1.98036669921875,5.786560956192016,3.3635581489652395,-1.9447484583899377
1783696702097329700,1.99032958984375,4.688893729290366,3.3490924012392758,-1.5662015612348914
1783696702107292700,2.000292724609375,3.406832642546296,3.29505510610342,-1.220480244360864
1783696702117255700,2.010255615234375,2.0883096648454664,3.1090941430747505,-0.9625383332267403
1783696702127218400,2.020218505859375,1.0965998899310827,2.4882582464694973,-0.7558899714782834
1783696702137181400,2.030181396484375,0.2957897034913301,1.3332003223508595,-0.10144991143494844
1783696702147144400,2.04014453125,-0.6158949330717325,-0.3185749512732029,1.0515198082327841
1783696702157107700,2.050107666015625,-1.408017955186963,-2.286741402390599,2.341266334912926
1783696702167070700,2.06007080078125,-2.0122569372564554,-4.504627295219898,3.6618975369393825
1783696702177032400,2.070032470703125,-2.3439123193770643,-6.510283811298012,4.015609268045425
1783696702186995500,2.079995361328125,-2.6684593307971953,-7.463924260058999,2.5030098253995177
1783696702196958500,2.08995849609375,-3.724860481330752,-8.200885951444507,0.5709964915506541
1783696702206921500,2.09992138671875,-6.006166999191046,-9.722834821715951,-0.05896043075174093
1783696702216884700,2.109884765625,-8.55209826695025,-10.98389695957303,-0.2933502013847232
1783696702226847700,2.11984765625,-10.129874238383769,-10.445372266429661,-0.8967445493236184
1783696702236810800,2.129810791015625,-11.260592086493968,-9.243394185703993,-0.6644502896651625
1783696702246773500,2.1397734375,-11.548795280379057,-7.7454802710145705,0.31324177355170246
1783696702256736500,2.149736572265625,-10.460403831344843,-6.283740077990293,1.2009643736384807
1783696702266699500,2.159699462890625,-8.514491297611594,-5.85311578759551,2.154804436624795
1783696702276662500,2.16966259765625,-6.38141719288826,-6.16028145610392,2.761232891562581
1783696702286625500,2.17962548828125,-4.358603205782175,-6.3797267555832855,2.524479314407706
1783696702296587500,2.18958740234375,-2.4984903021484612,-6.110893448078632,1.7348560001537203
1783696702306550500,2.199550537109375,-0.8988590572595596,-5.454904405027627,0.9509317743241786
1783696702316513500,2.209513427734375,0.22198504709005354,-4.444437907195091,0.1989284350208938
1783696702326476500,2.2194765625,0.6370265684276819,-3.1044407643109557,-0.4325650491990149
1783696702336439600,2.229439453125,0.4955050511062145,-1.7859020045191047,-0.8028967834554612
1783696702346402600,2.239402587890625,0.08305588434934616,-0.6120803432196379,-0.8861553507700562
1783696702356365600,2.249365478515625,-0.2495095983535051,0.5235919124275445,-0.8063495542578398
1783696702366328600,2.25932861328125,-0.09754267486333847,1.7375170360565184,-0.8166919384434819
1783696702376291600,2.26929150390625,0.5042097510874272,2.92725756649971,-0.9529624033689499
1783696702386254600,2.279254638671875,1.2423422398179769,3.9287481461942195,-1.0744185993917286
1783696702396217600,2.289217529296875,1.923675567483902,4.752142504885793,-1.095914099624008
1783696702406179600,2.2991796875,2.5231454354554415,5.374962268784642,-1.058332264726609
1783696702416142600,2.309142578125,3.0339848338156936,5.712038506910204,-1.0831231532424688
1783696702426105600,2.319105712890625,3.502113802218437,5.680455035644769,-1.3209624798074364
1783696702436068600,2.329068603515625,4.10258320262134,5.476774291530251,-1.7063637729018926
1783696702446031600,2.339031494140625,4.721621694415807,5.315561985310912,-2.0916091447822747
1783696702455994600,2.34899462890625,5.297478047087789,5.2197027334898705,-2.29083875470683
1783696702465957600,2.35895751953125,5.705271496993303,5.1437020283490416,-2.3348504765212534
1783696702475920600,2.368920654296875,6.088085403943062,5.131547480174898,-2.259781645403057
1783696702485883400,2.37888330078125,6.471397323542833,5.128825946256518,-2.0496860658101737
1783696702495846400,2.388846435546875,6.818531429824232,5.096658537623286,-1.7997833764858542
1783696702505809700,2.3988095703125,7.084702240121364,4.985111302804946,-1.6782292730465531
1783696702515771600,2.408771728515625,7.165000350195169,4.81309586302042,-1.6364005943596363
1783696702525734700,2.418734619140625,7.0532450255841015,4.583419092383981,-1.6996343185164033
1783696702535697700,2.42869775390625,6.795100869876146,4.397840991193056,-1.7270501487083731
1783696702545660400,2.438660400390625,6.35927901083827,4.344553053119778,-1.5589578737169503
1783696702555623400,2.44862353515625,5.734771147722006,4.446164000335336,-1.3195358080051838
1783696702565586700,2.458586669921875,5.2643081834137435,4.700362048766016,-1.14507662833035
1783696702575549700,2.4685498046875,4.902441787424683,4.81628501445055,-0.8314813651658595
1783696702585512700,2.4785126953125,4.3101498482584955,4.498963278108835,-0.338036023068428
1783696702595475700,2.488475830078125,3.4272254422336816,3.7342385505288838,0.26823402643725275
1783696702605438500,2.4984384765625,2.4129683199465273,2.5267022511541843,1.0054020540498196
1783696702615401500,2.5084013671875,1.4805729037880897,1.022052890729904,1.8137706930451094
1783696702625363700,2.51836376953125,0.6907645883560181,-0.3725017717719078,2.519391343618929
1783696702635326700,2.52832666015625,0.07227320905029773,-1.463996447518468,3.088340108859539
1783696702645289700,2.538289794921875,-0.9754781865596771,-2.299559967431426,3.5757527466639876
1783696702655252700,2.548252685546875,-2.9179139840930697,-3.095952337428927,3.4761616148382424
1783696702665215500,2.558215576171875,-5.591430013757944,-4.039514459767937,2.582911629632115
1783696702675178500,2.568178466796875,-8.903680000290274,-5.620230576306581,1.7395849283717573
1783696702685141500,2.5781416015625,-11.355585076874494,-6.793850577554107,1.010121483787149
1783696702695104500,2.5881044921875,-12.15959493613839,-7.019727371385693,0.5685565510526299
1783696702705067500,2.598067626953125,-11.75220655990243,-7.505106749796867,1.6809680503606794
1783696702715030800,2.60803076171875,-10.405565156698227,-8.022307499882578,3.3465093990087507
1783696702724993500,2.61799365234375,-8.752396967411041,-7.74591047912538,3.908267960484326
1783696702734955500,2.62795556640625,-7.760002717363834,-7.315321844565868,3.6510762831956147
1783696702744918500,2.63791845703125,-7.481146028494835,-7.15065793658793,3.4299931533813472
1783696702754881500,2.647881591796875,-7.445318343788385,-6.841180484005808,3.1607495115101334
1783696702764844500,2.657844482421875,-7.159539162179827,-6.260317701348662,2.4709213272213932
1783696702774807800,2.667807861328125,-6.526288605159521,-5.249330394512414,1.2894807153508066
1783696702784770600,2.6777705078125,-5.954715628895163,-3.9197774887531995,0.14563260590210556
1783696702794733600,2.687733642578125,-5.2121016108363865,-2.6598569221466777,-0.5835086209908128
1783696702804696600,2.697696533203125,-3.9722441735714673,-1.6524667630195617,-0.8361340132772922
1783696702814659600,2.70765966796875,-2.2309411892354487,-0.8580664436221123,-0.7680217232987284
1783696702824622600,2.71762255859375,-0.2704956877589226,-0.17404782239496708,-0.6234913795500994
1783696702834584600,2.72758447265625,1.6105664804011581,0.6214589969396591,-0.5630562000706791
1783696702844547600,2.737547607421875,3.2296284019470214,1.4026011908352374,-0.43261765616908665
1783696702854510600,2.747510498046875,4.530165641102195,2.090800312617421,-0.3086776805065572
1783696702864473600,2.7574736328125,5.542901837432384,2.6583880186378956,-0.32264629236534237
1783696702874436600,2.7674365234375,6.324518078580498,3.138340111303329,-0.6434519983652979
1783696702884399600,2.777399658203125,6.805434632363915,3.4056863951206204,-1.114365994376689
1783696702894361900,2.78736181640625,6.941724678772688,3.5477421654492614,-1.5534322421632707
1783696702904325000,2.7973251953125,6.808121094968914,3.73545786319077,-1.847594928974658
1783696702914288000,2.8072880859375,6.492046143817901,3.9465088438123463,-1.9113836566656828
1783696702924251100,2.817251220703125,6.221098036116361,4.210502894592285,-1.8705086254417895
1783696702934214100,2.827214111328125,6.0506941231817,4.511079247838259,-1.734623360441625
1783696702944176000,2.837176025390625,5.928616726520657,4.74831476329118,-1.5636436934456228
1783696702954139000,2.847138916015625,5.821325395581126,4.9059459961533545,-1.4008476251661777
1783696702964102100,2.85710205078125,5.745980524000525,4.930749598020315,-1.3700102960929275
1783696702974065200,2.867065185546875,5.723701472175121,4.863772741812467,-1.4509209851071239
1783696702984028200,2.877028076171875,5.6719291993618,4.759506896173954,-1.5925373411051928
1783696702993991200,2.8869912109375,5.418355420309305,4.588064872363209,-1.7676275121599434
1783696703003954200,2.8969541015625,5.115795199769735,4.406445153409242,-2.023171422241628
1783696703013917000,2.9069169921875,4.932721190354227,4.308730336849391,-2.321822652643919
1783696703023880000,2.9168798828125,4.769646597394347,4.281772771818936,-2.4790476427927612
1783696703033843000,2.926843017578125,4.309289432036876,4.15022553602308,-2.3114389135345816
1783696703043805200,2.93680517578125,3.5672926690936086,4.086726585058868,-1.8737723034128546
1783696703053768200,2.946768310546875,2.4929285763680933,4.022257035496831,-1.3685256104931234
1783696703063731200,2.956731201171875,1.3372457983493804,3.6957933768004176,-0.8096930194668471
1783696703073694000,2.96669384765625,0.47153439293205734,3.099848175823688,-0.2948079989776015
1783696703083657000,2.976656982421875,-0.031441432446241376,2.149279389593005,0.16857129068002102
1783696703093620000,2.986619873046875,-0.5327975476682186,0.6500666672646999,0.7070140776935965
1783696703103583000,2.9965830078125,-1.3753916968703268,-1.1520879683971403,1.0716224658671767
1783696703113546200,3.006546142578125,-2.4785639509290456,-2.846597637376189,0.7979984900198877
1783696703123509200,3.01650927734375,-3.4200825847417113,-4.087061223840713,0.06916939781606198
1783696703133472000,3.026471923828125,-4.426892898154258,-5.480398327246308,-0.026880773467198013
1783696703143435000,3.03643505859375,-5.719669440180063,-6.919279038208723,0.6556026740819215
1783696703153397000,3.04639697265625,-7.288295890474319,-7.835528206208348,1.0694746401835233
1783696703163360000,3.056360107421875,-8.507529641905426,-8.345520047828554,1.709855268279463
1783696703173323300,3.0663232421875,-8.943256808397173,-8.90859524486065,2.800715007123351
1783696703183286300,3.076286376953125,-8.866878502115608,-9.237715555545687,3.5825767474651333
1783696703193249000,3.0862490234375,-9.064760789084435,-8.94354497768879,3.5816684004485606
1783696703203212000,3.0962119140625,-9.949534037846327,-8.433381871154904,3.3902965182870624
1783696703213175000,3.106175048828125,-10.953192024707793,-7.967702633991837,3.3808614582046865
1783696703223138000,3.116137939453125,-11.237938356137276,-7.284866500547528,2.9097663334727284
1783696703233101000,3.12610107421875,-10.658720418077706,-6.1886488879323,1.953461049416661
1783696703243064000,3.13606396484375,-9.30391908929348,-4.823308044955134,1.0365414348095654
1783696703253026000,3.146026123046875,-7.512228564500808,-3.5268688887685533,0.6047042614936828
1783696703262989000,3.155989013671875,-5.515253952050209,-2.4118524676591155,0.49946431012600656
1783696703272952000,3.1659521484375,-3.4380127937078475,-1.44853116736114,0.42659306211732323
1783696703282915000,3.1759150390625,-1.3168243570894003,-0.6861299142926931,0.1908793494042009
1783696703292878000,3.185878173828125,0.7768231616526842,-0.09532441429197788,-0.152782185395807
1783696703302841000,3.195841064453125,2.7678321436971425,0.40521512385010716,-0.4998561589878052
1783696703312804000,3.20580419921875,4.440158622440696,0.8575468036621808,-0.7572220968648791
1783696703322767000,3.21576708984375,5.5503971616238355,1.3535638959437608,-0.9136769063588231
1783696703332730000,3.225730224609375,6.066607731628418,1.8556833967536688,-0.9713317344047129
1783696703342693000,3.235693115234375,6.260723944061994,2.4555519086539745,-1.043108099848777
1783696703352656100,3.24565625,6.394177890262007,3.0615780664011836,-1.1381230098001658
1783696703362617900,3.255617919921875,6.592569880318641,3.572146246604621,-1.1738301368668675
1783696703372581000,3.2655810546875,6.834996826934814,3.991141181743145,-1.140133180578798
1783696703382544100,3.275544189453125,7.1499921661555765,4.259408087536692,-0.9799740366742015
1783696703392507100,3.285507080078125,7.457408594554662,4.32970444355607,-0.7564784388907253
1783696703402470100,3.29547021484375,7.760514758539199,4.193509381954372,-0.6225235574312508
1783696703412433200,3.30543310546875,7.937952807894349,4.00028836479485,-0.5540786744974553
1783696703422396200,3.315396240234375,7.921095781117677,3.8090257882267236,-0.4968167182266712
1783696703432359000,3.32535888671875,7.756209170299768,3.562593697622418,-0.45918037666305894
1783696703442322000,3.335322021484375,7.562028660458326,3.402578492233157,-0.4669989414595067
1783696703452284200,3.3452841796875,7.3967872448533765,3.449509170234203,-0.4198069091085344
1783696703462247200,3.3552470703125,7.214177345818281,3.615284254324436,-0.25608802689574656
1783696703472210200,3.365210205078125,6.788256118547916,3.7992636881470676,-0.04802636428326368
1783696703482173000,3.3751728515625,6.246494927701353,4.058866225969791,0.006495718694850802
1783696703492136000,3.385135986328125,5.793447793096304,4.29068877646327,-0.13239135846979916
1783696703502099000,3.395098876953125,5.677912949946522,4.453346020793915,-0.4234506724383682
1783696703512062000,3.40506201171875,5.442831105396151,4.317697194898129,-0.5941400512509047
1783696703522025200,3.415025146484375,4.870126494753361,3.679938220542669,-0.3587004062388092
1783696703531988200,3.42498828125,3.693161274731159,2.6154946333289146,0.04492701002843678
1783696703541951200,3.434951171875,1.9236936876624822,1.2581114713579415,0.6032180415239184
1783696703551913000,3.444912841796875,-0.16188859804570674,-0.09337854092121124,1.1834116927478462
1783696703561876000,3.4548759765625,-2.123226664447784,-1.6040794564694165,1.6482108591407536
1783696703571839000,3.4648388671875,-3.8068250633120533,-3.045941229069233,1.582713135574758
1783696703581802200,3.47480224609375,-5.60402529143691,-4.33964599185586,0.7393413530636579
1783696703591765200,3.48476513671875,-7.600581970736384,-5.527626526889205,-0.2662915140673518
1783696703601728300,3.494728271484375,-9.441490407684444,-6.2341767133980985,-0.4500050634954124
1783696703611691000,3.50469091796875,-11.100033275747299,-6.591498451694846,0.22295001966468989
1783696703621654000,3.514654052734375,-12.238518250727653,-6.932363560709357,1.2051917090099304
1783696703631617000,3.524616943359375,-12.79504154189825,-7.407119253775477,2.3041148542568086
1783696703641580000,3.534580078125,-13.116133444428444,-7.973951172992587,3.3498408815190195
1783696703651542300,3.544542236328125,-13.254576284956931,-8.114618119311332,3.830774678698182
1783696703661505000,3.554505126953125,-13.25715285744667,-7.870393767884373,3.818247205558419
1783696703671468000,3.564468017578125,-13.088150043481587,-7.533423912742734,3.730800685034692
1783696703681431000,3.57443115234375,-12.61568333813548,-7.10043230869472,3.631396015691757
1783696703691394000,3.58439404296875,-11.558621093344687,-6.452689115941524,3.3486136778116222
1783696703701357000,3.594357177734375,-10.039850853109359,-5.556178083112836,3.0047131466239687
1783696703711320000,3.604320068359375,-8.309257478836178,-4.41083257471323,2.378415331351012
1783696703721283000,3.614282958984375,-6.430896970850229,-3.1506793683946133,1.7768199956580994
1783696703731246000,3.62424609375,-4.349501030915976,-2.1039853728830815,1.5526599426165222
1783696703741209000,3.634208984375,-2.1734674899101254,-1.1983142975211143,1.3050818968474864
1783696703751172000,3.644172119140625,0.03614917174577713,-0.3267740398198366,0.8500641928218304
1783696703761134000,3.654134033203125,2.150918973493576,0.3697469201058149,0.19598814378529786
1783696703771097000,3.66409716796875,4.017212027066946,1.0569213750153779,-0.6295885273814201
1783696703781060000,3.67406005859375,5.535552059191465,1.7463830640792846,-1.4917999618537723
1783696703791023000,3.684023193359375,6.668581691375374,2.409063713723421,-2.1844405732147396
1783696703800986000,3.693986083984375,7.399500010943412,3.0915187388956546,-2.7226971169412133
1783696703810949000,3.70394921875,7.747602085474133,3.724767542350292,-3.1489865930020806
1783696703820912000,3.713912109375,7.765688946306705,4.317032593509555,-3.467257008370757
1783696703830875100,3.723875244140625,7.463153275686502,4.84937129149437,-3.69192851806581
1783696703840838100,3.733838134765625,6.912386940607428,5.212128498843312,-3.7201509884655475
1783696703850800000,3.743800048828125,6.363558880114555,5.576146519908309,-3.5483719877853988
1783696703860763100,3.75376318359375,6.140159874573349,5.973133329117298,-3.3843846638947723
1783696703870726100,3.76372607421875,6.256383284509182,6.214762987875938,-3.081908029985428
1783696703880689200,3.773689208984375,6.511707122099399,6.309767668694257,-2.7284973276525735
1783696703890652200,3.783652099609375,6.73852791878283,6.153442549994588,-2.4084404672585427
1783696703900614400,3.793614501953125,6.911674408423901,5.788206969833373,-2.1933168303705752
1783696703910577400,3.803577392578125,7.046150098887085,5.352621257638931,-2.018384918617457
1783696703920540400,3.81354052734375,7.26759212514162,4.890927290719747,-1.8366361664563415
1783696703930503400,3.82350341796875,7.6647858550995585,4.34773928194046,-1.4668426307298241
1783696703940466400,3.833466552734375,8.096350641214848,3.851696470695734,-0.8027016992747783
1783696703950428400,3.843428466796875,8.446074179467558,3.5638591875135894,-0.2662862533703446
1783696703960391400,3.853391357421875,8.755231898576021,3.3960137268900867,-0.15447423013597725
1783696703970354400,3.8633544921875,8.632128081476688,3.2106273488789796,0.46054392010122536
1783696703980317400,3.8733173828125,7.843073799282312,2.553999423402548,1.0528937269344925
1783696703990280400,3.883280517578125,5.748569955971837,1.297497725328803,0.7862830639153718
1783696704000243500,3.893243408203125,2.3721020565509794,0.2001233438938856,0.11469868458658457
1783696704010206500,3.90320654296875,-0.32098201241493224,-0.7113789218395948,-0.298441971565783
1783696704020169500,3.91316943359375,-3.2795348808884617,-2.415128128328919,-0.17091653863191603
1783696704030132500,3.923132568359375,-6.107544137650728,-4.036561455181241,-0.19892697371616958
1783696704040095200,3.93309521484375,-7.874013711947202,-4.834820788094401,-0.7762297258041798
1783696704050057500,3.943057373046875,-8.533401749786734,-5.1748424320220945,-1.1295733542501927
1783696704060020500,3.9530205078125,-9.1974636246562,-5.6462529063135385,-1.0020390073575078
1783696704069983500,3.9629833984375,-10.327889211821555,-5.932029165312647,-0.6241309926278888
1783696704079946500,3.972946533203125,-11.813174531084298,-5.822672718536854,0.11693535759747027
1783696704089909200,3.9829091796875,-12.460929998797177,-5.392797785204649,0.9412959309726953
1783696704099872300,3.992872314453125,-11.523524061000346,-5.274098925065994,2.3699409329943357
1783696704109835300,4.002835205078125,-9.290852686971425,-5.742559901902079,4.0225481273978945
1783696704119798500,4.012798583984375,-6.517872658991814,-6.317779125714302,4.6200537095591425
1783696704129761500,4.022761474609375,-4.2470401888728135,-6.768874541729688,4.11951913985312
1783696704139724500,4.032724609375,-3.1211493225276468,-7.307513801163434,3.1163813774734734
1783696704149686300,4.042686279296875,-2.8473224445194005,-7.537580447900295,2.0094833808898924
1783696704159649300,4.052649169921875,-2.7964152641028166,-7.197715455839037,0.8401428105272353
1783696704169612300,4.0626123046875,-2.747698871728778,-6.452316190975904,-0.12453450748957692
1783696704179575600,4.072575439453125,-2.738701910802722,-5.406994068339467,-0.7754762040231377
1783696704189538600,4.08253857421875,-2.799499201592803,-4.08505397567153,-1.187400323992595
1783696704199501600,4.09250146484375,-2.5721535042524337,-2.616011935201287,-1.3934884945750237
1783696704209464300,4.10246435546875,-1.661039361053705,-1.0068576596856116,-1.4468097503960131
1783696704219427300,4.11242724609375,-0.035463527569174765,0.6107815355807542,-1.2622867112159728
1783696704229390300,4.122390380859375,1.8769447959691286,2.04074594963789,-0.9395609969388693
1783696704239353300,4.132353271484375,3.6213913390278814,3.21070158315897,-0.8200004054043442
1783696704249315600,4.142315673828125,4.927969611912966,4.21845765298903,-0.9198081756554544
1783696704259278600,4.152278564453125,5.716930370604992,4.993287010475993,-1.0654018377866596
1783696704269241300,4.162241455078125,6.093221013265848,5.637943927651643,-1.1588046363662927
1783696704279204400,4.172204345703125,6.244589970862865,6.214603413400053,-1.2132890176825224
1783696704289167400,4.18216748046875,6.311591376990079,6.686085783883929,-1.212439049789682
1783696704299130400,4.19213037109375,6.309865868371725,7.057284656363725,-1.0988128898054361
1783696704309093400,4.20209326171875,6.304813261157274,7.323220488861203,-0.9458534481465816
1783696704319056400,4.212056396484375,6.369707465872168,7.452691502904892,-0.8401009441468864
1783696704329019400,4.222019287109375,6.539616873288154,7.520760830524563,-0.7272479604922235
1783696704338981400,4.2319814453125,6.802582165542245,7.5700938934922215,-0.5209324474273249
1783696704348944400,4.2419443359375,6.985711120015383,7.434146961432695,-0.24548078122884034
1783696704358907400,4.251907470703125,6.957741163071989,7.12773591068387,-0.05432108051329851
1783696704368870400,4.261870361328125,6.7407146151721475,6.792259508970379,-0.20527115511111915
1783696704378833400,4.27183349609375,6.404930754944682,6.2952031367689365,-0.5266738040909171
1783696704388796400,4.28179638671875,6.000257482886314,5.731700069713592,-0.9559482142467051
1783696704398759400,4.291759521484375,5.61476763472557,5.215150477012991,-1.4914260139748454
1783696704408722400,4.301722412109375,5.2630526303946965,4.804482348453998,-1.8403733071580528
1783696704418685400,4.311685546875,4.941266315859556,4.424294113832712,-1.8453551872238516
1783696704428647400,4.3216474609375,4.470973447421193,4.000045203688741,-1.4343502279259264
1783696704438610400,4.3316103515625,3.8235488190978764,3.530274897819757,-0.9075853845506906
1783696704448573400,4.341573486328125,3.213433638471365,2.956588874924183,-0.39447146538719535
1783696704458536400,4.351536376953125,2.6095699194550512,2.1502257305324077,0.33166970290690656
1783696704468499500,4.36149951171875,1.5736410635858773,0.8398392975360155,1.2861077317863703
1783696704478462500,4.37146240234375,-0.006018237376213074,-0.7520049467384815,1.6924018830448389
1783696704488425500,4.381425537109375,-2.086554345610738,-2.4866519803166387,1.5858099325463175
1783696704498388500,4.391388427734375,-4.412611274823546,-3.970729677355289,0.9918618236709386
1783696704508351200,4.401351318359375,-7.066196277093887,-4.5340357605338095,-0.006183839734084904
1783696704518314200,4.411314208984375,-10.006554148185252,-4.614122273683548,-0.44160015017837284
1783696704528276500,4.4212763671875,-12.39656361734867,-4.662880751633644,-0.16281853583958
1783696704538239500,4.431239501953125,-13.70801797183752,-5.113061975413561,1.133439820419997
1783696704548202500,4.441202392578125,-13.324368198585509,-5.787731169015169,2.7448925821363925
1783696704558165200,4.451165283203125,-10.967641405820846,-6.279440919491648,3.800141932286322
1783696704568128300,4.461128173828125,-7.702485763418674,-6.876336553061008,4.434908154566585
1783696704578091300,4.47109130859375,-5.106654446458816,-7.4497729851096866,4.1971728728979825
1783696704588054500,4.481054443359375,-3.649309273523092,-7.814274405777454,2.989516746535897
1783696704598017500,4.491017578125,-3.229064338323474,-8.079439838424324,1.7163284098163245
1783696704607980500,4.50098046875,-3.3990602549791333,-8.122106429240107,0.6753843561336398
1783696704617942300,4.5109423828125,-3.631692368289828,-7.583476522156595,-0.36982824171371753
1783696704627905300,4.5209052734375,-3.663975512257218,-6.579757745018601,-1.2445400421231985
1783696704637868300,4.530868408203125,-3.295118818989396,-5.262669184035063,-1.8616554569005965
1783696704647831600,4.54083154296875,-2.741877618229389,-3.768764504987001,-2.0616113352730867
1783696704657794600,4.550794677734375,-2.4621616821825505,-2.2714169920086857,-1.690793571065366
1783696704667757600,4.560757568359375,-2.6946061639666556,-1.118525890535116,-1.044104125148803
1783696704677720300,4.57072021484375,-2.8777070613890885,-0.12774492090344428,-0.9100605424925684
1783696704687683300,4.580683349609375,-2.4380320340543986,0.6675497169852256,-1.3428756209298967
1783696704697646300,4.590646240234375,-1.350702661293745,1.0781108780384063,-1.8449534745551646
1783696704707608600,4.600608642578125,0.2497416535437107,1.338880121552944,-2.41242237650156
1783696704717571600,4.610571533203125,2.0359335809201,1.5701438691198826,-2.972897620168328
1783696704727534600,4.62053466796875,3.7625276564240453,1.8022405603796243,-3.3222403424099087
1783696704737497300,4.630497314453125,5.135654915493727,2.0779291406065226,-3.3822862303107977
1783696704747460400,4.64046044921875,6.037450610727071,2.3656553646296263,-3.247005360944569
1783696704757423400,4.65042333984375,6.469132301220298,2.683012464545667,-2.9406100922867653
1783696704767386400,4.660386474609375,6.5740118948429815,3.0520500673383473,-2.4867455038189887
1783696704777349400,4.670349365234375,6.473021709874272,3.4472079075545072,-1.877170275288075
1783696704787312400,4.6803125,6.209672971260547,3.783416715195775,-1.3433829859301447
1783696704797275400,4.690275390625,5.920501809126138,4.03458635571599,-0.9203571147751063
1783696704807237400,4.7002373046875,5.7177124608933925,4.230726767453551,-0.565190654816106
1783696704817200400,4.710200439453125,5.576668497955799,4.38836910623163,-0.3443210216220468
1783696704827163400,4.720163330078125,5.518403940513729,4.5230008640393615,-0.15422010924443602
1783696704837126400,4.73012646484375,5.448946957927942,4.655965273156762,-0.06201791862621903
1783696704847089400,4.74008935546875,5.41427954917252,4.709815813548863,-0.019768164983019233
1783696704857052400,4.750052490234375,5.376843844747543,4.555952993309497,0.11767287809178233
1783696704867015400,4.760015380859375,5.349926027205586,4.3143820790007705,0.1391688167154789
1783696704876978400,4.769978515625,5.3728392852813,4.048933153237402,0.016746113748103378
1783696704886941400,4.77994140625,5.330528668296337,3.6211449630513783,-0.1262435033645481
1783696704896904000,4.789904052734375,5.342915271660686,3.434548332467675,-0.6153307963829487
1783696704906867000,4.799866943359375,5.436979456758499,3.3632711487174034,-1.0415099439371376
1783696704916830000,4.809829833984375,5.300287843811511,2.956058129048347,-0.8593845404833554
1783696704926793000,4.81979296875,4.824558921799063,2.1501175939828157,-0.19492299877181649
1783696704936756000,4.829755859375,3.61503407895565,0.9155793059140444,0.6897102569974959
1783696704946719000,4.839718994140625,1.8457085307061671,-0.5011398421227932,1.3127858953535556
1783696704956682000,4.849681884765625,0.29649054523706436,-1.7873019344449042,1.3886593208529054
1783696704966645000,4.85964501953125,-0.8271931664526462,-2.9502614254683253,1.2861661839753389
1783696704976608000,4.86960791015625,-2.1996914799690246,-4.038127973845601,1.3306868782252073
1783696704986570000,4.879570068359375,-4.537576794141531,-4.717220244586468,1.3961463156074285
1783696704996533000,4.889532958984375,-7.786588526472449,-4.594094800177216,1.123771536103636
1783696705006496000,4.89949609375,-11.068445712828636,-4.2720010271281,1.0066520541109145
1783696705016459000,4.909458984375,-13.145467090940475,-4.383327312672138,1.365494718364626
1783696705026422000,4.919422119140625,-13.05701957668066,-4.9999756944596765,2.0078405821189285
1783696705036385000,4.929385009765625,-11.019334183657168,-5.776203812828659,2.7007591336384413
1783696705046347800,4.93934765625,-8.413558980309963,-6.402364119327068,3.2533097217857834
1783696705056310800,4.949310791015625,-6.003254326614737,-6.86698887900114,3.3560271689385175
1783696705066274000,4.959274169921875,-4.426194979017973,-7.004522787991165,3.1062820082634683
1783696705076237000,4.969237060546875,-4.015832555407285,-6.773592217901348,2.810179877822101
1783696705086199000,4.979198974609375,-4.762943884885311,-6.2964434922188515,2.4122988962523637
1783696705096161800,4.989161865234375,-5.7068947142809625,-5.692585033899546,1.866058075773716
1783696705106124800,4.999124755859375,-6.358359557905793,-4.962469847407937,1.257187342250347
1783696705116087800,5.009087890625,-6.545467937403917,-4.045297134822607,0.5284370143711566
1783696705126051000,5.019051025390625,-6.260286721688509,-3.0309117099806664,-0.3111377870097756
1783696705136014000,5.02901416015625,-5.515296037626266,-2.025582575036585,-0.9583775602854788
1783696705145977000,5.03897705078125,-4.3978760625064375,-1.1226035152375697,-1.2493605941474437
1783696705155940000,5.048940185546875,-2.98967865909934,-0.3011597060918808,-1.2918896761886776
1783696705165902800,5.05890283203125,-1.5097458067804574,0.41319209407866,-1.1515126527272164
1783696705175864800,5.06886474609375,-0.04485796338021755,1.0599605965808034,-1.025995783136785
1783696705185828000,5.078828125,1.2476023523032664,1.7242007506266235,-1.0051617424879222
1783696705195791000,5.088791015625,2.33778477640748,2.345168164657056,-1.0398040898673235
1783696705205754000,5.098754150390625,3.3334681311279533,2.940664452822506,-1.0378658883463592
1783696705215717000,5.108717041015625,4.21008320787549,3.4268913879737255,-1.024264283169061
1783696705225680000,5.118679931640625,4.990197227767109,3.7651936607629057,-0.9393019076112658
1783696705235643000,5.128642822265625,5.702329013800621,4.0162013887196775,-0.9086101975537836
1783696705245606000,5.13860595703125,6.2894485187649725,4.264865183898807,-0.9529779662642628
1783696705255569000,5.14856884765625,6.672725367051362,4.471901083660126,-0.9230252380058169
1783696705265531100,5.15853125,6.7339388374269005,4.564249697011709,-0.8001330178305506
1783696705275494000,5.168493896484375,6.66402066707015,4.5576820090591905,-0.7203444647140801
1783696705285457000,5.178456787109375,6.616372780710458,4.600272612029314,-0.6229484317798167
1783696705295420000,5.188419921875,6.786133135044574,4.674997890406846,-0.5715086057912558
1783696705305383000,5.1983828125,7.212531916698813,4.422555161210894,-0.8799293889272958
1783696705315346000,5.208345947265625,7.608950570631027,4.322906453979015,-0.9708244424697011
1783696705325309000,5.218308837890625,7.657786205470561,4.491855491930246,-0.566742268172279
1783696705335272200,5.228272216796875,7.376478031796217,4.142447595497965,-0.37818580875769253
1783696705345235000,5.23823486328125,7.125073997998237,3.3789982946813106,-0.7190598317310214
1783696705355197000,5.248197021484375,6.566306727293133,2.9016426482498643,-0.8077180661320685
1783696705365160000,5.258159912109375,5.8196793819397685,2.8750176761746404,-0.6802576612584292
1783696705375123000,5.268123046875,5.1724610898435115,3.2284207797229287,-0.9666340781077742
1783696705385086000,5.2780859375,4.1331934449404475,3.408383963641524,-1.2150443369172512
1783696705395049000,5.288049072265625,2.8185131141424176,3.193362325823307,-1.096570517706126
1783696705405012000,5.298011962890625,1.657404803943634,2.73967513974905,-0.6121539929777383
1783696705414975000,5.30797509765625,0.565070754763484,2.058494956818223,0.23113617566451428
1783696705426806000,5.319805908203125,-0.46988662572503087,0.9225316092699766,1.4661419351145624
1783696705436768000,5.32976806640625,-1.1349801817297935,-0.49438686073124405,2.5229046124368906
1783696705446730800,5.339730712890625,-1.1193798770159482,-1.8694921418756245,3.0169717396944757
1783696705456693800,5.34969384765625,-1.0816782151311635,-2.782361019787192,2.897126339869201
1783696705466657000,5.359656982421875,-2.058755069059133,-3.8090743035435675,2.853248619697988
1783696705476620000,5.3696201171875,-4.156529896864295,-5.343570520699024,3.106877928330004
1783696705486583000,5.3795830078125,-6.627444209823012,-6.541120263588428,2.9341379736632107
1783696705496546000,5.389546142578125,-8.980448182672262,-6.794953570359945,2.124978476551175
1783696705506509000,5.399509033203125,-10.832816755789517,-6.506317830276489,1.1305153112754225
1783696705516471800,5.409471923828125,-11.863895833539962,-5.890888761150837,-0.03467040443010628
1783696705526434000,5.41943408203125,-12.338100906985998,-4.961389066433906,-0.9977844186529516
1783696705536397000,5.42939697265625,-13.098054182380437,-4.06735406832993,-0.9580832535140216
1783696705546360000,5.439360107421875,-13.754331979244947,-3.3542379474341866,0.09018032940179109
1783696705556323000,5.449322998046875,-13.287023095053433,-2.9356080462157723,1.3867403354890644
1783696705566285800,5.459285888671875,-11.513928549659251,-2.7351369117975235,1.9782488691926001
1783696705576248800,5.469248779296875,-8.823505808857083,-2.453777300196886,1.5544175999388097
1783696705586211800,5.4792119140625,-5.8042684623181815,-2.351854510553181,0.8319836155995726
1783696705596174800,5.4891748046875,-3.0477286970078943,-2.5184680912941695,0.3505857811052352
1783696705606138000,5.49913818359375,-0.8960416617512702,-2.680069396831095,-0.09186229113936424
1783696705616101000,5.50910107421875,0.840306330525875,-2.5658739855915305,-0.5655311388168484
1783696705626062800,5.519062744140625,2.1177222218126057,-2.102703224118054,-0.9974335593886673
1783696705636025900,5.52902587890625,3.09727160333395,-1.449094646462798,-1.4487256670199333
1783696705645988900,5.53898876953125,3.809814308255911,-0.6986790147423744,-1.8711574447393415
1783696705655952000,5.548951904296875,4.32330802051723,0.1525599209472537,-2.1332371863305566
1783696705665915100,5.5589150390625,4.6770197516232725,0.9579404840424657,-2.20858644182533
1783696705675878100,5.568878173828125,4.955976978257298,1.6182929829999804,-2.149676426086575
1783696705685841000,5.5788408203125,5.096890592813492,2.0599524621501564,-2.0995365767806766
1783696705695804000,5.588803955078125,5.0743374002218244,2.3423949005514384,-2.04018057084009
1783696705705766000,5.598765869140625,4.997454651549458,2.5522297833815215,-2.0705898837596175
1783696705715729000,5.60872900390625,4.870216511124372,2.631945125131309,-2.2177404930092393
1783696705725692200,5.618692138671875,4.960055772003531,2.7626667237579823,-2.3139453433975574
1783696705735655200,5.6286552734375,5.305710453382134,2.9095053444489833,-2.236216791550815
1783696705746240800,5.63924072265625,5.664241567468643,2.913324318215251,-1.8386466294959187
1783696705756203800,5.649203857421875,5.798150856220722,2.673012171795964,-1.2200836462587117
1783696705766167000,5.6591669921875,5.791380339172482,2.313273435485363,-0.6894448840595782
1783696705776129000,5.66912890625,5.76352202591002,2.0694933206945656,-0.45058951231986283
1783696705786092000,5.679092041015625,5.7623167417734855,1.9497008201003074,-0.5390821808956563
1783696705796054800,5.6890546875,5.826791844293475,1.8661840402409433,-0.8349719837605952
1783696705806017800,5.699017822265625,5.946047169271111,1.7637948021292686,-1.1128623118154704
1783696705815980800,5.708980712890625,5.933295239725709,1.6751637479960917,-1.1814841587513685
1783696705825944000,5.718944091796875,5.779142788890004,1.699127099646628,-1.0987461081795393
1783696705835907000,5.728906982421875,5.71262595140934,1.915364835256338,-0.9717708564743399
1783696705845870000,5.7388701171875,5.583478762492537,2.1539950199380518,-0.7480106164053082
1783696705855831800,5.748831787109375,5.285954782554507,2.08134625557363,-0.32362975044474
1783696705865794800,5.758794921875,4.560539736577868,1.6330355018407106,0.3645006900154054
1783696705875757800,5.7687578125,3.37808468696773,0.8548428054004907,1.1551232444398105
1783696705885721000,5.77872119140625,1.8079010703593492,-0.1578735171854496,2.034823573851585
1783696705895683300,5.788683349609375,0.29600656111240387,-1.188566518227756,2.744173912473023
1783696705905646300,5.798646240234375,-0.8587374747514724,-2.291988070872426,3.192112618023157
1783696705915609300,5.808609375,-2.0776585069715976,-3.498928157919645,3.2072780384510753
1783696705925572400,5.818572265625,-3.831033037373423,-4.715806286135316,2.598796304245293
1783696705935535400,5.828535400390625,-6.1613265812426805,-5.793184758245944,1.3216107145830989
1783696705945498000,5.838498046875,-8.393308803963661,-6.695709936797618,-0.11223770130053162
1783696705955460400,5.84846044921875,-10.164426496326923,-7.478409297007322,-0.9410572268459946
1783696705965423400,5.85842333984375,-10.890094055759906,-7.322008190461993,-0.7036896825112402
1783696705975386400,5.868386474609375,-10.146689764106274,-6.6059735517710445,0.7163781914316117
1783696705985349400,5.878349365234375,-8.373507540428639,-5.752386299389601,2.1368390102148056
1783696705995312400,5.8883125,-6.7600821634650226,-4.9860342628687615,2.8376912773430347
1783696706005275100,5.898275146484375,-6.167167708486319,-4.354243841528892,2.7003148970022797
1783696706015238400,5.90823828125,-6.44534869005084,-3.5975223876625297,1.9556044911861419
1783696706025201400,5.918201416015625,-6.753026399734616,-2.9952725335836408,1.1271916467454284
1783696706035164400,5.928164306640625,-6.3124173064202065,-2.5762808133155106,0.3925337387902662
1783696706045126400,5.93812646484375,-4.965701084414124,-2.086913826572895,-0.25142905864138154
1783696706055089200,5.948089111328125,-3.1475568524599074,-1.6403800193846225,-0.5194564931232482
1783696706065052200,5.95805224609375,-1.2579787848889827,-1.228154724511504,-0.5169370576482266
1783696706075015400,5.968015380859375,0.4096095594167709,-0.6913724911212921,-0.44015893839411435
1783696706084978400,5.977978515625,1.6620494148790836,-0.06873334448635578,-0.3898367182586342
1783696706094941400,5.98794140625,2.3973721068859097,0.7067576917797327,-0.39641189539786426
1783696706104904400,5.997904541015625,2.705170812600851,1.5727233642190694,-0.5095716434467583
1783696706114867500,6.007867431640625,2.8763024552881715,2.3666993207246065,-0.7495358532112091
1783696706124830200,6.017830322265625,3.0994425176322458,3.025264936265349,-0.9932301894146949
1783696706134792400,6.02779248046875,3.328552302035689,3.4302602798849344,-1.0292789695259184
1783696706144755500,6.03775537109375,3.2931185850828886,3.5574154182016846,-0.8865622510705142
1783696706154718500,6.047718505859375,3.0445073968738314,3.5074867274284363,-0.8642035581376403
1783696706164681500,6.057681396484375,2.6536551448971033,3.430373092609644,-1.0476286460131405
1783696706174644200,6.067644287109375,2.3023282631009816,3.3761966812640427,-1.221962153481692
1783696706184607200,6.077607177734375,2.2124656213462353,3.422459250745177,-1.3710092440024018
1783696706194570200,6.0875703125,2.3121271880596876,3.50718160700202,-1.4021549083724618
1783696706204533200,6.097533203125,2.6530121708184478,3.500812656491995,-1.3313554251365363
1783696706214496300,6.107496337890625,3.0548025809168813,3.3636247844606637,-1.21779502386488
1783696706224458200,6.117458251953125,3.429695631739497,3.13513108612895,-1.0765746083818375
1783696706234421200,6.127421142578125,3.7083296177685257,2.978513414223492,-0.966883522824198
1783696706244384300,6.13738427734375,3.9544787997782227,2.95920519490242,-0.960941565554589
1783696706254347300,6.14734716796875,4.186189122068882,3.0742507932305334,-1.0924774031735955
1783696706264310300,6.157310302734375,4.4236172374844545,3.203084093892574,-1.246020051547885
1783696706274273300,6.167273193359375,4.718920034241676,3.3492829553753136,-1.3494460853613912
1783696706284236500,6.177236572265625,5.008039758449793,3.521722758051753,-1.3966571877390146
1783696706294199300,6.18719921875,5.221919825017452,3.630689913249016,-1.42339088088572
1783696706304162300,6.197162353515625,5.383668722331524,3.6260897259771823,-1.4737293215036391
1783696706314124300,6.207124267578125,5.404073212456703,3.4908430511415003,-1.5855474822178481
1783696706324087300,6.21708740234375,5.379506341955065,3.179527277216315,-1.5064474958874283
1783696706334050300,6.22705029296875,5.365583615064621,2.728289822381735,-1.168462253158167
1783696706344013600,6.237013671875,5.296003882881998,2.1479992866545916,-0.6460937450457364
1783696706353976300,6.246976318359375,5.118087694621086,1.4495470664054155,-0.1765033988535404
1783696706363939300,6.256939208984375,4.630743738138675,0.579295094949007,0.47103827997818587
1783696706373902300,6.26690234375,3.554991990447044,-0.7283283030748366,1.5700672967523335
1783696706383865300,6.276865234375,1.9471902985841034,-2.0860732840955256,2.630950268875062
1783696706393828400,6.286828369140625,-0.36137422855794427,-3.0098627844721078,3.0738331523403524
1783696706403790300,6.296790283203125,-3.507382682532072,-3.730353233528137,2.993287497246265
1783696706413753300,6.30675341796875,-7.065440490290523,-4.397336548802256,2.5600892647102476
1783696706423716400,6.31671630859375,-10.021606755888461,-4.943173026263714,1.7352913228310645
1783696706433679400,6.326679443359375,-11.755760452991723,-5.115546777966618,0.9734196465946734
1783696706443642400,6.336642333984375,-11.884700136637687,-5.296823967093229,0.773411088186875
1783696706453605400,6.34660546875,-10.557263784641027,-5.694875775185227,1.2696679075084627
1783696706463568400,6.356568359375,-8.481930505746602,-5.987117430806159,1.884512016353011
1783696706473531100,6.36653125,-6.73136635659039,-6.254650761628151,2.3289599571779367
1783696706483494400,6.376494384765625,-5.928327388185262,-6.612705490374565,2.7637609487354755
1783696706493456400,6.386456298828125,-5.668514422482252,-6.538558304145932,2.8129376520976423
1783696706503419400,6.39641943359375,-5.352627102857828,-5.712660438200831,2.193884108864516
1783696706513382400,6.40638232421875,-5.010981072598695,-4.398009918019175,0.982498659780994
1783696706523345200,6.41634521484375,-4.925018360891938,-3.2003684051930903,-0.12850012318491935
1783696706533308200,6.42630810546875,-5.071394332507253,-2.0743524511635303,-0.895735591476783
1783696706543271400,6.436271484375,-4.910189625072479,-1.0387263776332138,-1.403354201159626
1783696706553234400,6.446234375,-4.2198423853456974,-0.2827016738593578,-1.6048834663286804
1783696706563197400,6.456197509765625,-2.8884032274484635,0.19020868360102175,-1.6110611320503054
1783696706573160400,6.466160400390625,-1.1059195069402457,0.4872454645439982,-1.5568293372556565
1783696706583122200,6.4761220703125,1.0443974090069532,0.71555620752424,-1.6397583803549407
1783696706593085200,6.486085205078125,3.12513459277153,0.890213978511095,-1.8342578930176794
1783696706603048400,6.49604833984375,4.79347463222742,0.8787652405187487,-1.8212723008468745
1783696706613011500,6.506011474609375,5.75973490858674,0.8955760900661349,-1.3596223191998897
1783696706622974500,6.515974365234375,5.881643378421664,0.977211001701653,-0.6268570565909147
1783696706632937500,6.5259375,5.678158449140191,1.2270128610000013,-0.34056839109025894
1783696706642900200,6.535900146484375,5.3228568184942,1.6741268061637877,-0.45966984068043526
1783696706652863200,6.54586328125,4.77340799575448,1.9867232675492763,-0.6667256872512399
1783696706662826200,6.555826171875,4.210972265669703,2.0638377791509033,-0.7746613074436783
1783696706672788500,6.56578857421875,3.724395786428451,2.0687366571083663,-0.794887810653448
1783696706682751500,6.57575146484375,3.3359295528054234,2.0691405617341396,-0.8024703016716986
1783696706692714500,6.585714599609375,3.124204033923149,2.0675798882886767,-0.7174663519944995
1783696706702677200,6.59567724609375,3.136197838577628,2.1683260353684424,-0.6694784200254827
1783696706712640300,6.60564013671875,3.305342106840014,2.4222128258928657,-0.7233220922853797
1783696706722603300,6.615603271484375,3.6169139013528824,2.797490492118895,-0.7470425020255148
1783696706732566300,6.625566162109375,4.056666670098901,3.1600384406313298,-0.6459092553243041
1783696706742529300,6.635529296875,4.531755540642142,3.428547923009097,-0.47089909070320424
1783696706752492500,6.645492431640625,5.042225521168112,3.5835298104062674,-0.31134668052010234
1783696706762454300,6.655454345703125,5.612803056654334,3.666832947514951,-0.23876024080216884
1783696706772417300,6.665417236328125,6.070626319620013,3.673731474857032,-0.18527634176537394
1783696706782380300,6.67538037109375,6.3036535697281355,3.4918957750648256,0.05006269241645932
1783696706792343300,6.68534326171875,6.1514791409671306,3.0944951243579384,0.4670182306818664
1783696706802306300,6.695306396484375,5.439003656062483,2.54768220307976,0.8002521141655743
1783696706812269600,6.70526953125,4.323871499618888,1.7673510333061218,0.9850804199025034
1783696706822232300,6.715232421875,2.8368998347043988,0.736858231011033,0.9956567589744925
1783696706832195300,6.7251953125,0.9325327788025141,-0.7896312052994966,0.9938680489268154
1783696706842157300,6.7351572265625,-1.154517241370678,-2.581026546537876,1.1392241759750992
1783696706852120300,6.745120361328125,-3.0556822863608595,-4.212397330036759,1.2381227224268019
1783696706862083300,6.755083251953125,-4.448665754023194,-4.881359251907467,0.921911723805964
1783696706872046300,6.76504638671875,-5.785276177078485,-4.938963299614191,0.37255540165528656
1783696706882009300,6.77500927734375,-7.456065363252162,-5.084745396989583,0.06886617708578706
1783696706891972400,6.784972412109375,-8.91172360601425,-5.2221501266419885,0.14711714537143705
1783696706901935400,6.794935302734375,-9.548769463664293,-5.341819877639413,0.7997752904340625
1783696706911898400,6.8048984375,-9.218734960743785,-5.65721678339839,2.136351518958807
1783696706921861400,6.814861328125,-8.09779908645749,-5.909838376292586,3.347332990351319
1783696706931823400,6.8248232421875,-6.9174980000108475,-5.992382803988456,3.8824177721738815
1783696706941786400,6.834786376953125,-6.030917994087934,-6.065443948546052,3.870529181459546
1783696706951749400,6.844749267578125,-5.4818496950984,-6.1149178812891245,3.5100106929481028
1783696706961712400,6.85471240234375,-5.231828640091419,-6.032650516968965,2.9167168832629917
1783696706971675400,6.86467529296875,-5.1089668150544165,-5.517624188312888,2.2652722056433556
1783696706981638100,6.87463818359375,-4.976758485001326,-4.660182014068961,1.626754375744611
1783696706991601200,6.88460107421875,-4.7169390895575285,-3.5704841586112974,0.9863002440210431
1783696707001564200,6.894564208984375,-4.412559252375364,-2.356636191871762,0.5030956523656844
1783696707011527400,6.90452734375,-4.101794682592153,-1.2815905466228723,0.3079411098603159
1783696707021489400,6.914489501953125,-3.4193291360259055,-0.4621487249493599,0.32565380361825225
1783696707031452200,6.9244521484375,-2.240382971319556,0.12571195377111435,0.30469003564249725
1783696707041415200,6.934415283203125,-0.6379968747645616,0.6221177531093358,0.06493932249825447
1783696707051378200,6.944378173828125,1.0905097563624382,1.121616257765889,-0.35072168244458735
1783696707061341200,6.954341064453125,2.515411626332998,1.500624927213788,-0.6932371159493923
1783696707071304400,6.964304443359375,3.536271507886052,1.7115619260668753,-0.9826838801547885
1783696707081267500,6.974267333984375,4.234250849926472,1.8925404245078563,-1.2793195329509675
1783696707091230500,6.98423046875,4.559783949774504,1.9478204131811856,-1.5793823837168515
1783696707101192200,6.994192138671875,4.6092532063424585,1.980093620276451,-1.778988279607892
1783696707111155200,7.0041552734375,4.493849296095967,2.1183052823975683,-1.904627752664685
1783696707121118200,7.0141181640625,4.418830003207922,2.3073022521212696,-2.0925148614503444
1783696707131081200,7.024081298828125,4.409685158243775,2.4571365474969147,-2.158235141725838
1783696707141044500,7.03404443359375,4.4057220998317,2.5436267902091143,-2.0437569680221377
1783696707151007200,7.04400732421875,4.521367417618632,2.6371643210843203,-1.8584214434154331
1783696707160970200,7.05397021484375,4.720357373568415,2.7522654489919542,-1.6788878830857574
1783696707170933200,7.063933349609375,4.975252756613493,2.8983938755869865,-1.6590644077189265
1783696707180896300,7.073896240234375,5.23607869875133,3.07899418836534,-1.7575569306530057
1783696707190858200,7.083858154296875,5.561197372579574,3.2302076631397005,-1.8044617435604333
1783696707200821500,7.093821533203125,5.927781444740295,3.3621330845981836,-1.7063539821602403
1783696707210784300,7.1037841796875,6.1501943618535995,3.4118519320130347,-1.5941170115120709
1783696707220747300,7.113747314453125,6.259609260818362,3.432380925300717,-1.5383097840942441
1783696707230710300,7.123710205078125,6.302551745966077,3.4886791511058806,-1.4587600081697105
1783696707240673300,7.13367333984375,6.269636733835935,3.4295728821426628,-1.3651213550075887
1783696707250636300,7.14363623046875,6.0303510078549385,3.1646774986088273,-1.2855880918264389
1783696707260599300,7.153599365234375,5.593243200659751,2.844109912213683,-1.2705487819962202
1783696707270562300,7.163562255859375,5.1091667215406895,2.697051803553104,-1.338591075478494
1783696707280524300,7.173524169921875,4.421034819775819,2.588470432803035,-1.4315220187626778
1783696707290487300,7.1834873046875,3.3087527920663353,2.18423847477138,-1.4036843098968266
1783696707300450300,7.1934501953125,1.7792255954951046,1.4863514871895311,-1.2116706227004528
1783696707310413300,7.203413330078125,0.08770634050369262,0.8162626071155071,-1.0179163754470646
1783696707320376300,7.213376220703125,-1.390266609919071,0.2506955932676792,-0.9124472914986311
1783696707330339000,7.223339111328125,-2.639611421975493,-0.32367841189205643,-1.0720389377135784
1783696707340302300,7.23330224609375,-3.848596166592836,-1.0015034391760826,-1.6814292381316422
1783696707350265300,7.243265380859375,-5.157306190809607,-1.8060539811879395,-2.368408170469105
1783696707360227300,7.253227294921875,-6.642059010630845,-2.752928004553914,-2.4717832047477364
1783696707370190300,7.2631904296875,-8.20582048523724,-3.593107493829727,-1.7980130058124661
1783696707380153000,7.273153076171875,-9.009924452525377,-3.9323663366913792,-0.6346076707176864
1783696707390116000,7.2831162109375,-8.715547538441418,-3.9737650995284315,0.8389766893573105
1783696707400079400,7.293079345703125,-7.96057263598144,-4.40887442638278,2.4556121144086123
1783696707410042400,7.30304248046875,-6.858417450010776,-4.932879011264443,3.7083848550871013
1783696707420005400,7.31300537109375,-5.9507964096248145,-5.503093558657169,4.556572586512566
1783696707429968400,7.322968505859375,-5.721248818325996,-6.031088089957833,5.366142417991161
1783696707439931400,7.332931396484375,-5.986186871957779,-6.051882456183433,5.931552779972553
1783696707449893000,7.34289306640625,-6.387888434728979,-5.500328770118951,5.733369464230537
1783696707459856400,7.3528564453125,-6.606342385083437,-4.838397477537393,4.971884156963229
1783696707469819400,7.3628193359375,-6.360787077313661,-4.142552224916219,3.7584132068425413
1783696707479782400,7.372782470703125,-5.722750455060601,-3.3840579161584374,2.2805431322723626
1783696707489745400,7.382745361328125,-4.981087454116344,-2.745966348847747,0.9653756755445152
1783696707499708200,7.392708251953125,-4.069832441142201,-2.256789331719279,-0.0408509927611798
1783696707509671200,7.402671142578125,-2.7882208517313,-1.8599048138409853,-0.7377026459459215
1783696707519634200,7.41263427734375,-1.1962924363046883,-1.65875504950881,-1.4905328645274043
1783696707529596400,7.422596435546875,0.5189788656741381,-1.3642922107070683,-2.245715856780112
1783696707539559400,7.432559326171875,1.986477183833718,-0.6971691947013139,-2.7441721589073538
1783696707549522400,7.4425224609375,3.040588177603483,0.18117723588347434,-2.850715301828086
1783696707559485200,7.452485107421875,3.5993618780493732,1.0951578744292259,-2.672114053912461
1783696707569448200,7.4624482421875,3.810128781032562,1.899040307921171,-2.3783219539791345
1783696707579411200,7.4724111328125,3.801118960624933,2.6229408576816318,-2.0469627783261237
1783696707589374200,7.482374267578125,3.6511692221760748,3.294492211523652,-1.7859988890223204
1783696707599337200,7.492337158203125,3.41978681666553,3.8871003770321604,-1.639290616712719
1783696707609299200,7.50229931640625,3.149907214978337,4.380684689208865,-1.6113357112079858
1783696707619262200,7.51226220703125,3.0013422088861463,4.7524295051336285,-1.6047548715129494
1783696707629225200,7.52222509765625,3.018820582431555,5.076943783327937,-1.4572414203003048
1783696707639188200,7.532188232421875,3.250063871732354,5.437155397847294,-1.2286626740336417
1783696707649151200,7.542151123046875,3.761384916129708,5.824617422863841,-0.9946320921018719
1783696707659114200,7.5521142578125,4.443407979625463,6.123682202503085,-0.8112248321440071
1783696707669077500,7.562077392578125,5.123444253218174,6.291791282498836,-0.6248192671529949
1783696707679040300,7.572040283203125,5.768242624691128,6.365780647817254,-0.3526028200160712
1783696707689003300,7.582003173828125,6.2597407782435415,6.254612767705321,-0.16218619275279342
1783696707698965200,7.59196533203125,6.530428773704171,6.020746144163608,-0.1426645498767495
1783696707708928300,7.60192822265625,6.60447074599266,5.803087143579125,-0.11799845678433775
1783696707718891300,7.611891357421875,6.475926199144125,5.5612938186913725,-0.04546878875494003
1783696707728854300,7.621854248046875,6.24743366985619,5.318785623532533,0.04861307813003659
1783696707738817300,7.6318173828125,6.0422296616971485,4.943446582508087,0.1724243128463626
1783696707748780300,7.6417802734375,5.8672138710528605,4.2648692755520345,0.20292261922359464
1783696707758743300,7.651743408203125,5.461497227421402,3.3282571184813974,0.19551687301173806
1783696707768706300,7.661706298828125,4.6968940803945065,2.26286835937202,0.42857919443324205
1783696707778668300,7.671668212890625,3.3792093070834874,0.7667267150521277,0.9275893310509622
1783696707788631300,7.68163134765625,1.5625135203719138,-0.8882692741841077,1.4599823895715176
1783696707798594300,7.69159423828125,-0.5612152483791113,-2.323605444407463,1.940322166380286
1783696707808557300,7.701557373046875,-2.422171032577753,-3.323362332177162,1.7800884959347545
1783696707818520300,7.711520263671875,-3.5065982541561125,-3.757919285845756,0.640707229701802
1783696707828483300,7.7214833984375,-4.360281952649355,-4.301734486612677,-0.6270597395561636
1783696707838446300,7.7314462890625,-5.657340702039003,-5.330966475191712,-1.0925570442810655
1783696707848409000,7.7414091796875,-6.905633959215879,-6.387997155800462,-0.5435841684900223
1783696707858372000,7.7513720703125,-7.171143675255775,-6.806259392750262,0.24898783950172362
1783696707868334300,7.761334228515625,-6.497991900479793,-6.626342970582843,1.0836587944891303
1783696707878297300,7.77129736328125,-5.195062797752023,-6.6449646689444775,2.0948425737455487
1783696707888260400,7.78126025390625,-3.708561088436842,-6.7903387700408695,2.818072384637594
1783696707898223400,7.791223388671875,-2.6022359233051535,-6.771188663890958,3.2259576044797895
1783696707908186400,7.801186279296875,-2.108075857067108,-6.7901108065038915,3.5099212610989805
1783696707918149400,7.8111494140625,-2.07207807649076,-6.931846258836984,3.6747082109346985
1783696707928112400,7.8211123046875,-1.9721698415398596,-6.793579943919181,3.3245158861264583
1783696707938075600,7.83107568359375,-1.5798708978861569,-6.173640119370818,2.014172707749903
1783696707948037400,7.841037353515625,-1.4697674321353436,-5.233969743773341,0.22601006482243535
1783696707958000400,7.85100048828125,-1.850369508254528,-4.2087393920511005,-1.1954729366153478
1783696707967963400,7.86096337890625,-2.3787895714908838,-3.1018191836357114,-1.9998186037048695
1783696707977926400,7.870926513671875,-2.6312755553066727,-2.019780903020501,-2.219915060569346
1783696707987889400,7.880889404296875,-2.207786523619294,-1.0419804109930992,-1.9516452321663498
1783696707997852700,7.890852783203125,-1.0819576165944338,-0.15290741921067236,-1.521878727644682
1783696708007815400,7.9008154296875,0.3354606196224689,0.6512485705256462,-1.1562665692560374
1783696708017778400,7.9107783203125,1.4867103836297988,1.4295079024612902,-0.9454483744770288
1783696708027740400,7.920740478515625,2.243350588953495,2.1322265479832887,-0.9080570937156677
1783696708037703400,7.930703369140625,2.6776959456980225,2.789000019410252,-0.9431345445767044
1783696708047666400,7.94066650390625,2.877942623710632,3.219085965144634,-0.9366752854347229
1783696708057629400,7.95062939453125,3.0012393330335616,3.4360715965121984,-0.9590095745787024
1783696708067592400,7.960592529296875,3.214384071063995,3.575246842968464,-1.069549385920167
1783696708077555500,7.970555419921875,3.475935989388823,3.683783790054917,-1.2605055268876253
1783696708087518500,7.9805185546875,3.7717058191359043,3.787084590053558,-1.4500368957489729
1783696708097481500,7.9904814453125,4.080567185646295,3.882535845595598,-1.5386263026975093
1783696708107443500,8.000443359375,4.489022314330935,4.028890774422884,-1.5084759329751134
1783696708117406500,8.010406494140625,4.972227271312475,4.140071514016389,-1.4238004845999181
1783696708127369500,8.020369384765624,5.55206714066267,4.224359570509195,-1.2681960813902318
1783696708137332500,8.03033251953125,6.081539343300461,4.3365351663589475,-0.9850650762028992
1783696708147295500,8.04029541015625,6.411003937378525,4.3040743277370925,-0.7389798993401229
1783696708157258500,8.050258544921874,6.546924565953016,4.208462328675389,-0.48657545632794497
1783696708167221500,8.060221435546875,6.455092669951916,4.068206301245093,-0.33704715816155073
1783696708177184300,8.070184326171875,6.060152271878719,3.904892054310441,-0.3420883671991527
1783696708187146500,8.080146484375,5.269726701331138,3.7872020789533853,-0.42197658129781485
1783696708197109500,8.090109619140625,4.523390447878837,3.7664310936033725,-0.4448061066128313
1783696708207072500,8.100072509765624,4.021837348780036,3.694938221275806,-0.42947044418454167
1783696708217035500,8.110035400390625,3.755079093983769,3.517387943717837,-0.5015162742197513
1783696708226998500,8.11999853515625,3.530422781857848,3.1392180631816387,-0.5593773654274642
1783696708236961300,8.129961181640626,2.906130607318878,2.506243400493264,-0.40926483763232824
1783696708246924300,8.13992431640625,1.6434101808607577,1.7054197700500486,-0.071277256815508
1783696708256887600,8.149887451171875,-0.2225403428852558,0.7206622984915971,0.22444522665850816
1783696708266850600,8.1598505859375,-2.236314114445448,-0.1816372546106577,0.2562223207999021
1783696708276812500,8.1698125,-3.996392526400089,-1.2315385217308998,0.1934136901874095
1783696708286775300,8.179775390625,-5.080970554625988,-2.3526573513686655,0.08832019808571785
1783696708296738300,8.18973828125,-5.876107956126332,-3.38765272578001,-0.07742511192075907
1783696708306701300,8.199701416015625,-6.883702697914838,-4.32114412048161,-0.12309490314051508
1783696708316664600,8.20966455078125,-8.011961462435126,-5.154724357622862,0.2653650468721986
1783696708326627600,8.219627685546875,-8.500708271452783,-5.79095539175868,0.9587308307025582
1783696708336590600,8.229590576171875,-7.632437244680523,-5.77098052522242,1.5391183239981532
1783696708346553600,8.2395537109375,-6.155673670047522,-5.846679032546281,2.1760103062607348
1783696708356515300,8.249515380859375,-4.785822071647644,-6.2612815779447555,2.7455823179662224
1783696708366478300,8.259478271484374,-3.5467800424188374,-6.3127610052913425,2.5509225001752376
1783696708376441600,8.269441650390625,-2.8890315884798765,-6.295350436285138,2.121181130094826
1783696708386404600,8.279404541015625,-3.133223206681013,-6.201333012938499,2.023530903203785
1783696708396367600,8.28936767578125,-4.033417896458507,-5.580953627929091,2.1303774129852653
1783696708406330400,8.299330322265625,-4.678803127908706,-4.628063705274463,1.8350908367104828
1783696708416293400,8.30929345703125,-4.5494390813708305,-3.616142332458496,1.1256639257214962
1783696708426256400,8.31925634765625,-3.884183028280735,-2.8298808958530426,0.4756649168655276
1783696708436218600,8.329218505859375,-2.9084213486045596,-2.2640502626329657,0.10491181539185344
1783696708446181600,8.339181640625,-1.7255448587119577,-1.7762684992551803,0.07739500904344022
1783696708456144600,8.34914453125,-0.5644371330350637,-1.374447694018483,0.4104113773189485
1783696708466107400,8.359107421875,0.5575204855144024,-0.9825088158488273,0.916635171642527
1783696708476070400,8.3690703125,1.6848253103107214,-0.494640543231368,1.4105845908045769
1783696708486033400,8.379033447265625,2.863096936756372,0.10264964261353016,1.5767961666159331
1783696708495996400,8.388996337890624,3.828301566582918,0.7067237895101308,1.4781956532627343
1783696708505959400,8.39895947265625,4.28341440154612,1.2104694302171468,1.2996470123171806
1783696708515921400,8.40892138671875,4.12412517234385,1.6546639808028936,0.978413947750628
1783696708525884400,8.418884521484374,3.5722932538598773,1.9569550290122628,0.47317353844121096
1783696708535847400,8.428847412109375,2.8462223743230104,2.114422595745325,-0.058709086339175695
1783696708545810400,8.438810546875,2.122628114032745,2.187547745449841,-0.5869803887546062
1783696708555773400,8.4487734375,1.5265361980617045,2.1368121222078797,-1.0766448240738362
1783696708565736400,8.458736328125,1.3270657651185989,2.119656404745579,-1.4900862898036837
1783696708575699500,8.468699462890624,1.7441566202014684,2.1591721303150058,-1.7556041891500354
1783696708585661400,8.478661376953125,2.5627503006130454,2.209424061693251,-1.6945535081207752
1783696708595624400,8.48862451171875,3.293497355267405,2.129675109934807,-1.2548457475602626
1783696708605587500,8.49858740234375,3.8213860881060357,2.162283832594752,-0.76491352815032
1783696708615550500,8.508550537109375,4.0760318803042175,2.4230048530533908,-0.46894265940580515
1783696708625513500,8.518513427734375,4.064174853771925,2.7916899891465903,-0.30044443396199494
1783696708635476200,8.528476318359376,3.8722774864315985,3.107290600784123,-0.1933522423237562
1783696708645439500,8.538439453125,3.6128807003140446,3.3730238964468238,-0.3010754253419116
1783696708655402500,8.548402587890624,3.429314523467421,3.533505550304055,-0.6070326313760132
1783696708665364500,8.558364501953125,3.15034911352694,3.4999043094754216,-1.00891437301971
1783696708675327500,8.568327392578125,2.8343565799623724,3.4681238543331623,-1.2711270202755927
1783696708685290500,8.57829052734375,2.4291321037620306,3.479771037507057,-1.4484247843772171
1783696708695253200,8.588253173828125,1.8881202699780464,3.4977520998775957,-1.5735656602621078
1783696708705216500,8.598216552734375,1.3412217162430287,3.3672412213921543,-1.5487434998251497
1783696708715179500,8.608179443359376,0.7884691757827996,2.960970451009273,-1.2558935030475258
1783696708725142500,8.618142578125,0.1680377683252096,2.308737545621395,-0.6039177142258734
1783696708735105500,8.62810546875,-0.46265433638393877,1.5970184320420027,0.08467318335287273
1783696708745067300,8.6380673828125,-1.069424298235774,0.6961188088655471,0.835832765308395
1783696708755030300,8.6480302734375,-1.4533552265167236,-0.5229255574733018,1.2553639262154697
1783696708764993500,8.65799365234375,-1.8533879792928694,-1.678175204771757,1.0419518424857408
1783696708774956500,8.66795654296875,-2.6987930942624807,-2.639994283813238,0.3996986254509538
1783696708784919600,8.67791943359375,-4.272898852750659,-3.4518706386685367,-0.3842209242034703
1783696708794882600,8.687882568359376,-6.4974740140855305,-3.9995156268566845,-0.7450722248658538
1783696708804845600,8.697845458984375,-8.593625040081143,-4.121144110706449,-0.5023596662413329
1783696708814808300,8.707808349609374,-9.765800103217362,-4.2237428999155755,0.3366778864577412
1783696708824770600,8.7177705078125,-9.700131991520523,-4.595808618357777,1.243992345112562
1783696708834733600,8.727733642578125,-8.478791038677096,-4.730552604368329,1.7885102873213587
1783696708844696600,8.737696533203126,-6.450361549776792,-4.7128170411914585,1.6857846568621695
1783696708854659600,8.74765966796875,-4.689406939509511,-4.80468400850594,1.4979200521692633
1783696708864622300,8.757622314453124,-3.8791614007264372,-4.79617979953289,1.6753030103363096
1783696708874585300,8.76758544921875,-3.9162130742698906,-4.585260336336494,1.8584880789108573
1783696708884548400,8.77754833984375,-4.235332215422392,-4.1333997811675065,1.479158360815048
1783696708894511400,8.787511474609374,-4.200650193619728,-3.591723345994949,0.8763535762671381
1783696708904473900,8.797473876953125,-3.6012680039316414,-2.997928016528487,0.37145978843830524
1783696708914436900,8.807436767578125,-2.689862768831849,-2.2909552206933497,-0.11871500755585729
1783696708924399900,8.81739990234375,-1.840356063762307,-1.5752888307929038,-0.534856672155112
1783696708934363000,8.82736279296875,-0.9791203424543142,-0.8901385751873254,-0.7026953377116472
1783696708944325600,8.83732568359375,-0.019552841731905937,-0.2692182151690125,-0.7130615411642939
1783696708954288600,8.84728857421875,0.8938076190888881,0.28644582882374525,-0.6570077185742557
1783696708964251600,8.857251708984375,1.8875626360952853,0.7062412666901946,-0.6741922968048601
1783696708974215000,8.86721484375,2.8938614928543567,1.0683423482179641,-0.7674142589248716
1783696708984177000,8.877177001953125,3.7237685944408176,1.3955501032799482,-0.8348603400796651
1783696708994140000,8.887139892578125,4.257763827461004,1.7237576830342412,-0.8486734691157937
1783696709004102700,8.8971025390625,4.570114205130935,2.0694506505966186,-0.9420866429589688
1783696709014065700,8.907065673828125,4.784969838732481,2.4751088420391083,-1.1149763813599944
1783696709024028700,8.917028564453124,4.970318222820759,2.8402947378396988,-1.1827166962210087
1783696709033992000,8.926991943359376,5.180322909259796,3.1977050312027333,-1.2085219494111836
1783696709043955000,8.936954833984375,5.448647682720423,3.500987720797956,-1.2209180512562394
1783696709053916700,8.946916748046876,5.794226960775256,3.6944478074103593,-1.1996321021214127
1783696709063879700,8.956879638671875,6.143624335813522,3.827245335528254,-1.1894387710176408
1783696709073842700,8.9668427734375,6.422998911076784,3.8539185306593775,-1.1941343814879655
1783696709083805700,8.9768056640625,6.578722556751966,3.8262989945888517,-1.103807337091863
1783696709093769000,8.98676904296875,6.711684920042753,3.7891917914658784,-0.9518658403038978
1783696709103732000,8.99673193359375,6.82618282136023,3.7499925844997164,-0.892837166621536
1783696709113695000,9.006695068359376,6.845290257412195,3.651253977850079,-0.8888238393269479
1783696709123657700,9.01665771484375,6.740123079019784,3.4938989315807816,-0.8588347976461053
1783696709133619700,9.02661962890625,6.530061693957448,3.1546921111673116,-0.7325515467930585
1783696709143582700,9.036582763671875,6.317733533006906,2.7683050219058987,-0.5809907929509878
1783696709153546000,9.0465458984375,6.009229309371113,2.372878886142373,-0.5528319623719901
1783696709163509000,9.056509033203126,5.50857520493865,2.0387112289398908,-0.48945598020032044
1783696709173471700,9.0664716796875,4.4966608463853595,1.524914734339714,-0.265808114464581
1783696709183434800,9.076434814453124,3.101455026498437,0.7580313674211502,0.11403693274222314
1783696709193397800,9.086397705078125,1.318570323973894,-0.24750585731565952,0.721015057452023
1783696709203360800,9.09636083984375,-0.2870651297658682,-1.190884439781308,1.2947661084078252
1783696709213322800,9.10632275390625,-1.6844167295098305,-1.9663328059494494,1.535572468084842
1783696709223285800,9.11628564453125,-3.078143709015846,-2.5390835938215255,1.3095415066048501
1783696709233248800,9.126248779296875,-4.9270530815899365,-2.88178819322288,1.092690680598095
1783696709243211800,9.136211669921876,-7.314321143090725,-3.251839064711332,1.0984649531506
1783696709253174800,9.1461748046875,-9.696237322169543,-3.8974171883851287,1.3562187943667172
1783696709263137800,9.1561376953125,-11.24456683436632,-4.471122500503063,1.7005325825303792
1783696709273100800,9.166100830078125,-11.345784982872008,-5.0166333992719645,1.9695392007753252
1783696709283063800,9.176063720703125,-10.233909782397747,-5.776242391273379,2.5569746398210524
1783696709293025800,9.18602587890625,-8.297101761618256,-6.11123188625276,3.054333794361353
1783696709302988800,9.19598876953125,-6.442755750948191,-6.141062376371026,3.2400907592505215
1783696709312951800,9.205951904296874,-5.38369385677278,-6.136157653194665,3.204816616773605
1783696709322914800,9.215914794921876,-5.504942985916137,-5.968325636574626,2.855257036910951
1783696709332877800,9.2258779296875,-6.6382765694826835,-5.2973102893054484,1.9626544096976517
1783696709342840800,9.2358408203125,-7.885566202574968,-4.228170068708062,0.871987782273069
1783696709352803600,9.245803466796875,-8.861637678852677,-3.0458631953969597,-0.21054704968743024
1783696709362766800,9.255766845703125,-9.194263367310166,-1.831997400739789,-0.9332035907361655
1783696709372728800,9.265728759765626,-8.657757612773775,-0.8476520171135663,-1.1318488979667425
1783696709382691800,9.27569189453125,-7.13068248552978,-0.23657588250041006,-1.0542048095330596
1783696709392654800,9.28565478515625,-4.752636425882578,0.02277735673636198,-0.795589967573434
1783696709402617600,9.29561767578125,-2.0274428159505127,0.20304536882042884,-0.6100824839333072
1783696709412580600,9.30558056640625,0.607290770855546,0.37989480463266373,-0.6100035004129633
1783696709424411600,9.31741162109375,3.141739106091857,0.6197223824054002,-0.5997775091486052
1783696709434375000,9.327375,4.541069312432408,0.7370359256654977,-0.5794834571279585
1783696709444337000,9.3373369140625,5.1153568083524705,0.7234086745902896,-0.6467370844505727
1783696709454299600,9.347299560546874,5.000164495030045,0.8253878705963492,-0.8792946712203323
1783696709464262700,9.3572626953125,4.591885307434201,1.1618269798621534,-1.0659422282736748
1783696709474225700,9.3672255859375,4.347815269786119,1.550094183781743,-1.1790059320695698
1783696709484188700,9.377188720703124,4.386715201544761,1.9207260700285433,-1.2407206299655138
1783696709494152000,9.38715185546875,4.605236371916532,2.2551900798290965,-1.140296116055548
1783696709504115000,9.397114990234375,4.938599726998806,2.563666830936074,-0.9906306013755499
1783696709514078000,9.407077880859376,5.253147322452068,2.7341055229231714,-0.9057859339132904
1783696709524039700,9.417039794921875,5.508321522438526,2.7734701495841145,-0.968436524419859
1783696709534002700,9.427002685546874,5.592554049351811,2.821396268363297,-0.9734484342977404
1783696709543965700,9.436965576171875,5.567744017744064,2.97765942774266,-0.8930096005789935
1783696709553929000,9.446928955078125,5.5922851692825555,3.1657775688052174,-0.8803684379316866
1783696709563892000,9.45689208984375,5.622793120270967,3.355045464424789,-0.9646233228072524
1783696709573854700,9.466854736328125,5.642737591668963,3.4546190605938434,-1.1342496754981577
1783696709583817700,9.476817626953125,5.797952118778229,3.480770569938421,-1.2700320646457373
1783696709593779700,9.48677978515625,6.017652269801497,3.478610761556029,-1.3973672357045113
1783696709603742700,9.49674267578125,6.126746266248822,3.471422895878553,-1.4562205528199672
1783696709613706000,9.5067060546875,6.116209090143442,3.508447096893191,-1.2687656979717314
1783696709623669000,9.5166689453125,6.141936236596107,3.3785037891626355,-1.1178457993164659
1783696709633631700,9.5266318359375,6.146957279628515,3.018217355841398,-1.039962641429901
1783696709643594800,9.5365947265625,5.609384188121557,2.6277409514397383,-0.6657045275099576
1783696709653557800,9.546557861328125,4.459706787997484,2.211869409018755,-0.189504188593477
1783696709663520800,9.556520751953125,2.943583262878656,1.8920470880329607,0.013978840991854667
1783696709673483000,9.56648291015625,1.3833341803073882,1.6688047343581913,0.19186667994111775
1783696709683445800,9.57644580078125,-0.34491876831948753,1.2985188850700855,0.35417350339889525
1783696709693408800,9.58640869140625,-1.6467396175444124,0.43496494994759555,0.5648555045776069
1783696709703371800,9.596371826171875,-2.4984470475286242,-0.7865045977115631,0.8004356540389359
1783696709713334800,9.606334716796875,-2.9944354982376096,-1.8733540780007838,0.7266103932410478
1783696709723297800,9.6162978515625,-3.6013106740295884,-2.755801514163613,0.6256738381557166
1783696709733260800,9.6262607421875,-4.790233458349109,-3.7325545429646967,1.0671640982188284
1783696709743845600,9.636845703125,-6.0523787152677775,-4.5383144607663155,1.8462451218008995
1783696709753808600,9.64680859375,-6.4333087081670755,-4.732007479351759,2.4218621127590536
1783696709763771600,9.656771728515626,-6.254951790401339,-4.822369302800298,3.127035457956791
1783696709773735000,9.66673486328125,-5.824579428941011,-5.013820095416903,3.6895056748330592
1783696709783698000,9.676697998046874,-5.218126277953386,-5.179656554305553,3.7642987577497955
1783696709793661000,9.686660888671875,-4.462076439738273,-5.252917605349421,3.532261687722802
1783696709803622700,9.69662255859375,-3.987714714425802,-5.420538025045395,3.431680083554983
1783696709813585700,9.706585693359376,-3.857343536671996,-5.441626405781507,3.497755022487044
1783696709823548700,9.716548583984375,-3.7777719873070716,-5.249594598406553,3.37962402536422
1783696709833512000,9.726511962890624,-3.4157068538755175,-4.987049577391147,2.841284333398938
1783696709843475000,9.736474853515626,-3.3545015668064355,-4.4356700788497925,2.041298907345533
1783696709853438000,9.74643798828125,-3.295711524185538,-4.139042170968652,1.3736457299858331
1783696709863400700,9.756400634765624,-3.3165579128593206,-3.431456796193123,1.0766944353692234
1783696709873363700,9.76636376953125,-4.592520098206401,-2.11794813952297,0.5736268400542438
1783696709883325700,9.77632568359375,-5.2129930067181585,-0.9650105685591697,-0.12546543166413904
1783696709893289000,9.7862890625,-4.244776920115948,-0.16748627192229032,-0.623064970831573
1783696709903252500,9.79625244140625,-2.711659590098262,0.35034167015105483,-0.6195283211380243
1783696709913215500,9.806215576171875,-1.0199988808095455,0.8395046587541699,-0.5957398876629769
1783696709923178200,9.81617822265625,0.47258419424593445,1.183378009673953,-0.6648660308592022
1783696709933141200,9.826141357421875,1.6967326057255268,1.8828303468763827,-0.7257735770907252
