time,seconds_elapsed,z,y,x
1783696623939774500,0.0637744140625,-6.706213210633397,-8.271360586640238,1.4637521173685788
1783696623949738500,0.073738525390625,-6.218380593851208,-7.775196194842457,1.626844538246095
1783696623959701500,0.083701416015625,-5.131959568107128,-6.845465029457211,1.492347804994881
1783696623969664500,0.09366455078125,-4.3633179593443865,-5.538319770339131,1.2396034625038503
1783696623979627300,0.103627197265625,-4.284167850261927,-4.190846592485904,1.1816750782135874
1783696623989590500,0.113590576171875,-4.495371391096711,-3.080924864166975,1.1027131121143698
1783696623999553500,0.123553466796875,-4.358261844998598,-2.270357838344574,0.8919285273440182
1783696624009516500,0.1335166015625,-3.628621290281415,-1.695325661537051,0.42670627670083194
1783696624019479600,0.1434794921875,-2.5174457625091073,-1.1861053888112305,-0.3409421928387135
1783696624029443600,0.153443603515625,-1.2549258270591497,-0.5951163489371538,-1.2528067890785635
1783696624039406600,0.163406494140625,-0.11026245570480823,0.08076572758555411,-1.940858611344546
1783696624049369600,0.17336962890625,0.7328595167636871,0.8916022179991007,-2.1553636779427525
1783696624059332400,0.183332275390625,1.2863935629904268,1.7318828295618294,-2.0323587911732495
1783696624069295400,0.19329541015625,1.7177467521816492,2.565344408759475,-1.7421164926759898
1783696624079258400,0.20325830078125,2.2014479682475327,3.3280402608603237,-1.4845251485452056
1783696624089221400,0.213221435546875,2.756663683950901,3.887092193725705,-1.1816590769268571
1783696624099185400,0.223185302734375,3.177314277341962,4.276976477453112,-0.820473064417392
1783696624109148400,0.2331484375,3.4622114154189823,4.5588586516231295,-0.630429289054498
1783696624119111400,0.243111328125,3.6415345478683707,4.705163311567902,-0.6335247708518058
1783696624129074700,0.25307470703125,3.6912989879906175,4.802813538458943,-0.7025945807509124
1783696624139037400,0.263037353515625,3.72740081346333,4.831686581721901,-0.7879497550185769
1783696624149000400,0.27300048828125,3.953460562646389,4.796524667447805,-0.8539518479101359
1783696624158963500,0.28296337890625,4.470121799027919,4.688374673852325,-0.9319664501566439
1783696624168926500,0.292926513671875,5.160180284941196,4.561760218283534,-1.0495478505726903
1783696624178890500,0.302890380859375,5.744513958579302,4.47263816576302,-1.1693369901660828
1783696624188853500,0.312853515625,6.089278413119912,4.4158390046983955,-1.3018150040060281
1783696624198816500,0.32281640625,6.238192963302135,4.382687845724821,-1.5858626856468616
1783696624208779500,0.332779541015625,6.26489100061357,4.388386349627376,-1.972886319246143
1783696624218742300,0.3427421875,6.1213143043279645,4.435669494327903,-2.2149916326925156
1783696624228705300,0.352705322265625,6.009164427441358,4.386763716861606,-2.094017959489673
1783696624238668500,0.36266845703125,5.875804004743695,4.310937199243903,-1.8758046860232949
1783696624248632300,0.37263232421875,5.535652596956491,4.22966586022377,-1.7215075660198926
1783696624258595600,0.382595703125,4.909465986973047,4.038015161120891,-1.5298820013582706
1783696624268558600,0.39255859375,3.9941444552123544,3.5206080748081203,-0.9655585578307508
1783696624278521600,0.402521484375,3.1120436405301093,2.6081577145695687,-0.04038286379277706
1783696624288484600,0.412484619140625,2.605285374003649,1.5120663586825132,0.889456730403006
1783696624298447400,0.422447265625,2.3316554798722264,0.29005495923161506,1.6641555933780967
1783696624308410400,0.432410400390625,2.023317260453105,-1.0052303507447242,2.346863862659037
1783696624318373400,0.442373291015625,1.1943009702265261,-2.238333637574315,2.7089193514794108
1783696624328337400,0.45233740234375,-0.25921441528797146,-3.345523895102739,2.7726772456407547
1783696624338300400,0.462300537109375,-2.143278103351593,-4.332123779657483,3.0095535723924636
1783696624348263400,0.472263427734375,-4.621551546901464,-5.031194424065947,3.374691245137155
1783696624358226400,0.482226318359375,-7.230824529236554,-5.620788794711232,3.5581285349071026
1783696624368189700,0.492189697265625,-9.262807326704262,-6.149076756000518,3.533751634019613
1783696624378152400,0.50215234375,-10.27248822711706,-6.492263585960865,3.248303291800618
1783696624388115500,0.512115478515625,-10.214090983206033,-6.6441521835178134,3.0495614653930065
1783696624398079500,0.52207958984375,-9.272911956611274,-6.675906335175037,3.0606711806893347
1783696624408042500,0.53204248046875,-7.679266800394654,-6.574100157648324,3.1851147219598293
1783696624418005500,0.542005615234375,-6.068795597061515,-6.498440228769183,3.2769337584793568
1783696624427968500,0.551968505859375,-4.6912107740610836,-6.530301347932219,3.649649173001945
1783696624437931500,0.561931640625,-3.4576556518107653,-6.299307064956427,3.7548598982751367
1783696624447894500,0.57189453125,-2.4370482837140557,-5.9647606375694275,3.670377780514955
1783696624457857300,0.581857177734375,-1.6318670425832271,-5.251120785060524,3.221242266395688
1783696624467820300,0.5918203125,-1.1189876628279685,-4.123263587078452,2.4681018858864903
1783696624477784300,0.601784423828125,-0.6073930621862411,-3.0268279477983713,1.4463706283263862
1783696624487747300,0.611747314453125,-0.045017537856101984,-2.181439783963561,0.833488905595988
1783696624497710600,0.621710693359375,0.6292606106013059,-1.3885107061624526,0.5750850029733031
1783696624507673600,0.631673583984375,1.377368549901247,-0.5358136806190014,0.09139452749714255
1783696624517636600,0.64163671875,1.9302993695378303,0.2156032370984554,-0.6130216426577418
1783696624527599600,0.651599609375,2.0863304737269877,0.9175117352813482,-1.3899021605208515
1783696624537562400,0.661562255859375,1.8497475769639014,1.6085802750200031,-2.0458570090413093
1783696624547526700,0.671526611328125,1.5043471626073122,2.1851988442361354,-2.5209087624445554
1783696624557489400,0.681489501953125,1.0001093544691801,2.6509125681906935,-2.7832512466251846
1783696624567452400,0.691452392578125,0.6750754363149404,3.161383133238554,-2.716888722923398
1783696624577415400,0.70141552734375,0.854450591212511,3.5492326962679623,-2.412637918948382
1783696624587378400,0.71137841796875,1.3560089510083198,3.831066939643025,-2.035065273652971
1783696624597341400,0.721341552734375,2.0300679037570952,4.025398256132006,-1.7188351319402455
1783696624607304400,0.731304443359375,2.9453438428103924,4.0160727939039464,-1.3433651580125092
1783696624617267500,0.741267333984375,3.909306363621354,3.958863298472762,-1.0820473407045006
1783696624627231500,0.7512314453125,4.6700867374897,3.8591923794090746,-0.8835884959567337
1783696624637194500,0.761194580078125,5.167663334172964,3.656407707351446,-0.6874153509933502
1783696624647157500,0.771157470703125,5.264751835528016,3.4981758782476184,-0.5014762344703078
1783696624657120500,0.78112060546875,5.152980144304037,3.4763474927991624,-0.46572804474085566
1783696624667083500,0.79108349609375,5.033060217937827,3.5459225488066672,-0.5626960615213961
1783696624677046500,0.801046630859375,4.954299984955787,3.5333670186161994,-0.623711671237275
1783696624687009500,0.811009521484375,5.0356379594713445,3.4312235719591375,-0.692277696332708
1783696624696972300,0.82097216796875,5.229627915176749,3.425339190095663,-0.7784425795480608
1783696624706936600,0.8309365234375,5.280134698098897,3.5789416058331724,-0.8724469242174178
1783696624716899300,0.8408994140625,5.070931975692511,3.7357875335365534,-1.0090738744303585
1783696624726862300,0.8508623046875,4.80173860270381,3.7430046253085134,-1.1477994774229825
1783696624736825300,0.860825439453125,4.394658269503712,3.575188975301385,-1.1616117296762765
1783696624746788600,0.87078857421875,3.629870413559675,3.3677135150790214,-1.0390347129300237
1783696624756751600,0.880751708984375,2.851395977568626,3.0808675810217854,-0.7976556679315865
1783696624766714600,0.890714599609375,2.3098335241645573,2.6694173621743915,-0.36689781428501006
1783696624776678700,0.9006787109375,1.6969301741242409,1.9020739765286445,0.40997283977121113
1783696624786641700,0.9106416015625,0.6250830326557159,0.8506950380712747,1.3645622598201035
1783696624796604400,0.9206044921875,-0.6765045923352241,-0.22880758658647535,1.9739266220793126
1783696624806567400,0.9305673828125,-1.8461714720427989,-1.1729589069902897,1.866207128855586
1783696624816530400,0.940530517578125,-3.1452491600394246,-1.9822592738777398,0.9879862243466079
1783696624826493400,0.950493408203125,-4.972619485500455,-3.021915625837445,0.3405722635477781
1783696624836456400,0.96045654296875,-6.787534234014153,-4.180146919295192,0.3694800127979368
1783696624846419500,0.97041943359375,-7.969165692281723,-4.900416419076919,0.742290412127599
1783696624856383500,0.980383544921875,-8.578708625978232,-5.167888375100493,1.6002654511392116
1783696624866346500,0.990346435546875,-8.265344687351584,-5.606574391397833,2.767376216623187
1783696624876309500,1.0003095703125,-7.0848846109509465,-6.1337926776289935,3.437563880896568
1783696624886272500,1.0102724609375,-5.802423711234331,-6.32233255123496,3.2161309147313237
1783696624896235500,1.020235595703125,-5.186313674107193,-6.332966173452139,2.9313445435523984
1783696624906198500,1.030198486328125,-5.4189235755860805,-6.226429460272192,2.9866520047545433
1783696624916161500,1.04016162109375,-5.843766359969973,-5.749972808507085,2.939667550739646
1783696624926124500,1.05012451171875,-5.701282135096192,-4.886151162359118,2.387045650921762
1783696624936088600,1.060088623046875,-4.798913023889065,-3.959433207315206,1.7855559675604105
1783696624946051600,1.070051513671875,-3.228124427124858,-3.1630946133315563,1.5037453973218797
1783696624956014300,1.080014404296875,-1.455495161154866,-2.406482465058565,1.1328256340444087
1783696624965977300,1.089977294921875,0.17898177166581153,-1.6720850712031126,0.599231967562437
1783696624975940400,1.0999404296875,1.6275333972930908,-0.9354770155608654,-0.01003850586824119
1783696624985903600,1.109903564453125,2.7499019347310063,-0.12606237464398146,-0.7112412669345736
1783696624995866600,1.11986669921875,3.384346085450053,0.8146063643410801,-1.2593027269691228
1783696625005829600,1.12982958984375,3.336680078911781,1.7478990216001866,-1.4400167292550206
1783696625015793700,1.139793701171875,2.7091870625048875,2.4753321294009685,-1.4565022923707962
1783696625025756700,1.149756591796875,1.9748755933672189,3.0109485338822006,-1.3596094597183168
1783696625035719400,1.159719482421875,1.4997007981061934,3.2719650301560756,-1.2896328371725976
1783696625045682400,1.169682373046875,1.479936359450221,3.320462519082427,-1.2873052710078656
1783696625055645400,1.1796455078125,2.0857623184502123,3.182295280624926,-1.354489340225607
1783696625065608400,1.1896083984375,2.9324557196646928,2.9910137070953846,-1.3324524265930056
1783696625075571500,1.199571533203125,3.5428520553201435,2.823120900198817,-1.0545618793424218
1783696625085534500,1.209534423828125,3.915650179690122,2.521743459703028,-0.48274194257967173
1783696625095498500,1.21949853515625,4.270694620704651,2.321376370181143,-0.03598315839595161
1783696625105461500,1.22946142578125,4.564118179586529,2.115417159740627,0.28323252933304754
1783696625115424500,1.239424560546875,4.681936749759316,1.8615581340059637,0.4604067401202395
1783696625125387500,1.249387451171875,4.802298574674129,1.8017054305896163,0.3752348499976098
1783696625135350500,1.2593505859375,5.090636208593845,1.8429434499070048,0.21589706894587724
1783696625145313500,1.2693134765625,5.4656023246526715,1.863088704574108,0.08471848379932344
1783696625155276500,1.279276611328125,5.823147350311279,1.854558484376967,0.036179420753568406
1783696625165239600,1.289239501953125,6.024273149245977,1.8513322158068417,-0.019579693206213413
1783696625175203600,1.29920361328125,6.04564034692347,1.8438351380497215,-0.15434905112003908
1783696625185166600,1.30916650390625,5.763415058404207,1.9267700263679026,-0.412833380301483
1783696625195129300,1.31912939453125,5.232496164089441,2.1899708809435365,-0.665791694336757
1783696625205092400,1.32909228515625,4.456732740622758,2.429325288246572,-0.7188420973271131
1783696625215055400,1.339055419921875,3.4890672736406323,2.3979209729403257,-0.5157181468451395
1783696625225018600,1.3490185546875,2.4115391639262436,2.0941826485320925,-0.14204367803204804
1783696625234981600,1.358981689453125,1.3674924680531024,1.646523928967118,0.2826109633686021
1783696625244944600,1.368944580078125,0.4364174868434667,0.9268664236038923,0.8108871976874769
1783696625254908700,1.37890869140625,-0.6009954701036214,-0.027192542830109596,1.2023013943959027
1783696625264871700,1.38887158203125,-1.9661048424124716,-1.0171382306814194,1.0586918918192385
1783696625274834400,1.39883447265625,-3.7323867851823564,-1.9083476499706507,0.20303517621997744
1783696625284797400,1.40879736328125,-6.179165020272135,-2.6600965761214495,-0.767628193936497
1783696625294760400,1.418760498046875,-8.557907245489954,-3.2323435061246153,-1.261453621392697
1783696625304723500,1.428723388671875,-9.982125809371471,-3.59916372512877,-1.3296614807002245
1783696625314686500,1.4386865234375,-10.564054759955406,-4.542069429385662,-0.671185735400021
1783696625324649500,1.4486494140625,-10.728517007881402,-5.918739475628733,0.7852397654075175
1783696625334613500,1.458613525390625,-10.716582239937782,-5.945179738786816,0.72134465473257
1783696625344576500,1.468576416015625,-9.97436686580777,-6.552801349031925,2.732225992786884
1783696625354539500,1.47853955078125,-9.142326843845844,-6.543204668647051,2.831709864845872
1783696625364502500,1.48850244140625,-8.256498533073067,-6.5620747888118025,2.5534508496090766
1783696625374465500,1.498465576171875,-7.539552624756097,-6.4846747382670635,1.9864768915727733
1783696625384428500,1.508428466796875,-7.033988536450266,-6.137609605568647,1.2896176396034658
1783696625394391600,1.5183916015625,-6.339108329468965,-5.443778615379333,0.458772818775475
1783696625404354600,1.5283544921875,-5.342560466873645,-4.566194693599641,-0.37995457199588417
1783696625414317300,1.5383173828125,-4.108317362359166,-3.647966919003427,-1.1005705471277236
1783696625424281600,1.548281494140625,-2.4436311692357062,-2.6905188946530223,-1.708362253242731
1783696625434244400,1.558244384765625,-0.6343021118998527,-1.7942109831809996,-1.861093146842718
1783696625444207400,1.568207275390625,0.772476072359085,-0.6740475545719266,-1.5259785641789436
1783696625454170400,1.57817041015625,1.7160989849746227,0.7703814381673931,-1.039460098735243
1783696625464133400,1.58813330078125,2.46290811663568,2.0283023553892967,-0.7137297227494418
1783696625474096600,1.5980966796875,3.0751474498093128,2.9317598463550207,-0.5130215647049248
1783696625484059600,1.6080595703125,3.188104551425576,3.6526334495097394,-0.26579598563537
1783696625494022400,1.6180224609375,3.1235248194873333,4.15332174847275,-0.023226707939058542
1783696625503986700,1.627986572265625,3.3649487265408036,4.2528164341866965,-0.0924533889003098
1783696625513949400,1.637949462890625,3.7257179749429223,3.8991663701400157,-0.5369304096892475
1783696625523912400,1.647912353515625,4.288401542308926,3.5158842611566183,-0.9437062069848179
1783696625533875500,1.65787548828125,5.167667425826192,3.0034891577869653,-1.367787943868339
1783696625543838500,1.66783837890625,6.245042975327372,2.3858009115576744,-1.7175770947031677
1783696625553801500,1.677801513671875,7.209637364301085,1.711029426625371,-1.8802119810715316
1783696625563764500,1.687764404296875,7.957416217777133,1.1585545340627432,-1.8632805738843976
1783696625573727500,1.6977275390625,8.338030568856,0.8999433453649281,-1.66655081795156
1783696625583691500,1.70769140625,8.199100821593403,0.9042010028094053,-1.089974918833375
1783696625593654300,1.717654296875,8.207619059091806,1.1804530621379614,-1.0750495907716453
1783696625603617500,1.727617431640625,8.474709322321415,1.6403391028523444,-1.492180047212541
1783696625613580500,1.73758056640625,8.367290565609931,1.6834788641378282,-1.4877455718964336
1783696625623543600,1.74754345703125,8.077884425675869,1.51898212942034,-1.3769871493682264
1783696625633506600,1.757506591796875,7.633193031483888,1.6964792154863475,-1.2815849936649202
1783696625643469600,1.767469482421875,6.620517625430226,1.9585934438690542,-1.3361135794490575
1783696625653432300,1.777432373046875,5.046750305116176,2.211190194582939,-1.6007655096158384
1783696625663395300,1.787395263671875,3.892265212449431,2.7214900792390107,-2.05068150658831
1783696625673359400,1.797359375,2.729384047359228,3.116668085460365,-2.052873609805107
1783696625683322400,1.807322265625,1.2811375421583653,3.4782311145886777,-1.6006389606267213
1783696625693285400,1.817285400390625,-0.12489245408177375,3.7577228864908214,-0.9521062979962677
1783696625703248400,1.827248291015625,-1.1420166562378407,3.735371938472986,-0.11875175936967133
1783696625713211600,1.837211669921875,-1.8233160816341638,2.9735400097250935,0.7658744090717285
1783696625723174700,1.847174560546875,-2.3080273515254257,1.6531009692698717,1.641345065024495
1783696625733137400,1.857137451171875,-2.886691747355461,0.2749947527438402,2.189687095566094
1783696625743100400,1.867100341796875,-3.7721956484794616,-1.1490560533553362,2.2859803548902273
1783696625753064400,1.877064453125,-5.2311353971302506,-2.547199095737934,2.114180603682995
1783696625763027500,1.88702734375,-7.525992885959148,-3.995142818599939,1.9462525793425738
1783696625772990500,1.896990478515625,-10.171153174233435,-5.224358450341224,2.0103747767716644
1783696625782953500,1.906953369140625,-12.066564770263433,-5.807414359128475,2.325796816971898
1783696625792916500,1.91691650390625,-12.980174821931122,-6.243489900666475,3.224496592016518
1783696625802879500,1.92687939453125,-13.025399280536174,-6.198754686883092,3.1426030294448135
1783696625812842500,1.936842529296875,-13.05961017769575,-6.169706871575117,3.0590996935889123
1783696625822805800,1.9468056640625,-10.527068552863597,-7.800186843714117,3.2578599324360487
1783696625832769500,1.95676953125,-8.938576541626453,-7.7780697044521565,2.0587689514540135
1783696625842732500,1.966732666015625,-7.67638393843472,-7.640936777478456,1.457772458437085
1783696625852695600,1.976695556640625,-6.466903519254923,-7.263363693791628,1.4477186819344758
1783696625862658600,1.986658447265625,-5.089353767567872,-6.612966771659255,1.3768405805043875
1783696625872621600,1.99662158203125,-3.389228596794605,-5.73573210170865,0.8588269066005945
1783696625882584600,2.00658447265625,-1.2508031941711901,-4.8552305389165875,0.04050429821535945
1783696625892547600,2.016547607421875,1.055470007163286,-4.160634994095564,-0.6593102964282035
1783696625902510600,2.026510498046875,2.7365841879963875,-3.6027135265648362,-0.6600958938479423
1783696625912474600,2.036474609375,3.3130659790903327,-2.465588734021783,-0.5802547337613999
1783696625922437400,2.046437255859375,3.4409032544523477,-0.7960714674800634,-0.9171556153200566
1783696625932400400,2.056400390625,3.5499838068962095,0.7634557305574416,-1.3985529383577406
1783696625942363400,2.06636328125,3.4870559338182208,2.0655741014242173,-1.8393753821618855
1783696625952326700,2.07632666015625,3.2709634518980977,3.1017502100527286,-2.158965063435584
1783696625962289700,2.08628955078125,2.93811213799119,3.8824060817360877,-2.4300702613949774
1783696625972252700,2.096252685546875,2.8140169717669483,4.531676922447979,-2.5695149724423882
1783696625982215700,2.106215576171875,3.0587019264429807,4.8403240616858,-2.5356685246810318
1783696625992178400,2.116178466796875,3.6268203783392905,4.670194874039292,-2.3613347249515355
1783696626002142500,2.126142578125,4.391870684611797,4.31218193860799,-2.155117448096722
1783696626012105500,2.13610546875,5.067196296295523,4.112003649656474,-1.8701741327904164
1783696626022068500,2.146068359375,5.538832980558276,4.012304965803027,-1.5980867919258772
1783696626032031500,2.156031494140625,5.720241687110066,3.860062440241873,-1.5030433865323662
1783696626041994500,2.165994384765625,5.741207902771234,3.6030730075269934,-1.6202303808033465
1783696626051957500,2.17595751953125,5.600234666982293,3.379101755055785,-1.9290319799505173
1783696626061920800,2.185920654296875,5.6678667722284795,3.216829418389499,-2.339774342789501
1783696626071883500,2.195883544921875,6.0202311803787945,3.07643982770741,-3.1870868988156316
1783696626081847600,2.20584765625,6.0904223224580285,2.9776041904240844,-3.4527930142104624
1783696626091810600,2.215810546875,6.181766142681241,2.7249253143846985,-2.635111187946796
1783696626101773600,2.225773681640625,6.485791759598254,2.401082067319751,-2.4114083771534265
1783696626111736600,2.235736572265625,6.730300773185491,2.717781287848949,-2.2966604465976355
1783696626121699600,2.245699462890625,6.708088356855511,3.2628625630289316,-2.2298829123541712
1783696626131662600,2.25566259765625,6.514775862020254,3.774559455001354,-2.114323811545968
1783696626141625600,2.26562548828125,6.175977037885785,4.253954498305917,-1.876711425604671
1783696626151588400,2.27558837890625,5.7583881701529025,4.663457090216875,-1.6749337386325
1783696626161551400,2.28555126953125,5.284150363481045,5.018878547850251,-1.4047861336588858
1783696626171515400,2.295515380859375,4.801560323527455,5.2028883768111465,-1.2441535270236432
1783696626181478400,2.305478515625,4.1287236060500145,4.990339266586304,-0.949886649185419
1783696626191441400,2.31544140625,3.3733903916716574,4.031822736221551,-0.661771133583784
1783696626201404700,2.32540478515625,3.0851866132646797,2.99823956669569,-0.491364736431092
1783696626211367700,2.33536767578125,2.432196752029657,1.3261726156711577,0.3643894847258925
1783696626221330700,2.34533056640625,1.0912509301185607,-0.9317553646892308,1.9224683836512266
1783696626231293400,2.35529345703125,-0.7421370481967926,-3.0057267075806853,3.2493957632124424
1783696626241256400,2.36525634765625,-2.897553333109617,-4.491299027091264,3.5594320187211035
1783696626251220500,2.375220458984375,-5.7340568619728085,-5.539964614936709,3.4655414366245267
1783696626261183500,2.38518359375,-9.124353964781761,-6.600636866918205,3.376512907606363
1783696626271146500,2.395146484375,-11.537276692020892,-6.986688440614938,2.9779303536385298
1783696626281109500,2.405109619140625,-12.856577668356895,-7.281518943685293,2.9625106661885976
1783696626291072500,2.415072509765625,-12.85947689692974,-7.280408936616778,2.954025161916017
1783696626301035500,2.425035400390625,-12.849634717351197,-7.294589437660575,2.9419641372442245
1783696626310998500,2.43499853515625,-12.820447201311588,-7.329651398691534,2.9344436786115167
1783696626320961500,2.44496142578125,-10.610713635277747,-9.631221536901593,3.4120237814486023
1783696626330925600,2.454925537109375,-9.390176984554529,-9.512461301964521,2.992863134354353
1783696626340888600,2.464888671875,-7.85975079331696,-8.98964329651892,2.674450095644593
1783696626350851600,2.4748515625,-6.3697583192765705,-8.130259925079345,2.2566576681636272
1783696626360814600,2.484814697265625,-5.122193960896134,-6.7571940408080815,1.4660790990114212
1783696626370777600,2.494777587890625,-3.833064835461974,-4.988076582351327,0.43400604178756474
1783696626380740600,2.50474072265625,-2.613416073489189,-3.6413895864397285,0.005512041419744491
1783696626390703400,2.514703369140625,-1.628911115387082,-2.775276029962301,0.00029576807618141173
1783696626400666400,2.524666259765625,-0.8369318856567144,-1.6107272239208221,0.055846682645380494
1783696626410630400,2.53463037109375,-0.5055132349014282,-0.32410160574018954,-0.1779500905305147
1783696626420593400,2.544593505859375,-0.3288824102759361,0.9709189158201217,-0.5074031403012573
1783696626430556400,2.554556396484375,-0.03734510353207588,2.2067975125819443,-0.9015221389889717
1783696626440519700,2.564519775390625,0.4163403289765119,3.2171330775111913,-1.3277785895630716
1783696626450482700,2.574482666015625,0.9432967494010924,3.769833595523238,-1.6133134410217402
1783696626460445700,2.58444580078125,1.6291595371901988,3.837041337877512,-1.7125538597136736
1783696626470408400,2.594408447265625,2.712002704447508,3.7251340375751254,-1.7210570457734167
1783696626480371500,2.604371337890625,4.109406911161542,3.5802567800849676,-1.5854006210930645
1783696626490334500,2.61433447265625,5.548584559243917,3.535490002119541,-1.2466907904163003
1783696626500298500,2.624298583984375,7.00421591399908,3.6937381978362795,-1.0540322294451296
1783696626510261500,2.634261474609375,8.337413313740491,3.7781244540065524,-0.9304789150126278
1783696626520224500,2.644224609375,9.319562648627162,3.6081086636066435,-0.6868352860830724
1783696626530187500,2.6541875,9.938058704107998,3.3470740471541878,-0.6297445947259664
1783696626540150500,2.664150634765625,10.110685553789137,3.1054975798875093,-0.9072390553310513
1783696626550113500,2.674113525390625,10.00484266809225,2.8006653227627276,-1.230361294645071
1783696626560076500,2.68407666015625,9.857178410232066,2.6886627453923224,-1.5190950882755219
1783696626570039600,2.69403955078125,9.685714759111404,2.7181220641106365,-1.7268918894067407
1783696626580003600,2.704003662109375,9.455790735715627,2.802921577256918,-1.713129759905487
1783696626589966600,2.713966552734375,9.060953798016905,3.059516749957204,-1.5885647842124104
1783696626599929600,2.7239296875,8.22915284550786,3.386304818302393,-1.4929657907627523
1783696626609892600,2.733892578125,6.994102516263723,3.6737493027746675,-1.5438972288377582
1783696626619855600,2.743855712890625,5.376708235669136,3.812958451500535,-1.6895400638729332
1783696626629818400,2.753818359375,3.5306302871286865,3.9341730938524004,-1.8699337481632827
1783696626639781400,2.763781494140625,1.7111685428351162,3.8585961670815943,-1.8668951111197472
1783696626649744400,2.773744384765625,0.4107891245901584,4.276672526070476,-2.3583847891047593
1783696626659707600,2.783707763671875,-0.6215016670376062,4.801054712092876,-3.3198993322417136
1783696626669671400,2.79367138671875,-1.4006301830232142,4.4021752210050815,-3.1701547609761356
1783696626679634700,2.803634765625,-1.763143060222268,3.6800370047420263,-1.9614413806460798
1783696626689597700,2.81359765625,-1.5474597436249256,2.937429416424036,-0.0039931612893939015
1783696626699560700,2.823560791015625,-1.0944120244979858,2.0792624350368976,1.9926992732189595
1783696626709523500,2.8335234375,-1.2457231144279242,0.83617551433146,3.3326065458625553
1783696626719486500,2.843486572265625,-2.864716062390804,-0.8603121767222881,3.9347178682535886
1783696626729449500,2.853449462890625,-5.372464606750011,-2.40391758300662,3.379544238126278
1783696626739412500,2.86341259765625,-7.840425915122032,-4.2054309981554745,2.5483652169078588
1783696626749376500,2.87337646484375,-9.450052484324575,-6.28201164676249,2.222916726603359
1783696626759339500,2.883339599609375,-9.80250924693346,-8.186244262629748,2.173451415558159
1783696626769302500,2.893302490234375,-9.630750412258505,-9.827063842475413,2.9637545287698503
1783696626779265500,2.903265625,-9.572737199229001,-11.017183143103122,3.8680163218557833
1783696626789228500,2.913228515625,-9.565456979092955,-10.948633923012018,3.590686988684535
1783696626799191600,2.923191650390625,-9.866876797425746,-9.93887586570978,2.8779212886616587
1783696626809154600,2.933154541015625,-10.347988581520319,-8.88770384800136,2.6018033771067857
1783696626819118300,2.943118408203125,-10.612233392190932,-7.925115538153052,2.7747087514683604
1783696626829082400,2.953082275390625,-10.409079302299022,-6.994716264247894,2.980396451491117
1783696626839045400,2.96304541015625,-9.09940247887671,-5.987833470121026,2.8747470425397155
1783696626849008400,2.97300830078125,-6.409208870655298,-5.218667545223235,2.381769902475923
1783696626858971400,2.982971435546875,-2.8331448660850524,-4.85680991706252,1.4860812919460236
1783696626868934400,2.992934326171875,0.8731973772585392,-4.6672219957083465,0.20623188990205524
1783696626878897400,3.0028974609375,3.8710383000254627,-4.137499033179879,-1.3359862998075782
1783696626888860400,3.0128603515625,4.9232022513806815,-3.0722908913344145,-2.309616520413011
1783696626898823200,3.0228232421875,3.7231472476720806,-1.2917583048939705,-2.8575913250774145
1783696626908786200,3.0327861328125,1.7601362796217201,0.5741057096123695,-3.571505610613525
1783696626918750200,3.042750244140625,0.040216859576106066,2.097102043110132,-4.118624821361899
1783696626928713200,3.052713134765625,-1.0130763880699873,2.842761420214176,-3.7863328949034214
1783696626938676500,3.062676513671875,-0.9439648579210043,3.6832051133841275,-3.4842288936987518
1783696626948639500,3.072639404296875,-0.5141279185116291,4.542350584414601,-3.835421919982135
1783696626958602500,3.0826025390625,0.3976315368533134,4.569340882670879,-3.4564369236707684
1783696626968565500,3.0925654296875,2.1825579743385313,4.268080054292082,-2.9482945093095303
1783696626978528300,3.1025283203125,4.272468060117959,3.9851767203807826,-2.324716328258812
1783696626988491300,3.1124912109375,6.036589025461673,3.8206390691310164,-1.8675163117580114
1783696626998455300,3.122455322265625,7.23622258888781,3.70994465174973,-1.5573925240963697
1783696627008418300,3.132418212890625,7.90982503004074,3.481224158924818,-1.1929369883969425
1783696627018381300,3.14238134765625,8.184155765917897,3.2919337592124935,-0.832602039758861
1783696627028344300,3.15234423828125,8.284920325437188,3.1496962025761603,-0.6073793259218335
1783696627038307300,3.162307373046875,8.242572299051284,3.148247757333517,-0.5924398232042789
1783696627048270300,3.172270263671875,8.000697725620865,3.135190707361698,-0.6231180161930621
1783696627058233300,3.1822333984375,7.594477224120498,3.1094419335991144,-0.6334472486361861
1783696627068196400,3.1921962890625,7.121772618365287,3.229402776497602,-0.7285638653963804
1783696627078159400,3.202159423828125,6.574353840148449,3.4051486349821087,-0.7936891023881733
1783696627088123400,3.212123291015625,5.976329494810104,3.580135784053802,-0.8945258503608405
1783696627098086400,3.22208642578125,5.491377986422181,3.83461966368854,-1.0348336079783738
1783696627108049400,3.23204931640625,5.264937128967047,4.24566773147583,-1.2031057695813476
1783696627118012400,3.242012451171875,5.044918998035788,4.4511587398827075,-1.2521135461173951
1783696627127975400,3.251975341796875,4.438457079219818,4.484623202589154,-1.3431924317941069
1783696627137938200,3.261938232421875,3.262577900868654,4.577511329644918,-1.5326745546862481
1783696627147901200,3.271901123046875,2.022270966270566,4.742288634869456,-1.7240777087688446
1783696627157864400,3.281864501953125,0.9765256497859954,4.675091413909197,-1.4999202860757708
1783696627167828200,3.291828125,0.06589315262436866,4.035440926718712,-0.6632618105329573
1783696627177791200,3.301791259765625,-0.3873182326316833,2.9152573321044444,-0.022136793810501692
1783696627187754500,3.31175439453125,-0.1401923145443201,1.3059148405402898,0.7840211833979934
1783696627197717500,3.321717529296875,0.36900983800292014,-0.841828425526619,2.008306153804064
1783696627207680500,3.331680419921875,0.29265140546560287,-3.0276082845211025,2.771984294940531
1783696627217643300,3.341643310546875,-2.317314819830656,-5.0051381917893885,2.5717414163202044
1783696627227606300,3.351606201171875,-7.260660864573716,-6.9481123339831825,1.8160814542055128
1783696627237569300,3.3615693359375,-11.557695210671424,-9.064442224654554,1.5366720998898147
1783696627247532300,3.3715322265625,-13.340580497717857,-10.813755496966838,1.5894507732667027
1783696627257496300,3.381496337890625,-12.622161009716987,-11.32907233300209,1.3449189633257685
1783696627267459300,3.391459228515625,-12.659329587638377,-11.316882713514566,1.2095504887413233
1783696627277422300,3.40142236328125,-12.647916213220357,-11.348529897665976,1.0869789518877864
1783696627287385300,3.41138525390625,-12.589561054885387,-11.418885290396213,0.9961498031884432
1783696627297348400,3.421348388671875,-7.853867580497265,-11.670735898917913,2.472716393944621
1783696627307311400,3.431311279296875,-8.878241023129224,-10.19029977325201,2.1577377135977147
1783696627317274400,3.4412744140625,-7.444457927566766,-8.633015970227122,1.8082506144493817
1783696627327237400,3.4512373046875,-4.22410764157474,-7.658934790983795,1.3831560472615063
1783696627337201400,3.461201416015625,-1.5720985103189944,-6.6349827886343,0.46173868284374475
1783696627347164400,3.471164306640625,-0.3127811703026295,-5.56846005705893,-0.4552294470801949
1783696627357127400,3.48112744140625,-0.1415033971428871,-4.746149986472726,-0.4914658587180078
1783696627367090400,3.49109033203125,-0.04357376878857613,-3.6891602223962545,-0.27972514226660133
1783696627377053200,3.50105322265625,0.6568938829362392,-2.5130180091947314,-0.5402161533616483
1783696627387016200,3.51101611328125,1.9179262101769445,-1.4204250168174504,-0.8884164275698363
1783696627396979500,3.5209794921875,3.506636248078942,-0.15418576858341693,-1.1855630986280739
1783696627406942500,3.5309423828125,5.086958981385827,1.0776280629575252,-1.3493445246830582
1783696627416906200,3.54090625,6.340066360846161,2.2640789042055607,-1.3550643636345863
1783696627426869500,3.550869384765625,7.152543019682168,3.4304461578458545,-1.4182919503115117
1783696627436832500,3.56083251953125,7.530671983686089,4.391877698874473,-1.6861287941247223
1783696627446795500,3.57079541015625,7.613287723052501,4.9689551177740094,-1.9912812231145798
1783696627456758300,3.58075830078125,7.462068987581134,5.3597471639961,-2.2604075222164393
1783696627466721300,3.59072119140625,7.000328258910775,5.385825023582577,-2.2388411487050353
1783696627476684300,3.600684326171875,6.2354883805185555,5.156939695584773,-1.926119015113264
1783696627486647300,3.610647216796875,5.2578761045396325,5.04014170063138,-1.6633100824646652
1783696627496610300,3.6206103515625,4.234828942075372,5.074478269997239,-1.492040054219961
1783696627506574300,3.63057421875,3.7985914879739284,5.141079278630018,-1.3184564883358776
1783696627516537300,3.640537353515625,4.234369507870078,5.154862889310717,-1.1889165007092057
1783696627526500400,3.650500244140625,5.194492888909578,4.874088968643546,-1.0311698247738181
1783696627536463400,3.66046337890625,6.128043320322036,4.4509003812074655,-1.0830024494722486
1783696627546426400,3.67042626953125,6.5313190005421635,4.091591268485784,-1.3284044663764536
1783696627556389400,3.680389404296875,6.384689930948615,3.9399849950015544,-1.5002660307735203
1783696627566352400,3.690352294921875,5.900418221518397,4.134518556064367,-1.7125449457548558
1783696627576315400,3.7003154296875,5.28563271099329,4.346357472193241,-2.046424579796195
1783696627586278400,3.7102783203125,4.923633628535271,4.560789327424764,-2.270432364885509
1783696627596242400,3.720242431640625,4.450553175204992,4.629461297112703,-2.2445731164857743
1783696627606205400,3.730205322265625,3.663606678944826,4.634105323526263,-2.1688325235858557
1783696627616168200,3.740168212890625,2.732224823743105,4.72368622573018,-2.236684409062564
1783696627626131200,3.750131103515625,2.0166227312505245,4.811226562017202,-2.239526646751165
1783696627636094200,3.76009423828125,1.4021850112497807,4.633934058612585,-2.0835883354119957
1783696627646057500,3.770057373046875,0.7997264828562736,4.028358859503269,-1.7419570643305777
1783696627656020500,3.7800205078125,0.24542203677892682,2.9597113908588883,-1.297150519326329
1783696627665983500,3.7899833984375,-0.30328678124845027,1.416311736279726,-0.5152366104058921
1783696627675947500,3.799947509765625,-1.0723089137613773,-0.6939677683115005,0.6842270032808184
1783696627685910500,3.80991064453125,-2.179470529717207,-2.950499325877428,1.3795700054682791
1783696627695873300,3.819873291015625,-3.519484623736143,-4.103488042506576,0.5364534398272633
1783696627705836300,3.829836181640625,-4.82777320767045,-4.380310595199465,-0.7356009244263172
1783696627715799300,3.83979931640625,-6.319211788865924,-5.118151407507062,-1.0161172170706092
1783696627725762300,3.84976220703125,-7.849252780178189,-5.960954231023788,-0.9446630693182348
1783696627735725300,3.859725341796875,-9.249328251928091,-6.6735618178755045,-0.017343202858418224
1783696627745688300,3.869688232421875,-10.196446605443954,-7.433923674070835,1.80341398807317
1783696627755651600,3.879651611328125,-10.279684860622883,-7.662882651826739,3.2826544742137194
1783696627765615400,3.889615478515625,-9.490515427616238,-7.277475805774331,3.5198154631257057
1783696627775578400,3.899578369140625,-8.207635425704717,-7.099290737444162,3.4934161164999007
1783696627785541400,3.909541259765625,-7.213110593369603,-7.101865556368232,3.4585327269062396
1783696627795504400,3.91950439453125,-6.806400847047567,-7.065156412652135,3.0534809769243
1783696627805467400,3.92946728515625,-6.618425621587038,-6.88588238004148,2.253808854603767
1783696627815430400,3.939430419921875,-6.650887044730782,-6.396509548079967,1.1110209217324851
1783696627825393200,3.94939306640625,-6.909031784960627,-5.329613891538977,0.026860242135822773
1783696627835356200,3.959356201171875,-6.439338635981082,-3.786137080070376,-0.705588136543706
1783696627845320200,3.9693203125,-4.902134913432598,-2.334504439562559,-0.9489544829018414
1783696627855283200,3.979283203125,-2.812460389974713,-1.1051999604940415,-0.901414806156978
1783696627865246200,3.98924609375,-0.8186836967825889,-0.09676876788139342,-0.7272450378827751
1783696627875209200,3.999209228515625,0.6591793635249138,0.8751011650532483,-0.6747656397134065
1783696627885172200,4.009172119140625,1.5561556757777928,1.7753765188515185,-0.8804705831319093
1783696627895135200,4.01913525390625,2.1489427049845458,2.54093945082128,-1.191569937827438
1783696627905098200,4.02909814453125,2.664362416872382,3.1061773788452145,-1.4282609711401164
1783696627915061200,4.039061279296875,3.1280858437925576,3.469236199489236,-1.6342779031172394
1783696627925025300,4.049025390625,3.6413568532139062,3.719590139712393,-1.7992112756863234
1783696627934988300,4.05898828125,4.174840629580617,3.9375045763626693,-1.82405988573879
1783696627944951300,4.068951416015625,4.716239416855573,4.1170661937430495,-1.760584315650165
1783696627954914300,4.078914306640625,5.275644985464215,4.312184276695549,-1.5018331339597701
1783696627964877000,4.088876953125,5.827418451759219,4.407750390788912,-1.012829939028248
1783696627974840000,4.098840087890625,6.136518303200602,4.4868879326507445,-0.39390462528467174
1783696627984803000,4.108802978515625,6.093648883289099,4.473985780979692,0.10263386052250861
1783696627994766300,4.118766357421875,6.016849721246958,4.604750634226202,0.3779356333889067
1783696628004729300,4.128729248046875,6.0782291958391665,4.67984123878479,0.5544983612142503
1783696628014693400,4.138693359375,6.247654619130492,4.639634316080809,0.6275975727599113
1783696628024656400,4.148656494140625,6.397428416490555,4.527390915691853,0.5121851869460196
1783696628034619400,4.158619384765625,6.386583197349309,4.43977751416862,0.24713928902558982
1783696628044582100,4.16858203125,6.284241013249755,4.431428788018226,-0.13504311508759856
1783696628054545200,4.178545166015625,6.022070670765638,4.386207252022624,-0.5584330703146755
1783696628064508200,4.188508056640625,5.735538040441274,4.326073978099227,-0.8786564463820308
1783696628074471200,4.19847119140625,5.553581052356958,4.354475312197208,-1.1601070242017506
1783696628084434200,4.20843408203125,5.351110853075981,4.401285578688979,-1.2906743090495467
1783696628094397200,4.218397216796875,4.848081251683831,4.333429601559042,-1.0820491673354058
1783696628104361200,4.228361328125,3.7433717050552366,4.2031069391220806,-0.6306094679269939
1783696628114324200,4.23832421875,2.266089659506082,3.6221973947137593,-0.1394140236482024
1783696628124287200,4.248287353515625,1.039652844828367,2.418121464926004,0.07838168199323117
1783696628134250200,4.258250244140625,0.6160562611132859,0.9839666134417057,0.30619558136723934
1783696628144213200,4.268213134765625,0.691182521507144,-0.43348610956668854,0.6478085861396045
1783696628154176300,4.27817626953125,0.806508690342307,-1.6944804428845643,0.8071811827763915
1783696628164139300,4.28813916015625,0.27295301778316494,-2.5705530833184715,0.8839423508957028
1783696628174102300,4.298102294921875,-1.2626163815617562,-2.937431169989705,0.4920996996421367
1783696628184066300,4.30806640625,-3.917325419425964,-3.7715368923097845,0.3974707202684134
1783696628194029300,4.318029296875,-6.7314581265270705,-5.442835197049379,0.6187672736376524
1783696628203992000,4.327991943359375,-8.710207346457242,-6.576386222758889,0.34831308693289753
1783696628213955000,4.337955078125,-9.302132790398597,-7.04617990950346,0.22628464398011564
1783696628223918000,4.34791796875,-8.104130627566576,-7.154518703669309,1.0864784550197422
1783696628233881300,4.35788134765625,-6.2389686238497495,-6.833013544163108,2.1737083129286763
1783696628243844400,4.36784423828125,-5.542984839540719,-6.343080155709385,2.3758453347325323
1783696628253807400,4.377807373046875,-6.224055716878175,-6.285650880047679,2.2192606883138417
1783696628263770400,4.387770263671875,-7.257455931052565,-6.55051703748703,2.2669757946908473
1783696628273734400,4.397734375,-7.54251381264925,-6.751994718599319,2.6048972514688966
1783696628283697200,4.407697265625,-6.783650670579076,-6.682700817620754,2.8718378770947455
1783696628293660200,4.41766015625,-5.49772004892528,-6.198331493034958,2.6268846268713473
1783696628303623200,4.427623046875,-4.17910530128777,-5.253837642803788,1.9497033043183385
1783696628313586200,4.437586181640625,-2.9617490341663357,-4.153233777928352,1.2736352037042378
1783696628323549200,4.447549072265625,-1.6623849304437637,-3.22828809325397,0.8645788942560553
1783696628333512200,4.45751220703125,-0.23045827640295027,-2.3943606501102446,0.5518383482247591
1783696628343475500,4.467475341796875,1.0294289724558592,-1.3664701392680405,0.19388233061246574
1783696628353439200,4.477439208984375,2.101181421378255,-0.13391279588341712,-0.4358772424869239
1783696628363402200,4.48740234375,2.95424435762465,1.0736281796663998,-1.0967554458189754
1783696628373365200,4.497365234375,3.352456324714422,2.180278338968754,-1.8846400266468524
1783696628383328300,4.507328369140625,3.105615653309226,2.979785626116395,-2.6062925052195784
1783696628393291300,4.517291259765625,2.2830127372562883,3.340871100860834,-2.917831566506624
1783696628403254300,4.527254150390625,1.3555670524597168,3.4910014565736054,-2.8824942956656217
1783696628413217300,4.53721728515625,0.942061070126295,3.6779248348936435,-2.451428252852708
1783696628423180300,4.54718017578125,1.1687503493845461,3.9496120705246924,-1.80594116846323
1783696628433143000,4.55714306640625,1.6847206808924673,4.1961107966244215,-1.0932402042396365
1783696628443107000,4.567107177734375,2.361160975819826,4.361494251048565,-0.2516996374773793
1783696628453070000,4.577070068359375,3.154240275746584,4.472099236580729,0.38920119683407245
1783696628463033000,4.587033203125,4.014766387480497,4.387836606790125,0.7678614181704819
1783696628472996400,4.596996337890625,5.004794492918252,4.0286324157476425,0.9752262576252222
1783696628482959400,4.60695947265625,5.890830308961868,3.5706834805756804,0.8503844377521425
1783696628492922400,4.61692236328125,6.6680871858567,3.198113319742679,0.5367925355885178
1783696628502885400,4.626885498046875,7.328730776715278,2.7633471072375775,0.15735522893238812
1783696628512848100,4.63684814453125,7.786646394139527,2.377683071553707,-0.20433025753181427
1783696628522811100,4.64681103515625,7.848101856577396,2.112277984932065,-0.38735074666179714
1783696628532775200,4.656775146484375,7.385017312082648,2.0565543441444634,-0.36747484698798505
1783696628542738200,4.66673828125,6.355335826170444,2.3337223492741583,-0.208127202129364
1783696628552701200,4.676701171875,5.044998493012786,2.725560689678788,-0.10475136413313448
1783696628562664200,4.686664306640625,4.094482898274064,3.0791011558711525,-0.2690571793884039
1783696628572627200,4.696627197265625,3.486483102366328,3.1766485069096086,-0.7701819700725376
1783696628582590500,4.706590576171875,2.9331185674875973,3.0239141061782835,-1.3083674943894148
1783696628592553200,4.71655322265625,2.1971704370588063,2.6719296372562646,-1.4721531582280993
1783696628602516200,4.72651611328125,1.3064017472743987,2.2422996185958386,-1.3323033735111356
1783696628612480300,4.736480224609375,0.3064928838133812,1.6961977681964635,-0.84350483430624
1783696628622443300,4.746443359375,-0.8009896346598863,1.0038169768154621,0.12427497977055608
1783696628632406300,4.75640625,-1.746645514407754,0.030436639317870138,1.0788427725095302
1783696628642369300,4.766369384765625,-2.4252654914617535,-1.0628788221150636,1.6890474580504
1783696628652332300,4.776332275390625,-2.6469629537820816,-2.1830507262915373,1.5831892286539078
1783696628662295300,4.78629541015625,-2.7623323772370814,-3.5192473078489304,0.7338624832611531
1783696628672258000,4.796258056640625,-3.8182384377300735,-5.450065732824802,0.5506320411749184
1783696628682221000,4.806220947265625,-5.865296639254689,-7.344778240674733,1.0706728369921445
1783696628692184300,4.816184326171875,-8.206819433146714,-7.770850274592638,1.2966804175965487
1783696628702148000,4.826148193359375,-9.722328625759483,-7.153711478939652,1.6274138625666499
1783696628712111400,4.836111328125,-10.216472325384617,-6.807429605573415,2.6092615841582414
1783696628722074400,4.846074462890625,-10.05564580361247,-6.506728164643049,2.7854303442299364
1783696628732037400,4.856037353515625,-9.814190332376956,-6.243618495482206,1.9709630960986018
1783696628742000400,4.86600048828125,-9.931786784231662,-6.556638735237717,1.4132713456705213
1783696628751963100,4.875963134765625,-9.56701356088519,-6.981279275047779,1.114431460828334
1783696628761926100,4.885926025390625,-8.268900334006547,-7.079129408425092,0.9364777170360088
1783696628771889200,4.89588916015625,-6.648800301584601,-6.58151247973144,0.6973290614381432
1783696628781852200,4.90585205078125,-5.122635274922848,-5.675408858171105,0.19649287843704222
1783696628791816200,4.915816162109375,-3.648148997572064,-4.7920355393350125,-0.40982064488418396
1783696628801779200,4.925779296875,-1.8817191707640886,-3.940535614621639,-0.8125468745280057
1783696628811742200,4.9357421875,0.41337680299580093,-3.1116993571370837,-0.865579011209309
1783696628821704400,4.945704345703125,2.7460674711346624,-2.33858674044013,-0.48591706548444924
1783696628831667500,4.95566748046875,3.972302625760436,-1.3789789077073336,0.2165793155889958
1783696628841630500,4.96563037109375,3.546823881560564,-0.058251113438606256,0.6085659053578972
1783696628851593500,4.975593505859375,2.8532267001271245,1.2985691539525985,0.20107980436850337
1783696628861556500,4.985556396484375,2.872696539750695,2.05769825348258,-0.1020191444239579
1783696628871520500,4.9955205078125,3.298365253564715,2.475597794599831,-0.3818365132849663
1783696628881483500,5.0054833984375,3.894506853896379,2.989281184214353,-0.7289126788340509
1783696628891446500,5.015446533203125,4.617498472118378,3.324254020319879,-0.7924206898875534
1783696628901409300,5.0254091796875,5.360252775430679,3.4874504860937594,-0.4834019408583641
1783696628911372500,5.03537255859375,5.95582212883234,3.5196912522241472,-0.001151288926973939
1783696628921335600,5.04533544921875,6.3362137770712375,3.470809147894382,0.3876121010117233
1783696628931298600,5.055298583984375,6.735557963061332,3.419035706037283,0.5804479182459413
1783696628941261600,5.065261474609375,7.299052846810222,3.2800387387573715,0.8970070727173238
1783696628951224600,5.075224609375,7.9274869434595105,3.12452873583287,1.2231060628198087
1783696628961188600,5.085188720703125,8.585639886546135,2.983193388733268,1.366114019306749
1783696628971151600,5.095151611328125,8.967870440649985,2.654393980565667,1.4127588661037385
1783696628981114400,5.1051142578125,8.855326011487842,2.3775927629217506,1.0525998585544527
1783696628991077400,5.115077392578125,8.115986485055089,2.2978087398499247,0.36711386818848546
1783696629001040400,5.125040283203125,7.003138055634498,2.236203639808297,-0.4351867029394954
1783696629011003400,5.13500341796875,6.0188850264668465,2.270137473592162,-1.1455914459846912
1783696629020966700,5.144966552734375,5.193551808667182,2.3837714515566826,-1.5897499023437498
1783696629030929700,5.1549296875,4.430549082574248,2.7578637073904275,-1.7601042770482598
1783696629040892700,5.164892578125,3.916467925813794,3.592476794710755,-1.881143708963692
1783696629050856700,5.174856689453125,3.742875445970893,4.362984197345376,-1.8848240049116312
1783696629060819500,5.1848193359375,3.741004391402006,4.892631756550073,-1.795055325050652
1783696629070782500,5.194782470703125,3.166992205291986,5.392693740308284,-1.802186784365773
1783696629080745500,5.204745361328125,1.8680138860166071,5.7308186107039445,-2.1098113025575875
1783696629090708500,5.21470849609375,0.4880237554401159,5.64654925891161,-2.4560811932250854
1783696629100671500,5.22467138671875,-0.33170389743745327,4.98943091956973,-2.5675340277582404
1783696629110634500,5.234634521484375,-0.7293968090891838,3.756748488500714,-2.1896520242527124
1783696629120597500,5.244597412109375,-1.35444184782207,2.1566636546254156,-1.1832569405775517
1783696629130561500,5.2545615234375,-2.34548760586977,0.31813071463704107,-0.08710143341310322
1783696629140524300,5.264524169921875,-3.2168601057887076,-1.5059206955343485,0.41308256928958
1783696629150487300,5.2744873046875,-3.99872243065238,-2.561563136655092,-0.2590005533415824
1783696629160450600,5.284450439453125,-5.812058385542035,-4.746363921484351,-0.10918503573164343
1783696629170413600,5.29441357421875,-8.111524244949221,-7.404165080145001,0.5206602428898215
1783696629180376600,5.30437646484375,-9.945027374076842,-7.651437128704786,-0.0632855274092406
1783696629192207600,5.31620751953125,-11.140982541251182,-8.208465446788072,1.6598802541464566
1783696629202170400,5.32617041015625,-10.639749175626038,-8.965385053575039,4.000209454339743
1783696629212133400,5.33613330078125,-9.661764559203386,-8.333652499902248,3.8728146620482202
1783696629222097400,5.346097412109375,-9.492114094984531,-7.492241423004865,3.0097867966264484
1783696629232060400,5.356060302734375,-10.00706268222928,-7.036704225149751,2.516185825575888
1783696629242023400,5.3660234375,-11.432799249458313,-6.835176275154947,1.9801209466747938
1783696629251986400,5.375986328125,-12.338529946053027,-6.482921757119894,0.7579539182707666
1783696629261949400,5.385949462890625,-11.17845507055521,-5.831493153852224,-0.6665235888078809
1783696629271912400,5.395912353515625,-8.368855915230512,-5.211700628820061,-0.9995333812121301
1783696629281875500,5.40587548828125,-5.71325957313776,-4.339579356360435,-0.36018516490384933
1783696629291838500,5.41583837890625,-4.2123914848178625,-2.8397546396136284,0.30928971145767714
1783696629301801500,5.425801513671875,-3.433671549633145,-1.3130559444665908,0.8425679187823086
1783696629311765500,5.435765625,-2.4054800100177527,-0.053013797307014464,0.8892121079921722
1783696629321728500,5.445728515625,-0.9560703062564134,0.9274293181836605,0.6395764721062034
1783696629331691500,5.45569140625,0.7543272522062062,1.6892402041435242,0.04436908388473093
1783696629341654500,5.465654541015625,2.228330714476108,2.14483176253438,-0.6317120223414152
1783696629351617500,5.475617431640625,3.2507337338179347,2.4485265400618315,-1.2000144525025038
1783696629361580300,5.485580322265625,4.0443630688428875,2.6928572744727135,-1.4906823560006917
1783696629371543300,5.495543212890625,4.740120643180608,2.8525276119470595,-1.5796036252520977
1783696629381506600,5.505506591796875,5.560379041934013,2.810369555175304,-1.6108678014352917
1783696629391469600,5.515469482421875,6.62836249371171,2.4959979008108375,-1.6727189851924775
1783696629401433300,5.525433349609375,7.679366169115901,2.1478239300876854,-1.3630940869636834
1783696629411396600,5.535396728515625,8.382167816746234,2.131088483864069,-0.8669947232261299
1783696629421359600,5.545359619140625,8.653397663998604,2.2843717506498096,-0.3323348522847518
1783696629431322600,5.555322509765625,8.332403376623988,2.3792153956875204,0.45347624673731624
1783696629441285400,5.565285400390625,7.647120434549451,2.6654718394190073,1.036858391804248
1783696629451248400,5.575248291015625,7.034663659232854,2.980323970776796,1.3320282098315654
1783696629461211400,5.58521142578125,6.7443211152315135,3.224235310731828,1.4770558355778456
1783696629471174400,5.59517431640625,6.731806501573324,3.318869404672086,1.4606171803437173
1783696629481137400,5.605137451171875,6.82754417284131,3.317416867776215,1.3260494276829062
1783696629491101400,5.615101318359375,6.968305227184295,3.3550925184369085,1.0081039334196598
1783696629501687600,5.6256875,7.108688095864653,3.441131217989325,0.5991057108342647
1783696629511650600,5.635650634765625,6.964894541957974,3.6156454888522624,0.30373174853697416
1783696629521613600,5.645613525390625,6.381274569547176,3.957594301450252,0.09451293351231142
1783696629531576300,5.655576416015625,5.607354143598675,4.291730394470691,-0.3162058109890669
1783696629541539300,5.665539306640625,5.039427414882183,4.431228297010064,-0.5504443365830928
1783696629551502600,5.675502685546875,4.579415701961517,4.476374429681897,-0.6747350984446704
1783696629561465600,5.685465576171875,4.061023696264624,4.461956028228998,-0.8903307367585599
1783696629571428600,5.6954287109375,3.24971666572988,4.186941401740908,-0.8164857483468949
1783696629581391600,5.7053916015625,2.2997639655709263,3.786325880640745,-0.30396584955379363
1783696629591355600,5.715355712890625,1.4012076906502247,3.4047762945383786,0.5167169120915234
1783696629601318700,5.725318603515625,0.7233540217936039,2.890986229678988,1.663527378477156
1783696629611281400,5.735281494140625,0.21255203283429144,1.9597879143506287,2.9153783281356094
1783696629621244400,5.745244384765625,-0.2352028405815363,0.8478355569869279,3.380244495350122
1783696629631207400,5.75520751953125,-1.5519956334888934,-0.283529356855154,3.088274350146949
1783696629641170400,5.76517041015625,-4.581367420551181,-1.4094815979987383,2.695150353845954
1783696629651133400,5.775133544921875,-8.925986524644493,-2.6891303629040717,2.681703427773714
1783696629661096400,5.785096435546875,-12.738428258794546,-4.314772247362137,2.9421999918267128
1783696629671059500,5.7950595703125,-14.435441435027121,-5.696733385750651,2.9611586670577523
1783696629681023500,5.8050234375,-14.430559508204459,-5.719267873641848,2.836910940620303
1783696629690986500,5.814986572265625,-14.402260465437173,-5.778733039045333,2.715670871566236
1783696629700949500,5.824949462890625,-9.666641809850931,-8.100082228958605,3.8840199466735124
1783696629710912500,5.83491259765625,-9.74130045273304,-7.767496872511505,3.2760420703366395
1783696629720875500,5.84487548828125,-11.317103662788867,-7.295407768306136,2.672818110528588
1783696629730838500,5.854838623046875,-12.742027744591235,-7.014329311734437,2.507720487308502
1783696629740801500,5.864801513671875,-12.69304597927928,-7.097558214563131,2.502264852251112
1783696629750764300,5.874764404296875,-12.651927202427386,-7.167378769764304,2.5053803539231416
1783696629760728600,5.884728515625,-8.723161520576477,-5.5122962712883945,2.8827371645107864
1783696629770691300,5.89469140625,-7.1555953929901115,-4.809214637672901,2.7213199833691117
1783696629780654300,5.904654296875,-5.889160329923033,-4.080490028756857,2.211218251633644
1783696629790617300,5.914617431640625,-4.31200570525825,-3.292438493864238,1.1690675255749374
1783696629800580600,5.92458056640625,-2.6035265476375815,-2.4194524212688204,-0.18857162045110015
1783696629810543600,5.934543701171875,-1.2639473379045725,-1.3375275379002094,-1.4056957958497107
1783696629820506600,5.944506591796875,-0.2272457440972328,-0.148749130487442,-2.435090281514078
1783696629830470100,5.95447021484375,0.4407920486658811,0.9341898983597755,-3.117164929066598
1783696629840433000,5.964432861328125,0.8882534920930862,1.802701748150587,-3.4064904049798845
1783696629850397000,5.97439697265625,1.3707546847194432,2.475875734758377,-3.251852508714795
1783696629860360000,5.98435986328125,2.0924650309592483,2.9724627358824014,-2.7660584120228884
1783696629870323000,5.994322998046875,3.1260733349263665,3.405282490494847,-2.357733339458704
1783696629880286000,6.004285888671875,4.260315265509486,3.771827399688959,-2.125668796902895
1783696629890249000,6.0142490234375,5.370267388966679,4.135215306156874,-2.165171809121221
1783696629900212000,6.0242119140625,6.326443493685126,4.399356656453013,-2.1811790872007606
1783696629910175000,6.034175048828125,6.904882264065742,4.491732157811522,-2.01959619410336
1783696629920138000,6.044137939453125,6.9794234180480235,4.51935724684,-1.7748107016623018
1783696629930101800,6.054101806640625,6.805621679368615,4.422419552132487,-1.5720942725352942
1783696629940065000,6.06406494140625,6.622322044503688,4.1780701130211355,-1.4067653247773646
1783696629950028000,6.074028076171875,6.531249442437291,3.996097927367687,-1.1917846765566618
1783696629959991000,6.083990966796875,6.6177604356765745,3.910641411617398,-0.9945815309584141
1783696629969954000,6.0939541015625,6.419915558108687,3.866435190144181,-0.8661381063967942
1783696629979917000,6.1039169921875,6.121328332853317,3.9674855808675287,-1.0384281984042376
1783696629989880000,6.113880126953125,5.824183707621693,4.024113477018475,-1.318711339879781
1783696629999842800,6.1238427734375,5.527600807926058,4.025405854916572,-1.6670362633809446
1783696630009805800,6.133805908203125,5.295860675019026,4.10431806358993,-2.0110104443266987
1783696630019769900,6.143769775390625,5.195281408938765,4.147500787234306,-2.2270907974176106
1783696630029732900,6.15373291015625,5.209882765743136,4.098668659526109,-2.32445972314924
1783696630039696000,6.16369580078125,5.325235238063335,4.092624118664861,-2.341187424457818
1783696630049659100,6.1736591796875,5.250238741528988,4.077423626923561,-2.0364203415237365
1783696630059622100,6.1836220703125,4.941485511568188,3.7802562053382394,-1.2521673221312462
1783696630069585200,6.193585205078125,4.4523201848775145,3.4283874717503786,-0.1778407849371433
1783696630079548000,6.2035478515625,3.9265041666597127,2.7682781338989733,1.0943339908257126
1783696630089511000,6.213510986328125,3.709196463730931,1.7565788794010877,2.304172575793415
1783696630099475000,6.223474853515625,3.9970127041250465,0.6387842257499694,2.9883301670998335
1783696630109438000,6.23343798828125,4.004052101242542,-0.5160656085759401,3.2512916599616406
1783696630119401000,6.24340087890625,2.3336311638593674,-1.4789607924163342,2.5641531531482933
1783696630129364000,6.253364013671875,-1.5555694003224372,-2.5776351505339146,1.3180663199745117
1783696630139327000,6.263326904296875,-5.6371670980602495,-4.34499728975594,1.2753162886589764
1783696630149290000,6.2732900390625,-8.313836038798094,-6.144529760220647,1.8906538801088928
1783696630159253000,6.2832529296875,-9.26698899630308,-7.668706827935576,2.8029180701255796
1783696630169216000,6.293216064453125,-8.655887727248668,-8.112624315145611,3.8170132798492906
1783696630179180000,6.303179931640625,-7.466610722663998,-7.678692799898982,4.891474403208494
1783696630189143000,6.31314306640625,-6.088202308320999,-6.956865549281239,5.186594829136133
1783696630199106000,6.32310595703125,-5.47491142026782,-6.388181864717603,4.481766644114256
1783696630209069000,6.333069091796875,-7.0605457039862864,-6.267247792872786,3.6497783523395655
1783696630219032000,6.343031982421875,-9.538127073618769,-5.935360940083861,3.2940921062901616
1783696630228995000,6.3529951171875,-10.575864440214634,-5.401842092403769,3.8753564554855227
1783696630238957800,6.362957763671875,-9.76088193603754,-4.9182817461133,4.651750285810232
1783696630248920800,6.3729208984375,-7.853747168987989,-4.40637559530437,4.845297466184198
1783696630258883800,6.3828837890625,-5.448964493584633,-3.9360254437208173,4.368801943713426
1783696630268847900,6.392847900390625,-2.704116919633746,-3.5036697994887827,3.4744980655401942
1783696630278811000,6.402810791015625,0.22178397156000135,-2.961346298584342,2.338867895469069
1783696630288774000,6.41277392578125,2.7279262497663495,-2.2004823380857705,0.9805587046943605
1783696630298737200,6.422737060546875,4.34870900375545,-1.0815011049985885,-0.45538551442474123
1783696630308700200,6.4327001953125,4.8388569117426865,0.33821839389801023,-1.7947237550087272
1783696630318663000,6.442662841796875,4.000087289264798,1.5711562610328196,-2.645559224463999
1783696630328626000,6.4526259765625,2.3683704688072202,2.58335060557127,-2.9981159403160214
1783696630338589000,6.4625888671875,0.6766857941210269,3.409676341539621,-2.9501266931727526
1783696630348553000,6.472552978515625,-0.3457359299212694,3.8507612356722354,-2.4858427097603677
1783696630358516000,6.482515869140625,-0.5807581532388926,4.2389667725324625,-2.2018746692270037
1783696630368479000,6.49247900390625,-0.17839958786368368,4.679905536192655,-2.178042250479758
1783696630378442000,6.50244189453125,0.6518278317183256,5.014241535699367,-2.013430657210946
1783696630388405000,6.512405029296875,1.7839707441955803,5.2879556009829045,-1.710234769116342
1783696630398368000,6.522367919921875,3.0573446666151285,5.4515118399798865,-1.3711203031614423
1783696630408331000,6.5323310546875,4.016753761905432,5.452701926547289,-1.0741592908684163
1783696630418294000,6.5422939453125,4.696743273746967,5.329965773716569,-0.857301815925166
1783696630428257000,6.552257080078125,5.246020831573009,5.1525651337623595,-0.7387282626666128
1783696630438221000,6.562220947265625,5.761531728875637,4.902882516929507,-0.7680969804920256
1783696630448184000,6.57218408203125,6.22632307728827,4.711971238017082,-1.0486118118315935
1783696630458147000,6.58214697265625,6.768190651118755,4.573977894821763,-1.4634459740288555
1783696630468110000,6.592110107421875,7.365828042966127,4.446852567121386,-1.682881628897041
1783696630478072800,6.60207275390625,7.635913980880379,4.284114074248075,-1.832996640910208
1783696630488035800,6.612035888671875,7.422345464479923,4.128815960508585,-1.7587559311792254
1783696630497998800,6.621998779296875,6.916866131848097,4.060063326799869,-1.6014838870182633
1783696630507962000,6.631962158203125,6.234511644440889,3.8792899955421682,-1.4464292266458272
1783696630517926000,6.64192578125,5.351904633802175,3.734982062372565,-1.3311717391327023
1783696630527889000,6.651888916015625,4.433114549148082,3.6701240980148313,-1.2696519792869687
1783696630537852200,6.66185205078125,3.4555046112567185,3.531275014773011,-1.1125050228103994
1783696630547815200,6.671815185546875,2.5786738459318874,3.303557561510801,-0.8682884162984787
1783696630557778000,6.68177783203125,1.907949590563774,2.7416578379988668,-0.4425362619847059
1783696630567741000,6.691740966796875,1.1005822375655174,1.8663614426344632,0.2187186657052487
1783696630577704000,6.701703857421875,0.5864490583568811,0.8524959500133991,0.6888723448686301
1783696630587667000,6.7116669921875,0.1732405976653099,-0.6645785922199487,1.2937361808381973
1783696630597630000,6.7216298828125,-1.0738941371262072,-2.309123330068588,1.783518031992018
1783696630607594000,6.731593994140625,-3.0072973178982734,-3.3987884523004293,1.4648758607015013
1783696630617557000,6.741556884765625,-5.0009384020119905,-4.0412165875107044,0.5423495121285319
1783696630627520000,6.75152001953125,-7.5759057946413755,-5.30049710264802,0.5585452985174953
1783696630637483000,6.76148291015625,-10.394322462671994,-7.14179892282784,1.6653656998202204
1783696630647446000,6.771446044921875,-11.574785461682081,-8.140349357417225,2.4809344794526695
1783696630657409000,6.781408935546875,-10.591136828148365,-8.395296762910485,3.5074762060344216
1783696630667372000,6.7913720703125,-8.683065072509645,-8.44866419596076,4.5113197785958645
1783696630677335000,6.8013349609375,-7.631255925941467,-8.240831008341909,4.30081561820209
1783696630687299000,6.811299072265625,-8.21458656001687,-8.136919382968545,3.603185820251703
1783696630697262000,6.821261962890625,-9.794277425161004,-8.199529276138543,3.0953824285864826
1783696630707225000,6.83122509765625,-11.016713187503814,-7.9888266705632205,2.6680188935533162
1783696630717187800,6.841187744140625,-11.166161406171321,-7.455319513320922,1.7100570744618773
1783696630727150800,6.85115087890625,-10.280235480242967,-6.574710398501157,0.3432305960368365
1783696630737113900,6.86111376953125,-8.59510446498394,-5.414284809869527,-0.6573916763905435
1783696630747076900,6.871076904296875,-6.3617076992899175,-4.032493182829022,-1.0678911703843623
1783696630757040000,6.8810400390625,-3.856220670121908,-2.749699690157175,-1.0432119255494325
1783696630767003100,6.891003173828125,-1.281115330326557,-1.6527297978699207,-0.9033538113955408
1783696630776967200,6.90096728515625,0.9613315877854823,-0.7508563612252473,-1.0213398470897226
1783696630786930200,6.91093017578125,2.500930681037903,-0.030554712739586827,-1.324075935652852
1783696630796893000,6.920892822265625,3.326142902806401,0.6332417891919613,-1.6510010743811725
1783696630806856000,6.93085595703125,3.5591035174190995,1.3054250111967325,-1.9947725723616778
1783696630816819000,6.94081884765625,3.474686866110563,1.8145716341644524,-2.2611191776171324
1783696630826781700,6.95078173828125,3.2454140000998972,2.2489970704078672,-2.382859597408771
1783696630836744700,6.96074462890625,2.9691110873669384,2.77770238032639,-2.5074229656666516
1783696630846707700,6.970707763671875,3.019941110894084,3.4188702863425013,-2.5609973194658755
1783696630856671700,6.980671630859375,3.562240061879158,3.991085067641735,-2.535191847079992
1783696630866634800,6.990634765625,4.561387877839803,4.56598338893652,-2.590782801398635
1783696630876597800,7.00059765625,5.637376356896758,5.0029555870532985,-2.4894927567005154
1783696630886560800,7.010560791015625,6.533699173676967,5.4264826126635075,-2.2537650154620406
1783696630896523800,7.020523681640625,7.145798221597075,5.899848312675952,-2.0403321081399914
1783696630906486800,7.03048681640625,7.508538477811217,6.479951801398396,-1.708715450594574
1783696630916449800,7.04044970703125,7.991873783174157,6.547912407946586,-1.3721160362005234
1783696630926412800,7.050412841796875,8.420867842018604,6.522852200970053,-1.2366548418313263
1783696630936375600,7.06037548828125,8.74258752105832,6.502634757849574,-1.202147299812734
1783696630946339800,7.07033984375,8.838857107245921,6.304270824843645,-1.1273451568067072
1783696630956302600,7.080302490234375,8.655184547415375,6.270215410506725,-1.1667968772292137
1783696630966265600,7.090265625,8.511877315720914,6.299451441863178,-1.348819770156592
1783696630976228600,7.100228515625,8.513311732438206,6.030439270660281,-1.5691076579399406
1783696630986192000,7.11019189453125,8.454505907726288,5.563557671970129,-1.9149477788880467
1783696630996155000,7.12015478515625,7.963364312526584,4.9999400386244055,-2.2629557453945277
1783696631006118000,7.130117919921875,6.834305337539315,4.358187610718607,-2.5351871709048748
1783696631016080600,7.14008056640625,5.254276618742942,3.8364953944325446,-2.60458365547508
1783696631026043600,7.150043701171875,3.6534208004951476,3.485412258264422,-2.3268773056849836
1783696631036007700,7.160007568359375,2.4230074834018946,3.222389682865143,-1.69000329747051
1783696631045970700,7.169970703125,1.4963368746310473,2.801675376588106,-0.7464240778662264
1783696631055933700,7.17993359375,1.0852087273448705,1.8179940098285674,0.16719371871650218
1783696631065896700,7.189896728515625,0.37932606483399867,-0.048074587339162825,1.225597295113653
1783696631075859700,7.199859619140625,-0.9725362878888845,-2.0649147607326506,2.10897265977636
1783696631085822700,7.20982275390625,-1.8104612762361765,-3.531666059917211,2.085629047459364
1783696631095785700,7.21978564453125,-2.5395360137641427,-4.404348473390937,1.8196951146580278
1783696631105748700,7.229748779296875,-3.7388831614643334,-5.389461918780207,1.6314461868226526
1783696631115712800,7.239712646484375,-5.634782248750328,-7.0345829952120775,1.6757672668471932
1783696631125675800,7.24967578125,-7.977726599878072,-9.0242791410923,1.5371189668744802
1783696631135638800,7.259638671875,-10.653476087683439,-10.259569124311207,1.00144082226865
1783696631145601800,7.269601806640625,-13.057270921093224,-10.38694696546793,1.2088140642255545
1783696631155564800,7.279564697265625,-13.466435074830054,-9.382555988156795,1.9847531365200877
1783696631165527800,7.28952783203125,-13.441066824817657,-9.409176284056901,1.9892047091014682
1783696631175490600,7.299490478515625,-13.411921394354104,-9.431236140173674,2.052742676901817
1783696631185453600,7.30945361328125,-11.694606603848934,-7.818488808602094,2.714818054129183
1783696631195416600,7.31941650390625,-12.525541879439354,-7.550168126794696,1.9378730196624994
1783696631205380600,7.329380615234375,-12.520339634621143,-7.546251830133795,2.0277581655099985
1783696631215343600,7.339343505859375,-10.95558739541173,-6.77390727519989,0.359021966343373
1783696631225306600,7.349306640625,-8.049051714423298,-6.163940563133359,-0.14965360504649577
1783696631235270000,7.359269775390625,-4.997908825057745,-5.219855293703079,-0.4613888830253854
1783696631245233000,7.36923291015625,-2.339007011678815,-4.018215066629648,-0.7169948620252311
1783696631255195600,7.379195556640625,-0.1481663621634245,-3.000947656610608,-0.935520562441647
1783696631265158700,7.38915869140625,1.6800322308152913,-1.9162030396461485,-1.1868909131657333
1783696631275121700,7.39912158203125,3.1083582300156354,-0.6750690065741538,-1.3260109953686594
1783696631285085700,7.409085693359375,4.0785915016591545,0.5335848986536265,-1.256159752768278
1783696631295048700,7.419048583984375,4.410799256965518,1.6448077726989982,-1.0595451476477087
1783696631305011700,7.42901171875,4.075280769675969,2.6156127067506314,-1.059272175925225
1783696631314974700,7.438974609375,3.6783448138713832,3.325238062921166,-1.28174369135797
1783696631324937700,7.448937744140625,3.5591520327359434,3.925731428721547,-1.4512296126648783
1783696631334900700,7.458900634765625,3.66240490193963,4.451931477820873,-1.5098321698896586
1783696631344863700,7.46886376953125,4.174785100001096,4.967487383309006,-1.6818965633824468
1783696631354826800,7.47882666015625,4.836614685773849,5.220182041439414,-2.0420856738090514
1783696631364789800,7.488789794921875,5.253472316622734,5.572001090666651,-2.054533067449927
1783696631374753800,7.49875390625,5.594031136167049,6.223796189159154,-1.30450643504709
1783696631384716800,7.508716796875,5.905742046889662,6.364636153957248,-0.8658723681326955
1783696631394679800,7.5186796875,5.986008008259534,6.100087391903996,-0.6637076546043157
1783696631404642800,7.528642822265625,5.801216673532128,5.761500164693594,-0.5202266007129103
1783696631414605600,7.53860546875,5.712671544116735,5.548780958598852,-0.46580352112986145
1783696631424568600,7.548568603515625,5.778879169517755,5.349706246975064,-0.39077889447957276
1783696631434531600,7.558531494140625,5.813518521222472,5.103613179066777,-0.4207441899586469
1783696631444494800,7.568494873046875,5.7716240838229655,4.83310638539195,-0.6129154788695276
1783696631454457900,7.578457763671875,5.704394714158773,4.507683760181069,-0.8898283401943743
1783696631464421600,7.588421630859375,5.802029158958792,4.1783746489256615,-1.048667852867767
1783696631474385000,7.598385009765625,6.056763798484206,3.902500190737843,-1.1743464158259331
1783696631484348000,7.608347900390625,6.226801800715923,3.6076048057377337,-1.3616881656885147
1783696631494310700,7.618310546875,6.152053141462803,3.2341508478075265,-1.6183163638755678
1783696631504273700,7.628273681640625,6.064520988482236,3.054424979776144,-1.9874987819664178
1783696631514236700,7.638236572265625,5.634255594527721,2.960351442328095,-1.8629333678819238
1783696631524199700,7.64819970703125,4.499325681680441,2.7587890055418014,-1.3233381228975951
1783696631534162700,7.65816259765625,2.555627316865325,2.070682822740078,-0.8764350440055131
1783696631544125700,7.668125732421875,0.8382254325985908,0.8584978207767009,-0.25453385625630615
1783696631554089700,7.67808984375,0.24648937374949453,-0.4813783260762691,0.09844269244298338
1783696631564052700,7.688052734375,-0.10313654934763908,-2.2886171331346032,0.38685309933796524
1783696631574015700,7.698015625,-0.527117748466134,-4.054946422177553,0.8213176985479891
1783696631583978800,7.707978759765625,-1.569387497794628,-5.055618086704611,0.3628860213603824
1783696631593941800,7.717941650390625,-3.267744489851594,-5.3902703125536435,-0.7394144913651048
1783696631603904800,7.72790478515625,-5.6797056785821916,-6.426091031873225,-0.2523412415828556
1783696631613867800,7.73786767578125,-8.074725669384001,-7.802510902747511,1.4747919822990894
1783696631623830800,7.747830810546875,-9.585638766378164,-8.604609375432133,3.023022125774622
1783696631633794800,7.757794921875,-9.72871102027297,-8.714189109569787,4.082033751067519
1783696631643757800,7.7677578125,-8.578719731894134,-8.40162830401957,4.801426468014717
1783696631653720600,7.777720458984375,-6.591076426890492,-7.779112491503358,4.771819557519256
1783696631663683600,7.78768359375,-5.135483650580048,-7.4547916900545355,3.8172918045297264
1783696631673646600,7.797646484375,-5.380687076172232,-7.706440638524294,2.618517488281429
1783696631683609600,7.807609619140625,-7.156563361239433,-7.91528914066553,1.4137636592321097
1783696631693572900,7.81757275390625,-8.916050237041711,-7.408833071956038,0.3844881603049114
1783696631703535900,7.827535888671875,-9.809152922731638,-6.583236234784126,-0.4361150698307901
1783696631713499000,7.837498779296875,-10.238527505326271,-5.790275592800975,-1.4603281342692673
1783696631723463000,7.847462890625,-10.394604202222823,-4.749785712626577,-2.6685423329055307
1783696631733425700,7.85742578125,-9.98630630992651,-3.265528567367792,-3.4747195993363853
1783696631743388700,7.867388671875,-8.674811038905382,-1.9673878679603336,-3.2801749323576685
1783696631753351700,7.8773515625,-6.319307065933942,-1.0431991391330957,-2.517767834070325
1783696631763314700,7.887314697265625,-3.226062818419933,-0.12379939814805983,-1.8407164215072989
1783696631773277700,7.897277587890625,-0.14748422511816023,0.9136199885398149,-1.6570744029454887
1783696631783240700,7.90724072265625,2.459017538937926,1.8674913234472275,-1.8456629379987715
1783696631793203700,7.91720361328125,4.2940614677667615,2.673538241496682,-1.9309096103906631
1783696631803166700,7.927166748046875,5.15703906430602,3.3453158053100105,-1.8486413692876695
1783696631813130500,7.937130615234375,5.470774174332618,4.061513525608182,-1.7723051485821604
1783696631823093200,7.94709326171875,5.632192232257127,4.678611989250779,-1.7338634819850325
1783696631833056300,7.95705615234375,5.92775455673337,5.016224818471073,-1.6079425616383551
1783696631843019300,7.967019287109375,6.470965946388244,5.297793688908219,-1.4442081895954906
1783696631852982300,7.976982177734375,7.026590827414393,5.55995643260777,-1.2531949116133152
1783696631862945300,7.9869453125,7.418437935647368,5.750887585264444,-0.9404914827220141
1783696631872908300,7.996908203125,7.622338459992409,5.845603512269258,-0.6092982747530564
1783696631882871300,8.006871337890624,7.775285042169689,5.855663133990764,-0.3285529591258615
1783696631892835300,8.01683544921875,7.936466368728875,5.850932013815641,-0.14486242524720727
1783696631902798000,8.026798095703125,8.176064229398966,5.8559898817270994,-0.2310470360763371
1783696631912761000,8.036760986328124,8.57431068328023,5.895230589747428,-0.5404275310900062
1783696631922724400,8.046724365234375,8.935952622863649,5.839860000181198,-0.7561087287954986
1783696631932687400,8.056687255859375,9.15445859566629,5.653615544036031,-0.6852524008058011
1783696631942650400,8.066650390625,9.174757871851325,5.399114713266491,-0.6549962326213717
1783696631952613400,8.07661328125,9.000770839732885,5.104841259557008,-0.7324767279911786
1783696631962576400,8.086576416015625,8.69055396696031,4.752824057409167,-1.043182626389712
1783696631972539100,8.0965390625,8.239974683773518,4.462928088131546,-1.4672893515840173
1783696631982503200,8.106503173828125,7.862837653416395,4.188735299420356,-1.6008572795525193
1783696631992466200,8.116466064453125,7.626724712252616,3.7530443732857703,-1.3789597646154463
1783696632002429200,8.12642919921875,6.7148986213922495,2.912908138629794,-0.6857911838576197
1783696632012392200,8.13639208984375,4.641680142694711,1.863008625075221,0.2669236014258116
1783696632022355200,8.146355224609374,1.874509677776694,1.0627905593097209,0.7712734185710549
1783696632032318500,8.156318359375,-0.5310241082549095,0.44792380024194717,1.1165720530536025
1783696632042281500,8.166281494140625,-2.120198841059208,-0.20060966610610484,1.3090706742227076
1783696632052244200,8.176244140625,-3.0965076332241295,-0.9941302800595759,1.1410049949772656
1783696632062207200,8.186207275390625,-3.8986896925389765,-2.1382810257166622,0.7421417243719101
1783696632072171300,8.196171142578125,-5.12302281293571,-3.3861014046847817,0.03451159713920206
1783696632082134300,8.20613427734375,-6.775263365983963,-4.484558320659398,-0.6870077200405299
1783696632092097300,8.21609716796875,-8.169549148416518,-5.745179729011655,-0.41442813867963846
1783696632102060300,8.226060302734375,-8.880871371632814,-7.2025833541363475,1.0607769544649868
1783696632112023300,8.236023193359374,-8.846272351938486,-8.045016175296903,2.9487583274289966
1783696632121986300,8.245986328125,-8.128741921731828,-8.102903716120123,4.147883941332996
1783696632131949300,8.25594921875,-7.707800236439704,-7.589826183444261,4.486077785311639
1783696632141912300,8.265912353515626,-8.04585905586183,-7.182319149264693,4.167207942745089
1783696632151875300,8.275875244140625,-8.69154122443199,-7.170676642265915,3.3181974967598915
1783696632161839400,8.28583935546875,-9.419167516717314,-7.169980476695299,2.323852551036328
1783696632171802400,8.29580224609375,-9.941903689098357,-6.859770618185401,1.5446226205028593
1783696632181765400,8.305765380859375,-9.705766198015212,-6.586086363518238,1.1623378519937395
1783696632191728400,8.315728271484375,-8.112070188394188,-6.172875564739107,1.164555089651793
1783696632201691400,8.32569140625,-5.6107893787443635,-5.557248927214741,1.2570274755135178
1783696632211654100,8.335654052734375,-3.1148312254220247,-4.618714862170815,1.2949815047241746
1783696632221617200,8.3456171875,-1.0133253943949938,-3.575341535514593,1.1296776914075017
1783696632231580200,8.355580078125,0.7478063260048627,-2.61565186971724,0.8230906995698809
1783696632241544200,8.365544189453125,2.115479995843768,-1.7395856590241192,0.4051377477649599
1783696632251507200,8.375507080078124,2.824152581334114,-0.8039671891659498,-0.06112557289637625
1783696632261470200,8.38547021484375,2.660960499474406,0.0483937362909317,-0.6256516263239086
1783696632271433500,8.39543359375,1.977152306127548,0.6928425636738539,-1.4773632940918207
1783696632281396500,8.405396484375,1.1768816333919763,1.168359304240346,-1.9886448832616208
1783696632291359200,8.415359130859375,0.4364765235543251,1.4711054027408361,-2.2074372717902064
1783696632301322200,8.425322265625,-0.038162265133857724,1.7746195630043744,-2.3304466886043547
1783696632311285200,8.43528515625,-0.10977788705825806,2.185066742289066,-2.343582795161754
1783696632321248300,8.445248291015625,0.08508125269711017,2.616028886336088,-2.154268722312897
1783696632331211300,8.455211181640625,0.5163315660357475,3.1266958507388827,-1.8604728229872882
1783696632341175300,8.46517529296875,1.2235668121993541,3.6378017910808325,-1.6335095490932463
1783696632351138300,8.47513818359375,2.107252850246429,4.065779950881004,-1.3201872576512395
1783696632361101300,8.485101318359375,2.8955455004185437,4.368333157157898,-0.8980634499024599
1783696632371064000,8.49506396484375,3.444837086769938,4.576214860093593,-0.5939726953273639
1783696632381027300,8.50502734375,3.7356577696770428,4.638445983079076,-0.46735378277916456
1783696632390990300,8.514990234375,3.7862317726165053,4.462011557808518,-0.5450706076554954
1783696632400953300,8.524953369140626,3.8078380397468803,4.395018919509649,-0.7763772445160895
1783696632410916400,8.534916259765625,3.901197291445732,4.278037384682894,-1.0218413668710737
1783696632420880400,8.54488037109375,4.139818416038155,4.0851100897729395,-1.0871338501885532
1783696632430843400,8.554843505859376,4.415484199911356,3.879016439297795,-0.9555525659926235
1783696632440806400,8.564806396484375,4.762764436665177,3.852608324843645,-0.9467582880318164
1783696632450769200,8.57476904296875,5.166828636914492,3.9532928048640485,-1.0268347181789577
1783696632460732200,8.584732177734375,5.361592499601841,4.121937891432642,-1.1853548627048731
1783696632470695200,8.594695068359375,4.992969615089893,4.276017861554027,-1.3417137375436723
1783696632480658200,8.604658203125,4.1640854268103835,4.334333856922388,-1.502132847558707
1783696632490621400,8.614621337890625,3.412817562174797,4.3057846387863155,-1.6569301721692085
1783696632500584400,8.62458447265625,2.9036902284294364,4.083885516414046,-1.683679793537408
1783696632510548500,8.634548583984374,2.3795962116986513,3.8021424584537744,-1.4518733173958955
1783696632520511500,8.644511474609375,1.6629969248622656,3.295020034790039,-0.9775808579273522
1783696632530474200,8.65447412109375,0.7992816616982221,2.393708908203244,-0.35155426081120966
1783696632540437200,8.664437255859376,0.35033962432444093,1.372389007923007,0.03828822960108518
1783696632550400300,8.674400146484375,0.2821393638014793,0.18416531178355217,0.31416692557260395
1783696632560363300,8.68436328125,0.54862873852849,-1.0911047996461392,0.7735787729039788
1783696632570326300,8.694326171875,0.9566635959744453,-1.8855740926265716,1.47518726522699
1783696632580289300,8.704289306640625,0.686499332126975,-2.5996213568925857,2.3300194031029937
1783696632590252300,8.714252197265624,-0.861828426504135,-3.6188100903630254,3.74688088221997
1783696632600216300,8.72421630859375,-3.2073657167345284,-4.668862748652696,4.856323594850301
1783696632610179000,8.734178955078125,-5.134744230389595,-5.518647686141729,5.534002491661906
1783696632620142300,8.744142333984374,-6.107572194701433,-6.36815556025505,6.461978922334313
1783696632630105300,8.754105224609376,-6.283438464695215,-6.949376070308685,6.699978700158
1783696632640068400,8.764068359375,-5.9280339581966395,-7.446151287481189,5.835018405368924
1783696632650031400,8.77403125,-5.211565604263543,-8.259964163357019,4.291633948358893
1783696632659994400,8.783994384765625,-4.646296696579456,-9.246929958614706,2.595293556821346
1783696632669957000,8.79395703125,-4.522240693321824,-9.664282679504156,0.9783566646054387
1783696632679920000,8.803920166015626,-4.658629523929953,-9.095742787325381,-0.7707497600231319
1783696632689884200,8.81388427734375,-4.898099958828091,-7.764462619382143,-2.3110889310531317
1783696632699847200,8.82384716796875,-5.346577885821461,-5.962661034941673,-2.7164137988880275
1783696632709810200,8.83381005859375,-5.774915526583791,-4.136546847021579,-2.188558091536164
1783696632719773200,8.843773193359375,-5.802329603210091,-2.5393834535509345,-1.6168192571856081
1783696632729736400,8.853736328125,-4.88282932446003,-1.197190261927247,-1.268114686717093
1783696632739699500,8.863699462890626,-3.100467769026756,-0.2252116079211235,-0.9677484690904616
1783696632749662200,8.873662109375,-1.0175368746101856,0.5383978518933058,-0.8445248250037432
1783696632759625200,8.883625244140624,0.815125127518177,1.2610662295103072,-1.2505280304916202
1783696632769589200,8.89358935546875,2.29873169991374,1.9631272879064081,-1.7324565377965568
1783696632779552300,8.90355224609375,3.458157171592116,2.57885563223958,-1.8814502906948327
1783696632789515300,8.913515380859375,4.217493776392937,3.2165064700454473,-1.7823636012598871
1783696632799478300,8.923478271484376,4.557109177607297,3.8744226817667484,-1.55330730060935
1783696632809441300,8.933441162109375,4.588294004943966,4.481763721504807,-1.2864192819535731
1783696632819404300,8.943404296875,4.466879456105828,5.050308874380589,-0.9693197369951754
1783696632829368000,8.9533681640625,4.361207250800729,5.554785167449713,-0.5165617215298116
1783696632839331000,8.9633310546875,4.328881436735391,5.898170150330662,-0.11004870335627347
1783696632849294000,8.973294189453124,4.407076437050104,6.034667117488384,0.047717152203619474
1783696632859258000,8.983258056640626,4.594918391519784,5.864821422958373,0.06980221582688391
1783696632869221000,8.99322119140625,4.876571433109045,5.4507262425601475,-0.09741378778666257
1783696632879184100,9.00318408203125,5.188902521556615,5.044146844619513,-0.49747050596028564
1783696632889147100,9.013147216796876,5.493838239055871,4.600927276545763,-0.985202950303629
1783696632899110100,9.023110107421875,5.804186629253626,4.240366702458262,-1.4399801966369152
1783696632909073200,9.0330732421875,6.1657964201331135,4.077005693772435,-1.7473294050186872
1783696632919036200,9.0430361328125,6.391364001885056,3.965936597859859,-1.9107164249286055
1783696632928999200,9.052999267578125,6.4013482202827925,3.964465940785408,-1.9686109800145029
1783696632938962200,9.062962158203124,6.178232707858085,4.166009088349342,-2.041139332869649
1783696632948926200,9.07292626953125,5.683692702391744,4.415386584755778,-2.1941996045544743
1783696632958889000,9.082888916015625,5.046778946688771,4.698669857895374,-2.302441075825691
1783696632968852000,9.09285205078125,4.371302528357505,5.052659236899018,-2.233945631748438
1783696632978815000,9.10281494140625,3.6381104186385866,5.27444262393713,-1.7596200006626546
1783696632988778200,9.1127783203125,3.0139421627402303,5.187590269914269,-1.0319587101291865
1783696632998741200,9.1227412109375,2.3687433937728404,4.682669155687093,-0.296542056228593
1783696633008704300,9.132704345703125,1.8192513164132833,3.65647551189065,0.4139076219368726
1783696633018667300,9.142667236328125,1.3514981955856085,2.170445511740446,1.1294202095150947
1783696633028630000,9.152630126953126,0.8540338271051645,0.33869711732566354,1.946559014943242
1783696633038594000,9.162593994140625,0.3710065647780895,-1.734037961769104,2.979759322631359
1783696633048557000,9.17255712890625,-0.398078111577034,-3.499446628835797,3.8296842531129713
1783696633058520000,9.18252001953125,-1.8676748633205889,-4.935315298500657,3.910314663881063
1783696633068483000,9.192483154296875,-4.527150677195191,-6.690356885331869,4.134106760393083
1783696633078446000,9.202446044921874,-7.958009507495165,-8.360967792329191,4.043749905380606
1783696633088409000,9.2124091796875,-10.073142881858349,-8.058514539295434,2.9033453605145216
1783696633098372000,9.2223720703125,-10.465514890748262,-7.3562985825985665,2.7529157295942306
1783696633108335000,9.232335205078124,-9.662374800056218,-7.058430903789401,3.29236016793102
1783696633118298000,9.242298095703125,-8.870896505585312,-6.6231368680179115,3.304507701842487
1783696633128262100,9.25226220703125,-8.876545909649133,-6.561587882077694,3.37293738720715
1783696633138225200,9.26222509765625,-9.017139206209778,-6.647519614124298,3.8899464141130444
1783696633148188200,9.272188232421875,-8.678588219356536,-6.721652187305688,3.973790818491578
1783696633158151200,9.282151123046875,-7.879953623390198,-6.336657429185509,2.7853461730778215
1783696633168114200,9.2921142578125,-7.0837143981277935,-5.507451169344782,0.9383218105327338
1783696633178077200,9.3020771484375,-6.531793632316589,-4.482251797282696,-0.6328305780425667
1783696633188040000,9.3120400390625,-5.941165242448449,-3.4197412239581344,-1.4010431477382779
1783696633199871000,9.32387109375,-4.5394478487104175,-2.249187624543905,-1.3423157950900495
1783696633209834000,9.333833984375,-2.9317542933970686,-1.5899053851664064,-0.9578639116749167
1783696633219798000,9.343798095703125,-1.0194500147551298,-0.8851698468640447,-0.780667269860208
1783696633229761000,9.353760986328124,0.8851292225927114,-0.2536298931539058,-1.091388219697401
1783696633239724000,9.36372412109375,2.5394220319956538,0.2707347572118044,-1.62925978269428
1783696633249687300,9.373687255859375,3.7857723384112116,0.8806102838635445,-1.9615540472403168
1783696633259650000,9.383650146484374,4.536984673467278,1.491376329614222,-1.9007785298906266
1783696633269613000,9.393613037109375,4.735588260447979,1.8498644813418388,-1.6423311534523963
1783696633279576000,9.403576171875,4.648796112179756,1.9427590381383895,-1.3692159308448433
1783696633289539000,9.4135390625,4.350050481492281,2.0823069172993303,-1.3279504389986394
1783696633299502000,9.423502197265625,4.522217896968126,3.020524171479046,-1.1756762761902064
1783696633309466000,9.433466064453125,4.3375680165380235,3.5682846027404067,-0.9429966704759746
1783696633319429000,9.44342919921875,3.6003543962180613,3.108847182576358,-0.2861469006760977
1783696633329392000,9.45339208984375,3.057249974068999,2.6885169071808455,0.32954288347866384
1783696633339355000,9.46335498046875,3.1083892096757886,2.771932564753294,0.1453009445286356
1783696633349318100,9.473318115234376,3.430031731826067,2.790821097357571,-0.14891533563351259
1783696633359281200,9.48328125,3.868703135076165,2.6294743511036036,-0.3482978528311476
1783696633369244200,9.493244140625,4.544285936391353,2.4815263078659773,-0.34170521310046315
1783696633379207200,9.503207275390626,5.145898661610484,2.3233099685922265,-0.14302954726424066
1783696633389170200,9.513170166015625,5.460949530410766,2.261443295004964,0.12218863848317414
1783696633399134200,9.52313427734375,5.366484947818518,2.465183368091285,0.2942327929055318
1783696633409097200,9.53309716796875,4.976331784021854,2.8712685527741906,0.17248280156794935
1783696633419060000,9.54306005859375,4.1789895659536125,3.247219880478084,-0.15177567523438482
1783696633429023000,9.55302294921875,3.027908144250512,3.6677009625211356,-0.4228230785919353
1783696633438986000,9.562986083984375,2.2555098133027554,4.016721028679609,-0.5493864250279963
1783696633448949000,9.572948974609375,1.9633809704065321,4.118478106367588,-0.6729821903627365
1783696633458912300,9.582912353515624,2.0692460679352283,3.85554554733932,-0.9082109691031277
1783696633468875300,9.592875244140625,2.4654285750240086,3.114061994615197,-0.9028532414622604
1783696633478838300,9.60283837890625,2.8693220948815346,1.9617928244322538,-0.42734884892068803
1783696633488802300,9.61280224609375,2.965885111057758,0.9313099590092897,0.4499511413510889
1783696633498765000,9.62276513671875,2.510001291722059,-0.12754150728583336,1.4969059066906572
1783696633509351000,9.633350830078125,1.3017296638101339,-1.2079238373875618,2.46331845100224
1783696633519314200,9.643314208984375,-0.3231955968111753,-1.8301053033828734,2.658176129452884
1783696633529277200,9.653277099609374,-2.508664490160346,-2.5768536447674033,2.384694411620498
1783696633539240200,9.663240234375,-5.150777081301808,-3.8979385819107293,2.167168974287808
1783696633549203200,9.673203125,-7.2987728608250615,-5.111824542573094,1.751982783782482
1783696633559166200,9.683166259765626,-8.046845144289732,-5.475239921569824,0.903480360384658
1783696633569129200,9.693129150390625,-7.5258601994901895,-5.960849601605534,0.909480915973708
1783696633579092000,9.703092041015625,-6.493584605431557,-6.892903072458505,1.9334125331223009
1783696633589055000,9.713054931640626,-5.891079315286874,-7.432837047877907,2.5250568220347165
1783696633599019000,9.72301904296875,-6.146363405388593,-7.750538138926029,2.7335528574764725
1783696633608982000,9.73298193359375,-6.686119101631641,-7.935593093025684,2.8052780772551893
1783696633618945000,9.742945068359376,-6.767375827604532,-7.772234422427416,2.8292005123734474
1783696633628908000,9.752907958984375,-5.6564580739855765,-7.017637705630063,2.320805876816809
1783696633638871300,9.762871337890624,-3.8549534266650674,-5.934172607082128,0.9390496133506298
1783696633648834300,9.772834228515626,-2.797489030814171,-5.023128606510162,-0.31091647240929304
1783696633658797000,9.782797119140625,-2.985764700525999,-4.080245406346023,-0.7884445527981966
1783696633668760000,9.792760009765624,-3.732813486161828,-3.0111650992423296,-0.9398265890724956
1783696633678723000,9.80272314453125,-4.155700460302829,-1.953461341677606,-1.1505925422076135
1783696633688687000,9.81268701171875,-3.706857791650295,-1.069445048762858,-1.2462778257012366
1783696633698650000,9.822650146484374,-2.438510172960162,-0.31966566911935806,-1.3803694852828978
1783696633708613000,9.832613037109375,-0.6630559126973152,0.39379707325696944,-1.6991173089049756
1783696633718576000,9.842576171875,0.7965607123017311,0.9989017322450876,-1.9047782670512794
1783696633728539100,9.8525390625,1.6935849553495645,1.5103423113688825,-1.9765394349262118
1783696633738502100,9.862502197265625,1.934690297973156,2.076887522599101,-2.0533388892292974
1783696633748465200,9.872465087890625,1.8446581448704003,2.5928087542682885,-2.138090763841569
1783696633758428200,9.88242822265625,1.880509794974327,3.1596085247814654,-1.9097122163221238
1783696633768391200,9.89239111328125,1.6237018563061951,3.3778400645568967,-1.4283115322835742
1783696633778355200,9.902355224609375,1.908098643645644,3.452221059541404,-1.130771916384995
1783696633788318200,9.912318115234376,2.9789287170261143,3.3932620900943875,-1.1316541791122405
1783696633798281200,9.92228125,4.129471794068813,3.1607924738690256,-1.1505261989731341
1783696633808244200,9.932244140625,4.938206343767047,2.982842091077566,-1.0593336237888782
1783696633818207000,9.94220703125,5.363053219804168,3.0332123881384727,-0.763746603262797
