time,seconds_elapsed,z,y,x
1783696337080059100,0.06405908203125,0.0008603839669376612,-0.012319572269916534,-0.010839839465916157
1783696337090022000,0.07402197265625,0.0006521247560158372,0.020600827410817146,-0.0005405971314758062
1783696337099985000,0.08398486328125,-0.0006972401752136648,0.006939229555428028,0.006160873919725418
1783696337109949000,0.093948974609375,-0.0005486357840709388,-0.01859649084508419,-0.002119160257279873
1783696337119912000,0.103911865234375,0.0013853631680831313,-0.006166461855173111,-0.003937533125281334
1783696337129875000,0.113875,0.000438609451521188,0.013750786893069744,0.0030498027335852385
1783696337139838000,0.123837890625,-0.00047236800310201943,0.006828790530562401,0.0007674627704545856
1783696337149802000,0.133802001953125,0.001523138489574194,-0.011857811361551285,-0.0024845232255756855
1783696337159765000,0.143764892578125,0.0015520956367254257,-0.006424298044294119,-0.0012959151063114405
1783696337169728000,0.15372802734375,0.002076738514006138,0.00913362205028534,0.0047081816010177135
1783696337179692000,0.163692138671875,-0.0008869211887940764,0.0002915792865678668,0.001231135567650199
1783696337189654800,0.17365478515625,-0.0004323196189943701,-0.008379140868782997,-0.00612424872815609
1783696337199617800,0.18361767578125,-0.0019321008585393429,0.0013539865612983704,-0.0005339503986760974
1783696337209580800,0.193580810546875,-0.00016163132386282086,0.006449678912758827,0.005956705659627914
1783696337219544800,0.203544921875,-0.00010407131776446477,-0.00320620508864522,0.003083517774939537
1783696337229507800,0.2135078125,-0.0022183547262102365,-0.003100211266428232,-0.005237262696027756
1783696337239470800,0.223470947265625,0.0003222089144401252,0.0027237730100750923,-0.0031664115376770496
1783696337249435000,0.233434814453125,-0.0013704962329939008,0.003321652766317129,0.003371116239577532
1783696337259398000,0.24339794921875,-0.0003057807916775346,-0.001579342526383698,0.0011417147470638156
1783696337269361000,0.25336083984375,-0.00012149002577643842,-0.002222229726612568,-0.004983555991202593
1783696337279324200,0.26332421875,-0.00049393973313272,0.0033473013900220394,-0.0021570506505668163
1783696337289288000,0.273287841796875,0.0003327054437249899,0.0021845654118806124,0.003014008980244398
1783696337299251000,0.2832509765625,0.0011840186780318618,-0.0031349053606390953,0.00012628646800294518
1783696337309214000,0.2932138671875,-0.0009576953598298132,-0.002169775776565075,-0.002715839073061943
1783696337319178000,0.303177978515625,0.0003018186835106462,0.0029257326386868954,-0.0001868782564997673
1783696337329141000,0.31314111328125,0.0004445641243364662,-0.000614939839579165,0.0011393759632483125
1783696337339104000,0.32310400390625,0.0003286205464974046,-0.0018544152844697237,-0.002344888634979725
1783696337349067000,0.33306689453125,-0.0010959042701870203,-0.0011840977240353823,-0.00013925868552178144
1783696337359031000,0.343031005859375,-0.00014459301019087434,-0.0024345035199075937,0.0018158303573727608
1783696337368994000,0.352994140625,-0.000025816014385782182,0.001035861554555595,0.0001438978943042457
1783696337378957000,0.36295703125,-0.0003553559654392302,0.0006619230844080448,-0.00319099728949368
1783696337388921000,0.372921142578125,0.0015815610531717539,-0.0015239993808791041,-0.0005038679810240865
1783696337398884000,0.382884033203125,0.0008084872388280928,0.00012496858835220337,0.00111383234616369
1783696337408846800,0.392846923828125,0.000558949017431587,0.0022136857733130455,-0.00011921115219593048
1783696337418811000,0.402810791015625,0.0002405089617241174,-0.0021042197477072477,-0.0013027938548475504
1783696337428774000,0.41277392578125,-0.000022078733309172094,0.00014535232912749052,-0.0017600585706532001
1783696337438737000,0.42273681640625,0.0006074383854866028,0.0009880990255624056,-0.0006643602391704917
1783696337448700000,0.432699951171875,0.000028733513318002224,-0.00021964439656585455,0.0014400696381926537
1783696337458664000,0.442663818359375,0.00027262495132163167,0.0004409421235322952,-0.0007937162881717086
1783696337468627000,0.452626953125,0.0009000657009892166,-0.001910629216581583,-0.0007026362000033259
1783696337478590000,0.46258984375,-0.00009574481373419985,-0.0022929362021386623,0.00025963730877265334
1783696337488554000,0.472553955078125,0.0007945499382913113,0.003176397643983364,0.00115099735558033
1783696337498517000,0.48251708984375,-0.000038882659282535315,0.00013109389692544937,-0.0023573318030685186
1783696337508479700,0.492479736328125,-0.002387790707871318,-0.003553922288119793,0.0005745422677136958
1783696337518442800,0.50244287109375,-0.0015232021687552333,0.002294410252943635,0.00002015708014369011
1783696337528406800,0.51240673828125,-0.00017084894352592528,-0.0009823432192206383,-0.000026714522391557693
1783696337538370300,0.522370361328125,-0.00040185562102124095,-0.0020542959682643414,-0.0016364140901714563
1783696337548333300,0.532333251953125,-0.0008772299042902887,0.0014714628923684359,-0.00012826593592762947
1783696337558297300,0.54229736328125,0.0024034492671489716,0.0013578783255070448,-0.00037590088322758675
1783696337568260400,0.55226025390625,0.0005986250471323729,-0.0007343010511249304,0.0012217294424772263
1783696337578223400,0.562223388671875,0.0002519801491871476,-0.00019568530842661858,-0.0009671279694885015
1783696337588186600,0.5721865234375,-0.00025828153593465686,-0.0007813145639374852,0.0011002839310094714
1783696337598150400,0.582150390625,8.018250809982419e-7,0.0005162579473108053,0.00041914929170161486
1783696337608113400,0.592113525390625,-0.0001781626051524654,0.0010395690333098173,0.0007927907863631845
1783696337618076700,0.60207666015625,0.00039243622450158,-0.0024121422320604324,0.002043031621724367
1783696337628040400,0.61204052734375,0.00038391415728256106,-0.0008462035330012441,-0.00009495392441749573
1783696337638003500,0.62200341796875,-0.0011341654462739825,0.0010000739712268114,0.0017141425050795078
1783696337647966500,0.631966552734375,-0.00010085893154609948,-0.0022662929259240627,0.001170058734714985
1783696337657929500,0.641929443359375,-0.0008786036632955074,0.000515072955749929,0.0008822804666124284
1783696337667893500,0.6518935546875,0.00003379530971869826,0.001711098593659699,0.0006396665121428668
1783696337677856500,0.6618564453125,-0.0001437615428585559,-0.002175950910896063,0.00038447120459750295
1783696337687819500,0.671819580078125,-0.000687046442180872,-0.0007048206171020865,-0.00016920000780373812
1783696337697783600,0.681783447265625,-0.0004577099753078073,-0.0003315064823254943,-0.00005650403909385204
1783696337707746600,0.69174658203125,-0.0009711674647405744,-0.0011725329095497727,0.00001912971492856741
1783696337717709600,0.70170947265625,-0.0010838710004463792,0.0012883504386991262,-0.0011860299855470657
1783696337727672300,0.71167236328125,-0.0005839956575073302,0.000001244712620973587,-0.00021024781744927168
1783696337737636400,0.72163623046875,0.00046631996519863605,-0.0007230441551655531,-0.0010569591540843248
1783696337747599400,0.731599365234375,0.0004761736490763724,0.002433600602671504,-0.00048118375707417727
1783696337757562400,0.741562255859375,0.00005023783887736499,-0.0010765978367999196,0.0007361487951129675
1783696337767526400,0.7515263671875,-0.0010421908227726817,-0.0022380021400749683,-0.0021477884147316217
1783696337777489400,0.761489501953125,-0.0012820061529055238,0.0018742100801318884,0.0011152690276503563
1783696337787452400,0.771452392578125,0.0012954011326655746,-0.000227556680329144,0.0012548186350613832
1783696337797415400,0.78141552734375,-0.0003149722469970584,0.0009542404441162944,-0.000553723075427115
1783696337807379500,0.79137939453125,0.00013456935994327068,0.001565968501381576,0.0011933104833588004
1783696337817342500,0.801342529296875,0.000630971509963274,-0.0007115958724170923,0.00023877748753875494
1783696337827305500,0.811305419921875,-0.0016646733274683356,-0.0011113362852483988,0.0007548980647698045
1783696337837269500,0.82126953125,-0.0002530474157538265,0.0023203822784125805,-0.0014544413425028324
1783696337847232300,0.831232177734375,0.0012811997439712286,0.0000013016397133469582,-0.0006805267184972763
1783696337857195300,0.8411953125,0.000605166656896472,-0.00029490026645362377,-0.0006853605154901743
1783696337867158500,0.851158447265625,0.001678953063674271,0.0027261897921562195,0.001145030022598803
1783696337877122300,0.861122314453125,0.0005257731536403298,-0.0007636204827576876,0.0015008215559646487
1783696337887085300,0.871085205078125,0.001017392729409039,0.0009645046666264534,0.0014017520006746054
1783696337897048600,0.881048583984375,-0.0001613288332009688,0.0005653805565088987,0.00008517771493643522
1783696337907012400,0.891012451171875,-0.000617794634308666,-0.002828285563737154,0.001223945408128202
1783696337916975600,0.9009755859375,0.0008695977157913148,-0.0006887062918394804,-0.00039122358430176973
1783696337926938600,0.910938720703125,0.001054154708981514,0.0005960026755928993,-0.0003241118974983692
1783696337936901400,0.9209013671875,0.0021802489645779133,-0.0020010590087622404,0.000768574420362711
1783696337946865700,0.93086572265625,0.0000675633637001738,0.00032175006344914436,-0.0008303874637931585
1783696337956828400,0.940828369140625,0.0005439176457002759,0.002661193488165736,0.0006198170594871044
1783696337966791400,0.95079150390625,0.00034524581860750914,-0.0037005655467510223,-0.0006033728132024407
1783696337976755500,0.96075537109375,0.001043975935317576,0.00008532754145562649,-0.0015391828492283821
1783696337986718500,0.970718505859375,-0.0007009272812865674,0.0011511245975270867,-0.0011330507695674896
1783696337996681500,0.980681396484375,0.0019224357092753053,-0.001303008757531643,-0.001084666233509779
1783696338006644500,0.99064453125,-0.00011355101742083207,0.00020726979710161686,-0.0014468561857938766
1783696338016608500,1.0006083984375,0.0006034778198227286,0.0022920314222574234,0.00005521898856386542
1783696338026571500,1.010571533203125,0.0004181218391750008,-0.002219096990302205,-0.00037701206747442484
1783696338036534500,1.020534423828125,-0.0010116122430190444,0.0002912292256951332,-0.0009495064150542021
1783696338046498600,1.03049853515625,-0.0009676700574345887,0.00028590287547558546,0.001534956507384777
1783696338056461300,1.04046142578125,0.0019981430377811193,-0.0005502993008121848,-0.000867662369273603
1783696338066424300,1.05042431640625,0.0003464507171884179,0.001972246915102005,0.00006231351289898157
1783696338076387300,1.06038720703125,-0.0019057317404076457,-0.0013200658140704036,0.0008518333779647946
1783696338086351400,1.070351318359375,0.00021014967933297157,-0.0016630809986963868,-0.0010073194280266762
1783696338096314400,1.080314453125,-0.000376714626327157,0.0021964546758681536,-0.000253356178291142
1783696338106277400,1.09027734375,0.00009759436943568289,-0.00027149671223014593,-0.00006720121018588543
1783696338116240400,1.100240478515625,0.0016093859449028969,-0.002389334375038743,0.00009419734124094248
1783696338126204400,1.110204345703125,0.0004956519696861506,0.00197026040405035,-0.0006805162411183119
1783696338136167400,1.12016748046875,0.0006373207434080541,0.00026877596974372864,-0.0004701598081737757
1783696338146130700,1.130130615234375,0.0009329315507784486,0.0007007407257333398,-0.0001063719391822815
1783696338156094500,1.140094482421875,0.00032615786767564714,0.0027047297917306423,-0.00036874529905617237
1783696338166057500,1.150057373046875,-0.0007532213348895311,-0.0011800233041867614,0.00018412695499137044
1783696338176020500,1.1600205078125,0.0009260509395971894,0.0002218341687694192,-0.00018959958106279373
1783696338185983500,1.1699833984375,0.00018542585894465446,0.0014785798266530037,0.00036886526504531503
1783696338195947500,1.179947509765625,-0.0014148905174806714,-0.002734788926318288,-0.000489005702547729
1783696338205910500,1.18991064453125,0.0004919328493997455,0.001619745627976954,-0.0018187221139669418
1783696338215873500,1.19987353515625,0.0008559548878110945,0.0017811944708228111,0.00005684606730937958
1783696338225837600,1.209837646484375,-0.0006700364756397903,-0.001938176341354847,-0.0005841768579557538
1783696338235800600,1.219800537109375,0.0007656946545466781,-0.0002942585851997137,-0.0028411438688635826
1783696338245763600,1.229763671875,0.0010328097268939018,0.0025049899704754353,-0.0003598767798393965
1783696338255726300,1.239726318359375,0.000541446905117482,-0.0011584119638428092,0.0002467631711624563
1783696338265690400,1.2496904296875,-0.0007134345942176878,-0.0021461783908307552,-0.0003913302207365632
1783696338275653400,1.2596533203125,0.00047716835979372263,0.0012330240570008755,-0.00011065555736422539
1783696338285616400,1.269616455078125,0.0013352388050407171,-0.0008165446342900395,0.001008937368169427
1783696338295580400,1.279580322265625,0.0009868009947240353,0.0010262803407385945,-0.0005000324454158545
1783696338305543400,1.28954345703125,0.0006938533042557538,-0.00047148147132247686,0.0012376802042126656
1783696338315506400,1.29950634765625,0.0004163518897257745,-0.0025165225379168987,-0.0013453196734189987
1783696338325469400,1.309469482421875,0.0003955792635679245,0.0017735633300617337,-0.00019163836259394884
1783696338335433500,1.31943359375,-0.0010886644013226032,-0.0012492681853473186,0.0018364321440458298
1783696338345396500,1.329396484375,0.00048686168156564236,0.000445301178842783,-0.0016520426142960787
1783696338355359500,1.339359375,0.0002800737274810672,0.001889811479486525,-0.0016945000970736146
1783696338365323500,1.349323486328125,0.0000417208211729303,0.00006235030014067888,0.0011742571368813515
1783696338375286300,1.359286376953125,0.0015678498893976212,0.0008271888946183026,-0.0007036564638838172
1783696338385249300,1.369249267578125,-0.002369633875787258,0.0022575727198272943,-0.0003625055542215705
1783696338395212300,1.37921240234375,0.00023702692124061286,-0.0013727445621043444,-0.00022334768436849117
1783696338405176300,1.38917626953125,-0.0005901509430259466,-0.001213221112266183,-0.002129371976479888
1783696338415139300,1.399139404296875,-0.0010058400221168995,0.0031329633202403784,-0.0005830496083945036
1783696338425102600,1.4091025390625,-0.0001730696385493502,0.0009116206783801317,0.0017730488907545805
1783696338435066400,1.41906640625,0.001098856097087264,0.0015979172894731164,-0.001004361780360341
1783696338445029400,1.429029296875,-0.0005357922054827213,0.0018083070171996951,0.00026623241137713194
1783696338454992600,1.43899267578125,0.001153653021901846,-0.00028268410824239254,0.00038321857573464513
1783696338464955400,1.448955322265625,-0.0015878049889579415,0.00034289248287677765,-0.00036539603024721146
1783696338474919700,1.458919677734375,-0.000026221925509162247,0.000630996422842145,0.0018846923485398293
1783696338484882400,1.46888232421875,-0.0011902896221727133,-0.002367989160120487,-0.0016463928623124957
1783696338494845400,1.478845458984375,-0.00037952911225147545,-0.0005923031130805612,0.0006711813621222973
1783696338504809500,1.4888095703125,0.001134744263254106,0.0009089207742363214,-0.0000574594596400857
1783696338514772500,1.4987724609375,-0.0007303161546587944,-0.0022487519308924675,0.00007089541759341955
1783696338524735500,1.508735595703125,0.0003357472305651754,-0.0004950604634359479,0.0005414759507402778
1783696338534698500,1.518698486328125,-0.0012143183266744018,0.000975290487986058,0.0009386081364937127
1783696338544662000,1.528662109375,-0.00088754843454808,-0.002117172349244356,-0.00036021554842591286
1783696338554625000,1.538625,0.0010680536506697536,0.0008714388241060078,-0.0016271453350782394
1783696338564588000,1.548588134765625,0.001054737833328545,-0.00026013830211013556,0.0011550589697435498
1783696338574551000,1.558551025390625,0.00035597645910456777,-0.0007659535622224212,0.0012935438426211476
1783696338584515000,1.56851513671875,0.0013719724956899881,0.0019480737391859293,-0.001680940855294466
1783696338594478000,1.57847802734375,0.0005207128706388175,-0.000045855529606342316,-0.0006991202244535089
1783696338604441000,1.588441162109375,-0.0011008859146386385,-0.0019044755026698112,-0.0013633125927299261
1783696338614405000,1.598405029296875,0.00198921887204051,0.001990326913073659,-0.0007682753494009376
1783696338624367900,1.608367919921875,0.0008035795763134956,-0.0005956024397164583,-0.00023537676315754652
1783696338634331000,1.618330810546875,0.00023349816910922527,-0.001151008065789938,-0.002221775474026799
1783696338644294100,1.628294189453125,-0.0021873153746128082,0.0011941714910790324,-0.0002957774559035897
1783696338654258000,1.6382578125,-0.0003440743312239647,-0.0008204359328374267,0.00018769130110740662
1783696338664221000,1.648220947265625,-0.0006146514788269997,-0.0017658582655712962,-0.0015657339245080948
1783696338674184200,1.65818408203125,-0.0005904900608584285,0.001393031096085906,-0.0003331319894641638
1783696338684148000,1.66814794921875,0.0011173950042575598,-0.0018147464143112302,0.0012892656959593296
1783696338694111200,1.678111328125,-0.0010719501879066229,-0.002484098542481661,-0.0009917368879541755
1783696338704074200,1.68807421875,-0.000510555924847722,0.0020688415970653296,0.000687652500346303
1783696338714037200,1.698037353515625,-0.000050122078391723335,-0.0002730775158852339,-0.000019557657651603222
1783696338724001300,1.708001220703125,-0.00042669306276366115,-0.0014206335181370378,-0.000706386985257268
1783696338733964000,1.717964111328125,0.00003574231232050806,0.0013316511176526546,-0.002268241485580802
1783696338743927000,1.727927001953125,-0.00006678938370896503,-0.0005642531905323267,-0.0005100226262584329
1783696338753891000,1.73789111328125,0.000776359811425209,-0.0010129502043128014,-0.0013836288126185536
1783696338763854000,1.74785400390625,-0.00036027736496180296,0.001653939252719283,-0.0012326276628300548
1783696338773817000,1.757817138671875,-0.0004052066651638597,-0.0019214580534026027,-0.0015387525781989098
1783696338783780000,1.767780029296875,-0.0002030727337114513,-0.001427707844413817,-0.0009858803823590279
1783696338793744100,1.777744140625,-0.0001696834369795397,0.0010664453729987144,-0.00014813418965786695
1783696338803707100,1.78770703125,0.00018824540893547237,-0.0009514318080618978,0.00037357909604907036
1783696338813670100,1.797670166015625,-0.00044747634092345834,0.0008110782946459949,-0.0006425470346584916
1783696338823634200,1.80763427734375,0.0005783733213320374,0.0010070869466289878,0.0012070182710886002
1783696338833597200,1.81759716796875,0.00045425069401971996,-0.0014631419908255339,-0.0008733726572245359
1783696338843560000,1.827559814453125,0.0006055182311683893,0.0016484953230246902,-0.0006494008703157306
1783696338853523000,1.83752294921875,-0.0008375301258638501,-0.0003858532290905714,0.0006329746101982892
1783696338863487000,1.847487060546875,0.0016155075281858444,-0.0028455485589802265,-0.0010655894875526428
1783696338873450000,1.857449951171875,0.0007015505689196289,0.0007277969853021204,0.0008292242418974638
1783696338883413000,1.8674130859375,-0.0008971450151875615,0.00030302279628813267,-0.000013399869203567505
1783696338893377000,1.877376953125,-0.0011896979995071888,-0.001396994455717504,0.0018619176698848605
1783696338903340000,1.887340087890625,0.000046275119530037045,0.0005572331137955189,0.0010962588712573051
1783696338913303000,1.897302978515625,-0.00021251451107673347,-0.00004702829755842686,0.0015733448090031743
1783696338923266000,1.90726611328125,0.00039388728328049183,-0.0026255007833242416,-0.000010703341104090214
1783696338933230000,1.91722998046875,0.00200845580548048,0.00028591661248356104,-0.0008698056917637587
1783696338943192800,1.92719287109375,0.00037434027763083577,-0.0007007844978943467,0.0003395357052795589
1783696338953156000,1.937156005859375,0.0019995607435703278,-0.0012670961441472173,-0.0006015421822667122
1783696338963119000,1.947119140625,-0.0002694524300750345,0.0015225650276988745,-0.0002385533880442381
1783696338973083100,1.957083251953125,0.0006769670872017741,-0.0012125219218432903,0.0009118948364630342
1783696338983046100,1.967046142578125,-0.0005129333585500717,-0.0008079877588897943,-0.00011129165068268776
1783696338993009200,1.977009033203125,0.00004774081753566861,0.0008805477991700172,0.0013295497046783566
1783696339002973200,1.98697314453125,-0.0007240432314574718,-0.0019306848989799619,0.0004243412986397743
1783696339012936200,1.996936279296875,-0.0021594446152448654,-0.0008415114134550095,-0.0009769314201548696
1783696339022899200,2.006899169921875,0.0010177064687013626,0.0021561426110565662,-0.0020592398941516876
1783696339032862200,2.0168623046875,-0.0005067741149105132,0.00007867580279707909,-0.00022300472483038902
1783696339042826200,2.026826171875,-0.0008420661324635148,0.00015191268175840378,-0.0017974656075239182
1783696339052789000,2.0367890625,0.0022330889478325844,-0.0008470835164189339,0.00042924965964630246
1783696339062752000,2.046751953125,-0.00039971215301193297,-0.002677474170923233,0.00030621158657595515
1783696339072716000,2.056716064453125,0.00035090738674625754,-0.00026456883642822504,-0.00048164394684135914
1783696339082679000,2.066678955078125,-0.0005535021191462874,0.002288070973008871,0.0014299730537459254
1783696339092642000,2.07664208984375,0.0014791879802942276,-0.0018849705811589956,-0.0011281159240752459
1783696339102605000,2.08660498046875,0.0012006214819848537,0.0003683300456032157,-0.0004056004108861089
1783696339112569000,2.096569091796875,0.0005069093313068151,-0.00036820268724113703,0.00009943521581590176
1783696339122532000,2.106531982421875,-0.00009895981929730624,-0.0010568961733952165,-0.001244662213139236
1783696339132495000,2.1164951171875,-0.00045667384983971715,0.0018189363181591034,0.0002760010538622737
1783696339142459100,2.126459228515625,-0.0007677310495637357,-0.0005885612918063998,0.0006834646337665617
1783696339152422100,2.136422119140625,0.00009056967974174768,0.00022027210798114538,0.00014842278324067593
1783696339162385000,2.146385009765625,0.0005478344392031431,0.001552118919789791,-0.0008380119688808918
1783696339172348000,2.156347900390625,-0.0014303848147392273,-0.0001981633249670267,0.0010540701914578676
1783696339182312000,2.16631201171875,-0.0011696614092215896,-0.0013616984942927957,-0.00036246515810489655
1783696339192275000,2.17627490234375,0.0013658684911206365,0.0013678278774023056,-0.0004911264404654503
1783696339202238200,2.18623828125,-0.00002589949144748971,0.0002698065945878625,0.001339796814136207
1783696339212201200,2.196201171875,-0.00031926477095112205,0.00014129967894405127,-0.0003439931897446513
1783696339222165000,2.2061650390625,0.00041044133831746876,0.002314705401659012,0.0009793315548449755
1783696339232128300,2.216128173828125,-0.0018862278666347265,-0.00013968953862786293,0.0005274760187603533
1783696339242091300,2.22609130859375,0.002426228718832135,-0.0003977498272433877,-0.00014443951658904552
1783696339252055300,2.23605517578125,0.000847748713567853,0.0017052965704351664,0.0012157695600762963
1783696339262018000,2.24601806640625,-0.0007879647891968489,-0.001389562850818038,0.0007632984779775143
1783696339271981000,2.25598095703125,-0.0011509406613186002,-0.0015904788160696626,-0.0014063363196328282
1783696339281944000,2.265944091796875,-0.0010140541708096862,0.0009275400661863387,0.0007713304366916418
1783696339291908000,2.275908203125,-0.0003521575126796961,-0.0009415749227628112,0.0022865752689540386
1783696339301871000,2.28587109375,0.0007093785097822547,-0.00027711631264537573,-0.001967025687918067
1783696339311834000,2.295834228515625,0.0004734769172500819,0.000686570187099278,-0.00020081200636923313
1783696339321798100,2.305798095703125,0.0005610949592664838,-0.002453296445310116,0.0007283649174496531
1783696339331761200,2.31576123046875,-0.00021634221775457263,0.00033711374271661043,0.00004480720963329077
1783696339341724200,2.32572412109375,-0.0008317987085320055,-0.000011760275810956955,0.0007380280876532197
1783696339351687000,2.33568701171875,-0.00006490292435046285,-0.0017050155438482761,-0.0004668993642553687
1783696339361651200,2.345651123046875,0.0013593556359410286,-0.0009063335601240396,-0.002152680419385433
1783696339371614000,2.355614013671875,0.0009123003692366183,0.001974223181605339,0.0018287462880834937
1783696339381577000,2.365576904296875,0.00008538890688214451,-0.0005938630783930421,0.0008851883467286825
1783696339391540000,2.3755400390625,0.00016211641195695847,-0.0009027136256918311,-0.00014485185965895653
1783696339401504000,2.38550390625,-0.00034921051701530814,0.0008400588994845748,0.0007688786718063056
1783696339411467000,2.395467041015625,0.00008362364314962178,-0.0021330774761736393,0.00021205830853432417
1783696339421430000,2.405429931640625,0.0008114656084217131,0.0029932414181530476,0.0005516113596968353
1783696339431394000,2.41539404296875,0.001787556684575975,0.0011221516178920865,0.0002400960074737668
1783696339441357000,2.425357177734375,0.000838139676488936,-0.002131432294845581,-0.00030425412114709616
1783696339451320000,2.435320068359375,0.0003357066889293492,0.001284663681872189,-0.00141129398252815
1783696339461283000,2.445282958984375,-0.0003790857153944671,0.001094247680157423,0.0015027369372546673
1783696339471246800,2.455246826171875,-0.0006391329225152731,-0.0011145254829898477,-0.00002159725409001112
1783696339481210000,2.465210205078125,0.0003451714292168617,0.0006937608122825623,-0.001155305071733892
1783696339491173000,2.475173095703125,0.00016411588876508176,-0.0008193418616428971,0.0022983956150710583
1783696339501137000,2.485136962890625,-0.0018729360308498144,-0.0004012257559224963,-0.00025903782807290554
1783696339511100200,2.49510009765625,0.0005522858700715005,0.0012937120627611876,-0.00037651974707841873
1783696339521063200,2.505063232421875,0.00042631838005036116,-0.0007244313601404428,0.001167048467323184
1783696339531026200,2.515026123046875,0.0000046053173718973994,0.00032728712540119886,-0.0009734458290040493
1783696339540989700,2.52498974609375,0.0009076832211576402,0.001705206697806716,-0.0008765067905187607
1783696339550952700,2.53495263671875,0.000880085164681077,0.0005328514380380511,-0.0021273752208799124
1783696339560915500,2.54491552734375,-0.00017612446390558034,0.0001429646508768201,-0.000103372847661376
1783696339570879500,2.55487939453125,0.0005411107558757067,0.0014718432212248445,-0.0017477960791438818
1783696339580842500,2.564842529296875,0.0010023702634498477,-0.0018110353266820312,-0.0003853229572996497
1783696339590805500,2.574805419921875,-0.0006742827827110887,-8.520437404513359e-7,-0.0012872307561337948
1783696339600768500,2.5847685546875,-0.0007709555211476982,0.0016023708740249276,-0.00040998542681336403
1783696339610732500,2.594732666015625,-0.0010337497806176543,-0.001256535411812365,0.0003278503427281976
1783696339620695600,2.604695556640625,-0.00011948656174354255,0.00006891984958201647,-0.000935819698497653
1783696339630658600,2.614658447265625,0.0010673435172066092,0.0013005834771320224,0.001249458990059793
1783696339640621600,2.62462158203125,0.00037731838528998196,-0.0015782936243340373,0.00044252118095755577
1783696339650585600,2.634585693359375,0.00016727593902032822,0.0004299305146560073,0.00031157012563198805
1783696339660548600,2.644548583984375,-0.000631406088359654,-0.0013123094104230404,0.0003419301938265562
1783696339670511400,2.654511474609375,-0.00006291084719123319,-0.003034478984773159,0.0009285878040827811
1783696339680475400,2.664475341796875,0.0014870489249005914,0.0006729075685143471,0.0019227458396926522
1783696339690438400,2.6744384765625,-0.001393771730363369,0.0014007542049512267,-0.00023727561347186565
1783696339700401700,2.684401611328125,-0.00040573900332674384,-0.001133243553340435,0.00010014686267822981
1783696339710364700,2.69436474609375,-0.0019438036251813173,0.0017605996690690517,0.0004792605177499354
1783696339720328400,2.704328369140625,0.0007454564329236746,0.00028281158301979303,0.00007765577174723148
1783696339730291700,2.714291748046875,0.00002834328915923834,-0.0010966522386297584,0.0005529823247343302
1783696339740254700,2.724254638671875,-0.000232912803767249,0.0009521175525151193,0.0007982595125213265
1783696339750218800,2.73421875,0.0005175851983949542,0.00034085032530128956,0.0015153218992054462
1783696339760181800,2.744181640625,0.001299222931265831,-0.0006000444991514087,-0.0009773968486115336
1783696339770144500,2.75414453125,0.0003536270232871175,0.0021426347084343433,-0.0006329509196802974
1783696339780107500,2.764107421875,0.00015735205670353025,-0.0020079019013792276,-0.00030884426087141037
1783696339790071600,2.774071533203125,0.0005492902128025889,0.0005777775077149272,-0.0011213822290301323
1783696339800034600,2.78403466796875,0.0005122722941450775,0.0021043014712631702,-0.0001778242876753211
1783696339809997600,2.79399755859375,-0.0008625463815405965,-0.0005886281142011285,0.0014123547589406371
1783696339819961600,2.803961669921875,0.00031457081786356866,-0.0012962300097569823,-0.0005416064523160458
1783696339829924600,2.813924560546875,-0.0008154048700816929,0.0011347706895321608,0.0006065783090889454
1783696339839887600,2.8238876953125,-0.0013970392756164074,-0.0006607325049117208,0.002254276070743799
1783696339849850600,2.8338505859375,0.0006718504591844976,0.001091213896870613,-0.00019849382806569338
1783696339859814700,2.843814697265625,-0.00019767164485529065,0.0011873540934175253,0.0009868791094049811
1783696339869777700,2.853777587890625,0.0014495590003207326,-0.0041249156929552555,0.0021295149344950914
1783696339879740400,2.863740478515625,0.00025459867902100086,0.00007222616113722324,-0.0013211427722126245
1783696339889704400,2.873704345703125,0.00001911056460812688,0.0008696586010046303,0.0018890469800680876
1783696339899667500,2.88366748046875,-0.0004109899455215782,-0.0008483466226607561,-0.000801544520072639
1783696339909630500,2.89363037109375,-5.463807610794902e-7,0.0009565481450408697,0.000037049176171422005
1783696339919593500,2.903593505859375,0.00004446104867383838,0.0004689233610406518,-0.0006782758282497525
1783696339929557500,2.9135576171875,0.0003110159304924309,-0.0016333473613485694,-0.0000439636642113328
1783696339939520500,2.9235205078125,0.000769345962908119,0.0018753672484308481,-0.0009204100351780653
1783696339949483500,2.9334833984375,-0.0003701677778735757,0.00023419875651597977,-0.0002804624382406473
1783696339959447600,2.943447509765625,-0.00045379105722531676,-0.0017402688972651958,0.00025163718964904547
1783696339969410600,2.95341064453125,-0.000053897383622825146,0.0013276204699650407,0.0005293824360705912
1783696339979373600,2.96337353515625,0.000036650089896284044,0.0015646418323740363,0.0006364415166899562
1783696339989336600,2.973336669921875,0.0008973091607913375,-0.0011781457578763366,-0.0000869622454047203
1783696339999300400,2.98330029296875,0.00019503358635120094,0.0026027439162135124,0.0002683034399524331
1783696340009263600,2.993263671875,0.00018297033966518939,0.00024251826107501984,0.0008370121940970421
1783696340019226600,3.0032265625,-0.00024047227634582669,-0.0018941358430311084,0.0005219602026045322
1783696340029189600,3.013189697265625,0.00029101420659571886,0.00131147017236799,-0.00026416010223329067
1783696340039153700,3.023153564453125,-0.0004312350647523999,-0.0008137322729453444,0.0016557127237319946
1783696340049116700,3.03311669921875,-0.0004746602789964527,-0.0010205457219853997,0.00015719013754278421
1783696340059079700,3.04307958984375,0.00019645632710307837,0.001994951395317912,0.00006105005741119385
1783696340069043700,3.053043701171875,-0.00040821757283993065,-0.0006648963317275047,-0.0007926226826384664
1783696340079006700,3.0630068359375,0.00026982324197888374,-0.0025384300388395786,-0.001321526593528688
1783696340088969500,3.072969482421875,-0.00024017840041778982,0.0012270153965801,-0.0008090834598988295
1783696340098932500,3.082932373046875,0.000888469279743731,-0.0014926046133041382,-0.0011038952507078648
1783696340108896500,3.092896484375,-0.00024393523926846683,-0.0007315598195418715,-0.0003119235625490546
1783696340118859500,3.102859619140625,0.0009646072867326438,0.0022053741849958897,-0.00008954957593232393
1783696340128822500,3.112822509765625,-0.000009960494935512543,-0.00150840706191957,0.0004732753150165081
1783696340138786600,3.12278662109375,0.001497388700954616,0.0009622075012885034,-0.000871354597620666
1783696340148749600,3.13274951171875,-0.0018905438482761383,0.0031211457680910826,0.0013476395979523659
1783696340158712600,3.142712646484375,-0.00029477768111974,-0.002675224095582962,0.0007204650901257992
1783696340168675600,3.152675537109375,0.0006003286689519882,-0.000030982308089733124,-0.001482278690673411
1783696340178639600,3.1626396484375,0.000012568983947858214,0.00038180756382644176,-0.0005376554327085614
1783696340188602600,3.1726025390625,0.0004993741167709231,-0.0027016326785087585,0.00018016889225691557
1783696340198565400,3.1825654296875,0.0006695501506328583,0.00020733813289552927,-0.0011263780761510134
1783696340208529400,3.192529296875,0.0009596401359885931,0.0024191527627408504,0.0005446848226711154
1783696340218492400,3.202492431640625,0.0006360660772770643,-0.002514619380235672,-0.0014050154713913798
1783696340228455400,3.212455322265625,-0.000281811342574656,0.0007405000505968928,-0.0004349623341113329
1783696340238418700,3.222418701171875,0.00003057745925616473,-0.0003436728147789836,0.0018984994385391474
1783696340248382500,3.232382568359375,-0.0006465048645623028,-0.0013583205873146653,0.0007770489901304245
1783696340258345700,3.242345703125,-0.0001524884719401598,0.0016073756851255894,-0.0008075318764895201
1783696340268308700,3.252308837890625,0.0007098662317730486,0.0007043504156172276,0.0013800532324239612
1783696340278272500,3.2622724609375,0.0001090570876840502,-0.0018187284003943205,0.000969127519056201
1783696340288235800,3.27223583984375,0.0001971037418115884,0.0010208404855802655,-0.000012234784662723541
1783696340298198500,3.282198486328125,-0.0015712352469563484,-0.0004660023842006922,0.0020229527726769447
1783696340308161500,3.29216162109375,0.0022386955097317696,-0.0011849950533360243,0.0008919480023905635
1783696340318125600,3.30212548828125,0.0010780900483950973,0.0007729608914814889,0.0006085876957513392
1783696340328088600,3.312088623046875,-0.0003562813508324325,-0.0010697472607716918,0.0023209210485219955
1783696340338051600,3.322051513671875,-0.0007451028795912862,-0.0010641546687111259,0.00010703527368605137
1783696340348015600,3.332015625,-0.0010048382682725787,0.0010408253874629736,-0.0013161709066480398
1783696340357978600,3.341978515625,0.00024791265605017543,-0.00017863605171442032,0.0028119951020926237
1783696340367941600,3.351941650390625,0.0012035788968205452,-0.003896984038874507,-0.0005469314055517316
1783696340377904600,3.361904541015625,-0.0016388129442930222,0.002378488425165415,0.00017132319044321775
1783696340387868700,3.37186865234375,0.0016906075179576874,-0.001098533277399838,0.0008845517295412719
1783696340397831700,3.381831787109375,0.001201384817250073,-0.0010058552725240588,-0.0006259932415559888
1783696340407794400,3.39179443359375,-0.001150640076957643,0.0014626405900344253,0.0005563477170653641
1783696340417757400,3.40175732421875,0.0005801483057439327,-0.0010093055898323655,-0.0005760283675044775
1783696340427721500,3.411721435546875,-0.00019834263366647065,0.0013596172211691737,-0.0001019089249894023
1783696340437684500,3.4216845703125,-0.0004681208520196378,0.0020845297258347273,0.0017915985081344843
1783696340447647500,3.4316474609375,-0.0019073918228968978,-0.0009154904400929809,-0.0009566789958626032
1783696340457611500,3.441611572265625,0.000611692201346159,-0.0006648871349170804,-0.0016621502581983805
1783696340467574500,3.451574462890625,0.00014496591757051647,0.0018717063358053565,-0.00019713037181645632
1783696340477537500,3.46153759765625,0.0010096943005919456,-0.0012636331375688314,-0.000055716605857014656
1783696340487500500,3.47150048828125,-0.0004819591122213751,0.0007443042704835534,-0.00017589179333299398
1783696340497464600,3.481464599609375,-0.0008702479535713792,0.0010297951521351933,0.0013996342895552516
1783696340507427300,3.49142724609375,-0.00018522718164604157,-0.0006446273764595389,-0.0014888686127960682
1783696340517390600,3.501390625,0.00029360922053456306,0.000788685807492584,-0.0006853928789496422
1783696340527354400,3.511354248046875,-0.0006834020605310798,0.0010137101635336876,0.0016734248492866755
1783696340537318400,3.521318359375,0.0006127584492787719,-0.0008704762440174818,-0.0005423250840976834
1783696340547281400,3.531281494140625,-0.001323381788097322,0.0008979281410574913,-0.001446796115487814
1783696340557244400,3.541244384765625,0.0003437570994719863,-0.0002983637386932969,0.000573477940633893
1783696340567208400,3.55120849609375,-0.00004945402906741947,-0.0007675883825868368,-0.00010383129119873047
1783696340577171500,3.56117138671875,-0.0010862225899472833,0.0028447231743484735,-0.00002367014531046152
1783696340587134500,3.571134521484375,0.0011140203569084406,0.000016279052942991257,0.001381543232128024
1783696340597097500,3.581097412109375,0.0011113572400063276,-0.002363787963986397,-0.001240338897332549
1783696340607061500,3.5910615234375,-0.0001979430380742997,0.0032207530457526445,-0.0005601166049018502
1783696340617024500,3.6010244140625,0.002024464774876833,-0.0007161978865042329,0.0003695929190143943
1783696340626987500,3.610987548828125,0.0007028854452073574,-0.001467663561925292,-0.00043274147901684046
1783696340636951600,3.62095166015625,0.000331374496454373,0.0011294512078166008,-0.0003387319156900048
1783696340646914600,3.63091455078125,-0.0001480857899878174,-0.0013569191796705127,0.00044870219426229596
1783696340656877600,3.640877685546875,0.00184129539411515,-0.0010993914911523461,-0.001422434812411666
1783696340666840600,3.650840576171875,0.0017972949426621199,0.0009567913948558271,0.0012833457440137863
1783696340676804600,3.6608046875,-0.0006962227635085583,-0.002491203136742115,0.002169379498809576
1783696340686767400,3.670767333984375,-0.0011150846257805824,-0.0006271471502259374,-0.0007139658555388451
1783696340696730400,3.68073046875,0.001319310860708356,0.0028554685413837433,0.0024093894753605127
1783696340706694400,3.6906943359375,0.0007861006306484342,-0.001578279072418809,-0.00017779890913516283
1783696340716657400,3.700657470703125,-0.00149915786460042,0.00009125657379627228,0.0009431256330572069
1783696340726620400,3.710620361328125,0.00002728187246248126,0.0021599694155156612,0.00005586468614637852
1783696340736583400,3.72058349609375,0.002620135433971882,-0.0026297257281839848,0.0007821087492629886
1783696340746547500,3.73054736328125,0.0008629385847598314,0.0007757839630357921,-0.0008346198592334986
1783696340756510500,3.740510498046875,0.0005755835445597768,0.0015741996467113495,0.0008144094608724117
1783696340766473500,3.750473388671875,0.00018717718194238842,-0.000020280363969504833,0.00013398623559623957
1783696340776437500,3.7604375,0.0007717410335317254,0.000059614540077745914,-0.000323012238368392
1783696340786400500,3.770400390625,0.00008327339310199022,0.0012184381484985352,0.000702890451066196
1783696340796363300,3.78036328125,0.000642004597466439,0.00030310964211821556,-0.00022655283100903034
1783696340806326300,3.790326171875,-0.000006569811375811696,0.0007475314196199179,-0.0007101752562448382
1783696340816290300,3.800290283203125,-0.00029019644716754556,0.0009563232306391001,0.00012712250463664532
1783696340826253300,3.81025341796875,0.000691693217959255,-0.0016841926844790578,0.0010425011860206723
1783696340836216600,3.820216552734375,-0.0011195226106792688,0.0017254524864256382,-0.0026856581680476665
1783696340846179600,3.8301796875,-0.0020293781999498606,0.00036364165134727955,0.0017216374399140477
1783696340856143400,3.840143310546875,0.0003128719690721482,-0.0016486428212374449,-0.0005532348295673728
1783696340866106600,3.850106689453125,0.0003282869001850486,0.0032943147234618664,-0.00040795968379825354
1783696340876069600,3.860069580078125,0.00042922067223116755,-0.0008511618943884969,0.0005688878009095788
1783696340886033400,3.870033447265625,0.0012211387511342764,-0.001907243044115603,-0.0012046373449265957
1783696340895996400,3.879996337890625,0.00026000395882874727,0.0010198371019214392,0.0008041851688176394
1783696340905959400,3.88995947265625,0.0014097890816628933,-0.0012502209283411503,-0.0005856493953615427
1783696340915922400,3.89992236328125,-0.0010357918217778206,-0.0005045358557254076,-0.0017430592561140656
1783696340925886500,3.909886474609375,0.0002717186289373785,0.0011077444069087505,-0.0025420235469937325
1783696340935849500,3.919849365234375,-0.0019365744665265083,-0.0008608641801401973,0.0010700217681005597
1783696340945812500,3.9298125,0.0012162146158516407,-0.000358166522346437,-0.0008946959860622883
1783696340955776500,3.939776611328125,0.00007318585994653404,0.0016871411353349686,-0.0009157350286841393
1783696340965739500,3.949739501953125,-0.0006708460859954357,-0.0011574944946914911,-0.0011656018905341625
1783696340975702500,3.95970263671875,-0.0001589865132700652,-0.0010062269866466522,-0.0009432279039174318
1783696340985665500,3.96966552734375,0.00146326026879251,0.002967589069157839,0.0007492414442822337
1783696340995629600,3.979629638671875,0.0007809585076756775,-0.0031526214443147182,0.000523938040714711
1783696341005592300,3.98959228515625,-0.0005559766432270408,-0.0009170826524496078,0.0006271593738347292
1783696341015555300,3.999555419921875,0.0007356565329246223,0.0011737651657313108,0.0005392750608734787
1783696341025519400,4.009519287109375,-0.0006007462507113814,-0.0005356657784432173,-0.000145273981615901
1783696341035482400,4.019482421875,0.00037104127113707364,0.0014457260258495808,-0.00015512772370129824
1783696341045445400,4.0294453125,-0.00033302680822089314,0.0022264723666012287,0.0005849551525898278
1783696341055408400,4.039408447265625,0.0003290350432507694,-0.0005333615699782968,-0.0000811014324426651
1783696341065372400,4.049372314453125,-0.0010384435299783945,0.0014536428498104215,-0.00020227173808962107
1783696341075335400,4.05933544921875,0.001268652849830687,0.0009114232379943132,0.0008459484670311213
1783696341085298400,4.06929833984375,-0.00044801807962358,-0.0022515924647450447,-0.0009368007304146886
1783696341095262500,4.079262451171875,0.00018554792040959,0.0015431457431986928,-0.0004076305776834488
1783696341105225500,4.0892255859375,0.0005854576593264937,0.0010828280355781317,0.00015902321320027113
1783696341115188500,4.0991884765625,-0.0009820789564400911,-0.00173745967913419,0.00044611195335164666
1783696341125151500,4.1091513671875,-0.00022775022080168128,0.0029557766392827034,-0.00018011883366853
1783696341135115300,4.119115234375,0.0001605386787559837,-0.0014757233439013362,-0.0005196718266233802
1783696341145078500,4.12907861328125,-0.0027057884726673365,-0.001243164180777967,-0.0010295845568180084
1783696341155041500,4.13904150390625,-0.0005989616620354354,0.0017675393028184772,-0.0009472928941249847
1783696341165005600,4.149005615234375,0.0005813377210870385,-0.0017904158448800445,0.0016878721071407199
1783696341174968600,4.158968505859375,0.0007848032400943339,-0.001010376145131886,0.00031847471836954355
1783696341184931600,4.168931640625,-0.00029249509680084884,0.0005328708793967962,0.0006028719944879413
1783696341194894600,4.17889453125,0.00029126982553862035,0.0001381904585286975,0.000867057591676712
1783696341204858600,4.188858642578125,0.0007115717744454741,-0.0006654784083366394,-0.0008068326860666275
1783696341214821400,4.1988212890625,0.001538216951303184,0.0021734514739364386,-0.0009168214164674282
1783696341224784400,4.208784423828125,0.00040272297337651253,-0.00020103075075894594,-0.0003849995555356145
1783696341234748400,4.21874853515625,-0.00023643567692488432,-0.0009123611962422729,-0.00006515393033623695
1783696341244711400,4.22871142578125,-0.0006450733635574579,0.0011409204453229904,-0.0018589521059766412
1783696341254674400,4.23867431640625,-0.00003760636900551617,-0.0003011812223121524,0.00020819349447265267
1783696341264637400,4.248637451171875,0.0011504817521199584,0.0008218336733989418,-0.000010097282938659191
1783696341274601500,4.2586015625,0.0014309126418083906,0.0019041423220187426,0.00013105024117976427
1783696341284564500,4.268564453125,-0.0014082181733101606,-0.0002872304758056998,0.0005791392759419978
1783696341294527500,4.278527587890625,0.0011912933550775051,0.0002896101213991642,-0.0003481734311208129
1783696341304490200,4.288490234375,-0.0000033206306397914886,0.0002805376425385475,-0.0003303593257442117
1783696341314454500,4.29845458984375,-0.0007114551262930036,-0.0017599762650206685,0.00045793631579726934
1783696341324417300,4.308417236328125,0.00003761379048228264,-0.0008320106426253915,-0.0021622967906296253
1783696341334380300,4.31838037109375,0.0007385577773675323,-0.00047701119910925627,-0.0003702559042721987
1783696341344344300,4.32834423828125,-0.0002855414350051433,-0.0027997097931802273,-0.000851338729262352
1783696341354307300,4.338307373046875,0.0004340446612332016,-0.00011364556849002838,-0.0008196469862014055
1783696341364270300,4.348270263671875,0.0010149903828278184,0.0006272586761042476,-0.00020861963275820017
1783696341374233600,4.358233642578125,0.0000666387495584786,-0.0008795579196885228,-0.00015375856310129166
1783696341384197400,4.368197265625,0.0003179264022037387,0.0012795865768566728,0.0009801617125049233
1783696341394160400,4.378160400390625,-0.0009832940995693207,0.0009847746696323156,0.0018350363243371248
1783696341404123600,4.38812353515625,0.00021641358034685254,-0.0023684126790612936,-0.00019960501231253147
1783696341414087400,4.39808740234375,-0.000543918926268816,0.0018721387023106217,-0.0011769852135330439
1783696341424050400,4.408050537109375,-0.0018288984429091215,-0.001074240542948246,0.0011094609508290887
1783696341434013400,4.418013427734375,0.00046434951946139336,-0.0013765092007815838,0.0008250353275798261
1783696341443976400,4.4279765625,0.0005374496104195714,0.0026483158580958843,0.0002716254675760865
1783696341453940500,4.4379404296875,-0.00013925960229244083,0.0008709222311154008,-0.00009908655192703009
1783696341463903500,4.447903564453125,-0.0002879532112274319,-0.003000630997121334,-0.00015582377091050148
1783696341473866500,4.457866455078125,-0.0010498835472390056,0.0026631136424839497,-0.00012253422755748034
1783696341483830500,4.46783056640625,-0.0004160883545409888,0.00008698191959410906,0.0011215992271900177
1783696341493793500,4.47779345703125,-0.0013508578995242715,-0.0023719146847724915,-0.00011943385470658541
1783696341503756500,4.487756591796875,-0.0002493926731403917,0.0005716658197343349,-0.0007905989186838269
1783696341513719600,4.497719482421875,-0.0003889423096552491,-0.0011189087526872754,0.0004102203529328108
1783696341523683600,4.50768359375,0.00031452273833565414,-0.000007240218110382557,-0.00046223634853959084
1783696341533646300,4.517646240234375,-0.00042796655907295644,0.0010521651711314917,0.00037080043694004416
1783696341543609000,4.527609130859375,-0.000606718473136425,-0.0011133728548884392,0.001323028700426221
1783696341553573000,4.537572998046875,0.0007379115559160709,0.0007167513249441981,-0.0024378872476518154
1783696341563536100,4.5475361328125,0.00021872762590646744,0.001270180568099022,-0.00021093396935611963
1783696341573499100,4.5574990234375,-0.00047529215225949883,-0.004206609912216663,-0.0007707304321229458
1783696341583462100,4.567462158203125,-0.002674802439287305,0.00015659688506275415,0.0007795376004651189
1783696341593426200,4.57742626953125,0.0010767923668026924,0.002244515111669898,0.0010045747039839625
1783696341603389200,4.58738916015625,-0.0018452752847224474,-0.002942360006272793,-0.0007510569412261248
1783696341613352200,4.597352294921875,0.00029936834471300244,0.0009256152552552521,-0.0004173627821728587
1783696341623316200,4.607316162109375,0.0005225333152338862,0.00027622259221971035,0.003610796993598342
1783696341633279200,4.617279296875,0.0005486323498189449,-0.0005131384823471308,0.000001148437149822712
1783696341643242200,4.6272421875,-0.0011812271550297737,0.0010559342335909605,-0.001267413841560483
1783696341653205200,4.637205322265625,0.0008720700279809535,0.0008721760823391378,0.0019195908680558205
1783696341663169000,4.6471689453125,0.0005072795902378857,-0.0020557777024805546,-0.0003714031772688031
1783696341673132300,4.65713232421875,-0.00010924220259767026,0.0027360478416085243,-0.002614583820104599
1783696341683095300,4.66709521484375,0.0010800242889672518,0.0007126253331080079,0.00010494678281247616
1783696341693059300,4.677059326171875,0.0003125012153759599,-0.0018312260508537292,-0.0002950599882751703
1783696341703022300,4.687022216796875,-0.0005698555614799261,0.002702145604416728,-0.0006548423552885652
1783696341712985300,4.6969853515625,-0.0019275351660326123,0.000938067736569792,0.0017393394373357296
1783696341722948400,4.7069482421875,0.00043905407073907554,-0.0010646512964740396,0.0008088103495538235
1783696341732912400,4.716912353515625,0.00004197674570605159,0.003331162501126528,-0.0005536628887057304
1783696341742875400,4.72687548828125,0.0008312688441947103,-0.0012741776881739497,-0.0014091399498283863
1783696341752838100,4.736838134765625,-0.0011916683288291097,-0.0011932175839319825,-0.0010634614154696465
1783696341762801200,4.74680126953125,0.001766500878147781,0.002292191842570901,0.00042916613165289164
1783696341772765200,4.75676513671875,0.00010681894491426647,-0.001860741525888443,-0.000944758765399456
1783696341782728200,4.766728271484375,0.0012024019379168749,-0.00045964319724589586,-0.0014473148621618748
1783696341792691200,4.776691162109375,-0.000052213348681107163,0.0018498501740396023,0.0009220995707437396
1783696341802655200,4.7866552734375,0.0007975368062034249,-0.0015684528043493629,0.000048638670705258846
1783696341812618200,4.7966181640625,-0.00069862708915025,0.0006523572374135256,0.0014015245251357555
1783696341822581200,4.806581298828125,0.0007521477527916431,0.0026767768431454897,0.0012969702947884798
1783696341832544300,4.816544189453125,0.0011460292153060436,-0.0027683223597705364,0.00019415526185184717
1783696341842508300,4.82650830078125,-0.0009821481071412563,0.0007648885366506875,-0.0012402782449498773
1783696341852471300,4.83647119140625,0.0002141438890248537,0.002058119513094425,0.0010162179823964834
1783696341862434000,4.84643408203125,-0.0011196680134162307,0.0007213962962850928,0.0012600502232089639
1783696341872398000,4.856398193359375,0.00139329070225358,-0.0007356191053986549,-0.0006728720618411899
1783696341882361000,4.866361083984375,0.0014578672125935555,0.0013288345653563738,0.0011760344495996833
1783696341892324000,4.876323974609375,0.0005918071838095784,-0.0023601760622113943,-0.0008349185809493065
1783696341902287400,4.886287353515625,-0.0005174067337065935,0.000645554275251925,-0.0010002219351008534
1783696341912251100,4.896251220703125,0.00042402069084346294,0.00011372100561857224,0.0011476175859570503
1783696341922214100,4.906214111328125,-0.0009961671894416213,-0.0016340619185939431,0.0003686515847221017
1783696341932177400,4.916177490234375,0.0003713660698849708,0.00043521414045244455,-0.0003613209119066596
1783696341942140400,4.926140380859375,0.0005056444788351655,-0.0011558582773432136,0.002718801610171795
1783696341952104400,4.9361044921875,-0.0005308578256517649,-0.0015228419797495008,-0.0000852406956255436
1783696341962067200,4.946067138671875,-0.0011553560616448522,0.0007307077758014202,0.000010761548765003681
1783696341972030200,4.9560302734375,-0.0011689381208270788,-0.0002565260510891676,0.0024622012861073017
1783696341981994200,4.965994140625,0.0005426934221759439,-0.0021619140170514584,-0.000432504341006279
1783696341991957200,4.975957275390625,-0.002768947510048747,-0.0022990666329860687,0.0010804374469444156
1783696342001920300,4.985920166015625,-0.002853010082617402,-0.002869913587346673,0.00019877112936228514
1783696342011883300,4.99588330078125,-0.0009690898004919291,-0.003175644436851144,0.0016611128812655807
1783696342021847300,5.005847412109375,-0.0010381740285083652,-0.0013276594690978527,0.0020317276939749718
1783696342031810300,5.015810302734375,-0.00075508002191782,0.00015385693404823542,-0.0007723146118223667
1783696342041773300,5.025773193359375,0.0007968856953084469,0.00005048932507634163,0.0000019046710804104805
1783696342051737300,5.0357373046875,0.0002000712265726179,0.00150324369315058,0.00013346481136977673
1783696342061700400,5.045700439453125,-0.0006279348162934184,0.0009645079844631255,-0.0013663721038028598
1783696342071663000,5.0556630859375,-0.00011474371422082186,0.0020649260841310024,-0.0011091107735410333
1783696342081626000,5.065626220703125,0.0014832669403403997,0.003615735564380884,-0.0010951092699542642
1783696342091590100,5.075590087890625,-0.0007625768193975091,-0.0018733058823272586,0.0012442113365978003
1783696342101553200,5.08555322265625,0.00023296120343729854,0.001854008063673973,-0.0006607504328712821
1783696342111516200,5.09551611328125,0.0005477468948811293,0.00509827071800828,-0.001011222368106246
1783696342121480200,5.105480224609375,0.001058272086083889,-0.0005358413327485323,0.00023730203974992037
1783696342131443200,5.115443115234375,0.0010771804954856634,0.0009174457518383861,-0.0016508791595697403
1783696342141406200,5.12540625,0.0012293660547584295,0.0040428536012768745,-0.0013062945799902081
1783696342151369200,5.135369140625,0.002008074428886175,0.000488598714582622,-0.0007190675241872668
1783696342161333200,5.145333251953125,0.0002749375125858933,-0.00042716204188764095,-0.0007990235462784767
1783696342171296000,5.1552958984375,0.0017679056618362665,0.0028794186655431986,0.0005964728770777583
1783696342181259300,5.16525927734375,0.0015538337174803019,0.00011619261931627989,0.00015323294792324305
1783696342191223000,5.17522314453125,0.0022212218027561903,0.002552718622609973,-0.00151630281470716
1783696342201186300,5.185186279296875,0.0004939506761729717,0.0003096552100032568,-0.0013798688305541873
1783696342211149300,5.1951494140625,0.0010252512292936444,0.0003410804783925414,-0.0009396482491865754
1783696342221112300,5.2051123046875,0.00010578081128187478,0.003593537723645568,-0.0023705640342086554
1783696342231076400,5.215076416015625,0.000509516044985503,0.0015309194568544626,0.00013333989772945642
1783696342241039400,5.225039306640625,0.0005286047817207873,-0.0013991388259455562,0.0009836169192567468
1783696342251002400,5.23500244140625,-0.001611777814105153,0.0004134085029363632,-0.00011333916336297989
1783696342260965400,5.24496533203125,-0.00034218767541460693,-0.0001264041056856513,0.0006213077576830983
1783696342270929400,5.254929443359375,0.0011161593720316887,-0.0027994189877063036,-0.00030600500758737326
1783696342280892200,5.26489208984375,-0.0017269719392061234,0.000909020600374788,0.0015789206372573972
1783696342290855200,5.274855224609375,-0.0007208297029137611,-0.0010627837618812919,0.0013682646676898003
1783696342300819200,5.284819091796875,-0.0017533464124426246,-0.002153727225959301,0.0010540684452280402
1783696342310782200,5.2947822265625,0.00041926041012629867,-0.0004399829776957631,0.0008916156366467476
1783696342320745200,5.3047451171875,-0.001860154909081757,-0.0030491501092910767,0.001471117022447288
1783696342330708200,5.314708251953125,0.000934033771045506,0.0002768720733001828,0.000013302662409842014
1783696342342540300,5.326540283203125,0.0014883377589285374,0.000873846816830337,0.0010672173229977489
1783696342352503300,5.33650341796875,-0.00014750073023606092,-0.002444049809128046,-0.0007844334468245506
1783696342362466300,5.34646630859375,-0.00009024275641422719,0.0007773098768666387,-0.0015290533192455769
1783696342372430300,5.356430419921875,-0.0008800856303423643,0.002688257023692131,0.0005995223764330149
1783696342382393000,5.36639306640625,-0.000751454965211451,-0.0009445610921829939,-0.0005280600162222981
1783696342392356000,5.376356201171875,0.0008730997215025127,-0.00006309791933745146,0.00022681185510009527
1783696342402319000,5.386319091796875,0.000460576091427356,0.0021358742378652096,-0.00023125193547457457
1783696342412283100,5.396283203125,0.001429610070772469,-0.0016859257593750954,0.0001944276737049222
1783696342422246100,5.40624609375,-0.0010529885767027736,0.0000717604998499155,0.0010229370091110468
1783696342432209200,5.416209228515625,-0.0004029721603728831,0.0008967956528067589,-0.0008278266759589314
1783696342442173200,5.426173095703125,-0.00048792699817568064,0.00002407771535217762,-0.0004680334823206067
1783696342452136200,5.43613623046875,-0.000028567068511620164,0.0013327965280041099,0.00041268719360232353
1783696342462099200,5.44609912109375,-0.000502609764225781,0.0016289401100948453,0.0009676899062469602
1783696342472062500,5.4560625,0.0006683460669592023,0.00017989357002079487,-0.0008933848002925515
1783696342482026200,5.466026123046875,-0.0005950574995949864,0.0033029825426638126,-0.002166375517845154
1783696342491989200,5.4759892578125,0.0012184237129986286,-0.0004419940523803234,-0.0003548507811501622
1783696342501952300,5.4859521484375,0.0016442632768303156,-0.00019724969752132893,-0.0007394113345071673
1783696342511916300,5.495916259765625,0.001607221900485456,0.0038191876374185085,-0.0020186821930110455
1783696342521879300,5.50587939453125,0.001262342557311058,0.0006747932638972998,0.0008825653931125998
1783696342531842300,5.51584228515625,0.000032704119803383946,0.00045665621291846037,-0.0015555884456261992
1783696342541805000,5.52580517578125,0.000436173053458333,0.004534222185611725,-0.001359313610009849
1783696342551769000,5.53576904296875,0.0006478984141722322,0.0013921267818659544,-0.001633938285522163
1783696342561732000,5.545732177734375,0.00048171720118261874,-0.002983979880809784,0.00008593115489929914
1783696342571694800,5.55569482421875,-0.0009401714196428657,0.003473973134532571,-0.0014843572862446308
1783696342581659000,5.565658935546875,0.0009344276622869074,0.0012531630927696824,-0.0006790173938497901
1783696342591622000,5.575621826171875,-0.00021065805049147457,-0.0012554334243759513,-0.0012087650829926133
1783696342601585000,5.5855849609375,-0.0002516707172617316,0.0011829568538814783,0.0002876652288250625
1783696342611548000,5.5955478515625,0.0005634264671243727,-0.00005283229984343052,-0.0010892119025811553
1783696342621512000,5.605511962890625,0.0009956576395779848,0.0001562258694320917,-0.0013211731566116214
1783696342631475000,5.615474853515625,0.00116860365960747,0.0024193960707634687,-0.0013992987805977464
1783696342641438000,5.62543798828125,0.00029588575125671923,0.00045318424236029387,-0.0013673409121111035
1783696342651402000,5.635402099609375,0.0011646607890725136,0.0015939577715471387,-0.0031480141915380955
1783696342661365000,5.645364990234375,0.0004914136370643973,0.0027833255007863045,-0.0016494536539539695
1783696342671327700,5.65532763671875,-0.000014402932720258832,0.0009375557419843972,-0.0022398564033210278
1783696342681290800,5.665290771484375,-0.0009784672874957323,0.0021429024636745453,-0.001901102252304554
1783696342691878000,5.6758779296875,0.0013733702944591641,0.00312694045715034,-0.0030715614557266235
1783696342701841000,5.6858408203125,0.00031090102856978774,0.0009749711025506258,-0.0006493290420621634
1783696342711804000,5.695803955078125,0.0015767015283927321,0.0031281369738280773,-0.003917294088751078
1783696342721767000,5.705766845703125,0.00011400831863284111,0.0012894459068775177,-0.000782856484875083
1783696342731731000,5.71573095703125,0.001943333656527102,-0.001310598338022828,-0.0007841880433261395
1783696342741694000,5.72569384765625,0.00018896616529673338,0.0017482263501733541,-0.0015280693769454956
1783696342751657000,5.735656982421875,-0.0005503273569047451,-0.0005466195289045572,0.0010695779928937554
1783696342761621000,5.74562109375,0.001874573645181954,0.0004402259364724159,-0.00038418604526668787
1783696342771584000,5.755583984375,0.0010154378833249211,0.002584336791187525,-0.001586336875334382
1783696342781546800,5.765546630859375,0.000018440710846334696,-0.0023436835035681725,-0.00034590449649840593
1783696342791509800,5.775509765625,0.0012552127009257674,-0.001690409961156547,-0.0004359192680567503
1783696342801473800,5.785473876953125,-0.0008225854253396392,0.001984214875847101,0.00008525198791176081
1783696342811436800,5.795436767578125,0.0009883639868348837,-0.0018576612928882241,0.0009643614757806063
1783696342821399800,5.80539990234375,0.0005840517114847898,0.00017641123849898577,0.00031990185379981995
1783696342831363800,5.81536376953125,0.0012442492879927158,0.000584673834964633,-0.0007075457833707333
1783696342841326800,5.825326904296875,0.0010197182418778539,0.00004624761641025543,0.0004130947054363787
1783696342851290000,5.8352900390625,0.00006364347063936293,-0.0013180897803977132,-0.00022925972007215023
1783696342861253000,5.845253173828125,0.00004931219154968858,0.0014550448395311832,-0.0004188840975984931
1783696342871217000,5.855216796875,-0.0023882791865617037,-0.0003380613634362817,-0.0002353922463953495
1783696342881180200,5.86518017578125,-0.00011871635797433555,0.0006928819930180907,-0.0015565594658255577
1783696342891143000,5.875142822265625,0.00038888215203769505,0.001348285935819149,0.0007918158662505448
1783696342901107000,5.88510693359375,0.0002460198011249304,-0.0014754051808267832,-0.0017477317014709115
1783696342911070000,5.895070068359375,-0.0014645286137238145,0.00100399786606431,-0.0006853967206552625
1783696342921033000,5.905032958984375,-0.0015657208859920502,0.0006861655274406075,0.0017523046117275953
1783696342930996000,5.914995849609375,-0.0013678480172529817,-0.0022654158528894186,0.0016729424241930246
1783696342940960000,5.9249599609375,0.0011897956719622016,-0.00007628893945366144,-0.002053630305454135
1783696342950923000,5.934923095703125,-0.0010107742855325341,0.00014608504716306925,0.0007006108644418418
1783696342960886000,5.944885986328125,-0.001478654332458973,-0.002204769290983677,0.0003987773088738322
1783696342970850000,5.95485009765625,-0.0003004718746524304,0.0004930128343403339,-0.000747180893085897
1783696342980813000,5.96481298828125,-0.00034535268787294626,0.00016463350038975477,0.0014135551173239946
1783696342990776000,5.974776123046875,-0.0019674841314554214,-0.0008540257113054395,-0.0009452066151425242
1783696343000738800,5.98473876953125,-0.0019767824560403824,0.000015211175195872784,-0.00027588638477027416
1783696343010702800,5.994702880859375,0.00021473268861882389,0.001083937706425786,-0.0005752256838604808
1783696343020665900,6.004665771484375,-0.0024913374800235033,-0.001485951361246407,-0.0016610927414149046
1783696343030628900,6.01462890625,0.0012860902352258563,0.0011665569618344307,-0.00017078767996281385
1783696343040593000,6.024593017578125,0.0002622747852001339,-0.0004785603377968073,0.0002925798762589693
1783696343050556000,6.034555908203125,-0.00011589410132728517,-0.0012556707952171564,0.0007889931439422071
1783696343060519000,6.044518798828125,0.0015549620147794485,0.0014631602680310607,0.0011181255104020238
1783696343070482000,6.05448193359375,-0.000008047238225117326,-0.0005901369731873274,0.000535692204721272
1783696343080446000,6.064446044921875,0.0006422549486160278,-0.0008512894855812192,0.0002697842428460717
1783696343090409000,6.074408935546875,0.0009879333665594459,0.0017215905245393515,-0.0016106738476082683
1783696343100371700,6.084371826171875,-0.0014674067497253418,-0.0017699800664559007,-0.0002111771609634161
1783696343110335700,6.094335693359375,0.0008830991573631763,0.00008890649769455194,-0.0017848389688879251
1783696343120298800,6.104298828125,-0.00012169545516371727,0.000001089530996978283,0.0005784962559118867
1783696343130262000,6.114261962890625,-0.00032356305746361613,-0.0030663395300507545,-0.00004042242653667927
1783696343140225000,6.12422509765625,-0.002305449452251196,-0.0016368996584787965,0.000603956519626081
1783696343150188800,6.134188720703125,-0.0019059752812609076,9.444775059819221e-7,-0.0015960809541866183
1783696343160152000,6.144152099609375,-0.00015986600192263722,-0.003255967516452074,0.0016511463327333331
1783696343170115000,6.154114990234375,-0.00019209024321753532,-0.0021171998232603073,0.00039866165025159717
1783696343180079000,6.1640791015625,-0.001134019810706377,0.0007155775092542171,-0.000406240695156157
1783696343190042000,6.1740419921875,0.000520602217875421,-0.0014903187984600663,0.001925623044371605
1783696343200005000,6.184005126953125,0.0005259522004052997,0.0011258458252996206,0.0001337188296020031
1783696343209967900,6.1939677734375,-0.0007694093510508537,0.0007205126457847655,0.0026706461794674397
1783696343219932000,6.203931884765625,0.0007626614533364773,-0.0029102633707225323,0.0012723570689558983
1783696343229895000,6.21389501953125,-0.0010426954831928015,-0.0013951907167211175,0.001438538427464664
1783696343239858000,6.22385791015625,-0.0010087145492434502,0.001126013696193695,-0.0008820535149425268
1783696343249822000,6.233822021484375,0.0009894552640616894,-0.0020005374681204557,0.001187755144201219
1783696343259785000,6.243784912109375,-0.00046688882866874337,0.0011416003108024597,-0.0008449378656223416
1783696343269748000,6.253748046875,-0.0011582453735172749,-0.00031035521533340216,0.00021872867364436388
1783696343279711000,6.2637109375,-0.0008109326008707285,-0.001575269503518939,0.0014873903710395098
1783696343289675000,6.273675048828125,-0.0013731259386986494,-0.0004117344506084919,0.0008652759715914726
1783696343299638000,6.283637939453125,-0.0013093894813209772,-0.002214302308857441,-0.000020765000954270363
1783696343309600800,6.293600830078125,-0.0018856975948438048,-0.0024489269126206636,0.0007571443566121161
1783696343319565000,6.30356494140625,-0.0010782693279907107,0.0006047544302418828,0.0006033106474205852
1783696343329527800,6.31352783203125,-0.0013248779578134418,-0.0011183107271790504,-0.00029097881633788347
1783696343339490800,6.32349072265625,0.001434602658264339,-0.0019321284489706159,-0.0022751502692699432
1783696343349453800,6.333453857421875,0.0012750793248414993,0.0027843299321830273,-0.0011688731610774994
1783696343359417900,6.34341796875,-0.0014722440391778946,0.0011462569236755371,0.0012750988826155663
1783696343369380900,6.353380859375,-0.0010155120398849249,-0.00022393942344933748,-0.000719342497177422
1783696343379344000,6.36334375,-0.0001843486534198746,0.0026933474000543356,-0.0006118201417848468
1783696343389308000,6.373307861328125,0.0007618724484927952,0.0013074384769424796,0.00023426616098731756
1783696343399271000,6.38327099609375,0.0004929998540319502,-0.0010147923603653908,-0.000589403323829174
1783696343409234000,6.39323388671875,0.0004937988123856485,0.0011543522123247385,0.000939783756621182
1783696343419197000,6.403197021484375,-0.0007231768686324358,-0.0009691915474832058,0.000113139976747334
1783696343429161000,6.413160888671875,-0.00040306488517671824,0.00006757699884474277,-0.00041549757588654757
1783696343439124000,6.4231240234375,-0.0010975974146276712,0.0014864493859931827,0.0006162964855320752
1783696343449087000,6.4330869140625,0.00044836755841970444,-0.0015508858487010002,0.0031455005519092083
1783696343459051000,6.443051025390625,0.0005491689662449062,-0.0018146337242797017,0.0010378306033089757
1783696343469014000,6.453013916015625,-0.0008332779398187995,-0.0007514999015256763,0.0025276029482483864
1783696343478977000,6.46297705078125,-0.000488773628603667,-0.003330734558403492,0.002194686559960246
1783696343488940000,6.47293994140625,-0.00005760788917541504,-0.002757356036454439,0.0016700437990948558
1783696343498904000,6.482904052734375,-0.0009211908909492195,-0.00026310794055461884,0.002638708334416151
1783696343508867000,6.4928671875,-0.00041305978083983064,-0.005119382403790951,0.003786797169595957
1783696343518830000,6.502830078125,-0.002177054760977626,-0.004524993244558573,0.0035549046006053686
1783696343528794000,6.512794189453125,-0.003331535030156374,-0.0029742345213890076,0.004985820967704058
1783696343538756900,6.5227568359375,-0.0026534302160143852,-0.005795976147055626,0.0038704155012965202
1783696343548721000,6.532720947265625,-0.0010717787081375718,-0.005254289135336876,0.003611556254327297
1783696343558684000,6.542683837890625,-0.00362297217361629,-0.0009653926827013493,0.0009269702713936567
1783696343568648000,6.55264794921875,-0.0008325120434165001,-0.0009731159079819918,0.00003321340773254633
1783696343578611000,6.56261083984375,-0.000729520688764751,0.0008499823743477464,-0.0019177579088136554
1783696343588574000,6.572573974609375,0.0007450715638697147,0.0026406918186694384,-0.004283443558961153
1783696343598538000,6.5825380859375,0.002030356787145138,0.0036707320250570774,-0.0020878035575151443
1783696343608501000,6.5925009765625,0.001635143649764359,0.005823897663503885,-0.0038529466837644577
1783696343618464000,6.602464111328125,0.0026278081350028515,0.0030888712499290705,-0.001868539140559733
1783696343628427000,6.612427001953125,0.0005004748818464577,0.0035021938383579254,-0.00029194774106144905
1783696343638391000,6.62239111328125,0.0015836679376661777,0.004340477287769318,-0.003095148131251335
1783696343648354000,6.63235400390625,-0.00032715004635974765,0.0006189760752022266,-0.00084930460434407
1783696343658316800,6.64231689453125,-0.00019819647422991693,-0.0006756812799721956,0.0005390929873101413
1783696343668280800,6.65228076171875,0.0006683961837552488,0.0023145158775150776,-0.0015189978294074535
1783696343678243800,6.662243896484375,-0.00031330034835264087,0.002097437623888254,0.0008468694286420941
1783696343688206800,6.672206787109375,-0.0008131756912916899,-0.0030134348198771477,-0.0004663353320211172
1783696343698171000,6.6821708984375,0.0008484174031764269,0.00026781531050801277,0.0024164514616131783
1783696343708134000,6.6921337890625,-0.0012379030231386423,0.0012366733280941844,0.0025480117183178663
1783696343718097000,6.702096923828125,0.0003724858397617936,-0.0009568593231961131,-0.00004100578371435404
1783696343728060000,6.712059814453125,-0.0008387197740375996,-0.0010553962783887982,-0.0002505965530872345
1783696343738024000,6.72202392578125,0.0006199369672685862,-0.0027436967939138412,-0.000010985881090164185
1783696343747987000,6.731987060546875,0.0005877127405256033,0.0010068330448120832,0.0012537493603304029
1783696343757950000,6.741949951171875,-0.001434500329196453,-0.00023301213514059782,-0.00002262997440993786
1783696343767914000,6.7519140625,-0.001181766390800476,-0.0029182774014770985,0.002250111661851406
1783696343777876700,6.761876708984375,-0.0020296366419643164,0.00020643055904656649,0.0001564531121402979
1783696343787840000,6.771840087890625,-0.0009233595337718725,-0.00006174971349537373,0.000971912988461554
1783696343797803000,6.781802978515625,-0.00039331396692432463,-0.0019350189249962568,-0.0009417559485882521
1783696343807767000,6.79176708984375,0.00185039930511266,0.00036728393752127886,0.00048809521831572056
1783696343817730000,6.80172998046875,0.00022654002532362938,0.001585035934112966,0.001011753105558455
1783696343827693000,6.811693115234375,-0.00013058987678959966,-0.0015052960952743888,-0.0007443352369591594
1783696343837656000,6.821656005859375,0.00009375618537887931,0.00008937413804233074,-0.0015827836468815804
1783696343847620000,6.8316201171875,0.0015046988846734166,0.001345587195828557,-0.000694352900609374
1783696343857583000,6.8415830078125,-0.001197266043163836,0.0007540262886323035,-0.001136494567617774
1783696343867545900,6.8515458984375,-0.0006041800952516496,0.002004646696150303,-0.0014150612987577915
1783696343877510000,6.861510009765625,0.000405227008741349,0.0010142287937924266,-0.000813300022855401
1783696343887473000,6.871472900390625,0.0003929764498025179,-0.0024713161401450634,-0.0008548451587557793
1783696343897436000,6.881435791015625,-0.0007754801772534847,0.0034582307562232018,-0.00018006854224950075
1783696343907400000,6.89139990234375,0.0002793978783302009,0.0003314132336527109,0.0009736127685755491
1783696343917363000,6.901363037109375,-0.0007619747193530202,-0.0019054560689255595,-0.00043743185233324766
1783696343927326000,6.911325927734375,-0.00009032545494847,0.0003853950183838606,0.0007117221830412745
1783696343937289000,6.9212890625,-0.0003581026685424149,0.0013145089615136385,0.001429086783900857
1783696343947253000,6.9312529296875,-0.0019661192782223225,-0.001935346401296556,0.00023146322928369045
1783696343957216000,6.941216064453125,0.0009391551138833165,0.0007600192911922932,0.0012698984937742352
1783696343967179000,6.951178955078125,-0.00006672082236036658,-0.00025997136253863573,0.00033725949469953775
1783696343977143000,6.96114306640625,0.001510350382886827,-0.001675860839895904,-0.0005105836316943169
1783696343987105800,6.971105712890625,0.0005076701054349542,0.0001097886124625802,0.0007232588832266629
1783696343997068800,6.98106884765625,-0.0005322828073985875,-0.001284385216422379,-0.0008517013629898429
1783696344007031800,6.99103173828125,-0.0003692973405122757,-0.00036692607682198286,-0.00046660832595080137
1783696344016995800,7.000995849609375,-0.0005505755543708801,0.0010581898968666792,0.0006918503786437213
1783696344026958800,7.010958740234375,-0.0008392621530219913,-0.000810816534794867,0.0002814572071656585
1783696344036921900,7.020921875,-0.0013542724773287773,0.00005600578151643276,0.0001020943745970726
1783696344046885000,7.030885009765625,-0.0019295152742415667,0.0011795933824032545,0.0004182115662842989
1783696344056849000,7.040848876953125,-0.001380051951855421,-0.0014000580413267016,0.00026017928030341864
1783696344066812200,7.050812255859375,-0.0007094679749570787,0.0005400547524914145,0.0007070576539263129
1783696344076775000,7.06077490234375,-0.00019498881010804325,0.001344399293884635,-0.0007069436833262444
1783696344086739000,7.070739013671875,-0.00017687931540422142,-0.003350487444549799,-0.0004102676175534725
1783696344096702000,7.080701904296875,-0.00016957169282250106,0.0020541625563055277,0.00005427282303571701
1783696344106665000,7.0906650390625,-0.00024147704243659973,0.0011225887574255466,0.001663621049374342
1783696344116628000,7.1006279296875,-0.0007645104778930545,-0.0035749697126448154,0.00038214109372347593
1783696344126592000,7.110592041015625,0.0006810534396208823,0.0005883497651666403,-0.0005499653052538633
1783696344136555000,7.120554931640625,0.0007998303626663983,0.0012999463360756636,-0.00024849537294358015
1783696344146518000,7.13051806640625,-0.00032242570887319744,-0.002863373141735792,0.0016482078935950994
1783696344156482000,7.14048193359375,0.0011979894479736686,0.00019554910250008106,0.0014174729585647583
1783696344166445000,7.150445068359375,-0.0018270952859893441,-0.00009100709576159716,0.0014608824858441949
1783696344176408000,7.160407958984375,-0.000053824071073904634,-0.0012276715133339167,-0.00003481726162135601
1783696344186370800,7.170370849609375,0.0006330051110126078,0.002165994606912136,-0.00021431432105600834
1783696344196334800,7.1803349609375,0.0007659289985895157,-0.0012160147307440639,0.0006776746013201773
1783696344206297900,7.1902978515625,-0.0010162582620978355,-0.00023597152903676033,-0.00006108626257628202
1783696344216260900,7.2002607421875,-0.0013808661606162786,0.002191492123529315,0.0006052369717508554
1783696344226225000,7.210224853515625,-0.000055677228374406695,-0.00042772688902914524,0.0011413312749937177
1783696344236188000,7.22018798828125,-0.0003594052977859974,-0.00076688127592206,-0.0007392343832179904
1783696344246151000,7.23015087890625,-0.000982584897428751,0.0014272970147430897,-0.0007498868508264422
1783696344256114000,7.240114013671875,-0.0002547703043092042,-0.0015674850437790155,0.0014103743014857173
1783696344266078000,7.250077880859375,-0.0004198862880002707,-0.0003592090215533972,0.0000031599774956703186
1783696344276041000,7.260041015625,-0.000603875145316124,0.0012044991599395871,0.0005216170102357864
1783696344286003700,7.270003662109375,-0.0011865748092532158,-0.0014277691952884197,0.0014726318186149001
1783696344295968000,7.279968017578125,0.0011485563591122627,-0.00047920062206685543,-0.0005271468544378877
1783696344305930800,7.2899306640625,0.000542154535651207,0.0017610504291951656,-0.0002656244905665517
1783696344315894000,7.29989404296875,-0.001272640423849225,-0.0013597676297649741,0.0011655620764940977
1783696344325857000,7.30985693359375,-0.0005437331856228411,0.0002112311776727438,-0.00021075957920402288
1783696344335820800,7.31982080078125,-0.001510529313236475,0.0014408291317522526,0.00009876186959445477
1783696344345784000,7.3297841796875,-0.0009352865163236856,-0.002430341672152281,-0.00012414471711963415
1783696344355747000,7.3397470703125,-0.0005855170893482864,0.002148247556760907,-0.0014596977271139622
1783696344365710800,7.3497109375,-0.000060874357586726546,0.000957281852606684,-0.0000647340202704072
1783696344375674000,7.359674072265625,-0.0008430476300418377,-0.0015862585278227925,-0.000453587737865746
1783696344385637000,7.36963720703125,-0.00036793970502913,0.0023355125449597836,-0.001286358223296702
1783696344395600000,7.379599853515625,0.00013649536413140595,0.0017838445492088795,0.0004946826375089586
1783696344405564000,7.38956396484375,0.000030235241865739226,-0.002497453009709716,-0.0000901476014405489
1783696344415527000,7.39952685546875,-0.00020378694171085954,0.0008037383668124676,-0.00068902806378901
1783696344425490000,7.409489990234375,-0.0014267105143517256,0.0007866941159591079,0.00138770486228168
1783696344435454000,7.419453857421875,0.0005346541875042021,-0.0028239190578460693,-0.00006987003143876791
1783696344445417000,7.4294169921875,-0.00042381748789921403,0.0011998508125543594,-0.000385454623028636
1783696344455380000,7.4393798828125,0.000254348706221208,0.00023947167210280895,0.0008215423440560699
1783696344465343000,7.449343017578125,-0.00038853834848850965,-0.0008452339097857475,0.0006745358696207404
1783696344475307000,7.45930712890625,-0.0008730898844078183,0.001055173110216856,0.0030175275169312954
1783696344485270000,7.46927001953125,0.0005628864746540785,0.0007023041835054755,0.0007165564456954598
1783696344495233000,7.47923291015625,-0.00042090576607733965,0.00031102250795811415,0.0003831441281363368
1783696344505195800,7.48919580078125,-0.0003532614791765809,0.0016260914271697402,-0.0006184707162901759
1783696344515159800,7.499159912109375,0.0004992677131667733,-0.00041507079731673,0.0002695696894079447
1783696344525122800,7.509122802734375,-0.0006980894831940532,-0.00020281679462641478,-0.0001988803269341588
1783696344535085800,7.5190859375,-0.0002834826591424644,0.003373652696609497,-0.0006636573234573007
1783696344545049600,7.529049560546875,0.0004129339358769357,-0.0010621084365993738,0.00026019325014203787
1783696344555012400,7.539012451171875,-0.0010599413653835654,0.0006471702363342047,-0.001358717679977417
1783696344564975600,7.5489755859375,0.0007869608816690743,0.003126306924968958,-0.00032088381703943014
1783696344574938600,7.558938720703125,0.0004042163782287389,0.0007679402478970587,0.0003008670755662024
1783696344584902400,7.56890234375,0.0005640060408040881,-0.000948200817219913,-0.00014920707326382399
1783696344594865700,7.57886572265625,-0.00009872950613498688,0.001962203299626708,0.00036371941678225994
1783696344604828700,7.58882861328125,0.0008432305767200887,-0.0009518273873254657,-0.00013615586794912815
1783696344614792700,7.598792724609375,-0.0012331169564276934,-0.00020017731003463268,-0.0021106372587382793
1783696344624755700,7.608755615234375,-0.000027770292945206165,0.0013969202991575003,-0.0008914422942325473
1783696344634718700,7.61871875,0.0014465608401224017,-0.0016106280963867903,-0.00010507553815841675
1783696344644681500,7.628681396484375,0.0019091517897322774,-0.00021832750644534826,-0.0006733940681442618
1783696344654645800,7.638645751953125,-0.00016894516011234373,0.0014693274861201644,-0.0001759328879415989
1783696344664608500,7.6486083984375,0.0005256072618067265,-0.002718759700655937,0.0003143550711683929
1783696344674571500,7.658571533203125,0.0017125571612268686,0.0005374429747462273,-0.0007616538787260652
1783696344684535600,7.66853564453125,0.00047631777124479413,0.0019103025551885366,-0.0010359594598412514
1783696344694498600,7.67849853515625,-0.0005413098842836916,-0.0008451656904071569,-0.0003002973971888423
1783696344704461600,7.688461669921875,0.0007939990609884262,0.0004456683527678251,-0.00008484767749905586
1783696344714424600,7.698424560546875,0.00014979005209170282,-0.00030755437910556793,0.0008309506811201572
1783696344724388600,7.708388671875,-0.00010427551751490682,-0.0011336668394505978,-0.0003813202492892742
1783696344734351600,7.7183515625,0.0009121806360781193,0.0021519085858017206,-0.0004524004179984331
1783696344744314600,7.728314697265625,0.0018019427079707384,-0.0011956847738474607,0.0014722661580890417
1783696344754278700,7.738278564453125,-0.0011084669968113303,-0.001985028851777315,-0.000434629968367517
1783696344764241400,7.748241455078125,-0.0007002044003456831,0.0016818777658045292,0.0006484776386059821
1783696344774204400,7.758204345703125,0.0006896804552525282,-0.0005270210094749928,0.00025475380243733525
1783696344784167400,7.76816748046875,-0.0012586881639435887,-0.0006228948477655649,0.0001932348241098225
1783696344794131500,7.77813134765625,0.0007870708359405398,0.0021005000453442335,0.000015618279576301575
1783696344804094500,7.788094482421875,0.0013652431080117822,-0.00023882067762315273,0.0021876925602555275
1783696344814057500,7.798057373046875,0.0004573113692458719,-0.0022729611955583096,0.0007434297585859895
1783696344824020700,7.808020751953125,0.0004059123748447746,0.0018259098287671804,0.00020840071374550462
1783696344833984500,7.817984619140625,-0.0017453613691031933,-0.0008498172974213958,-0.000464516575448215
1783696344843947800,7.82794775390625,-0.0002414744085399434,0.000027694390155375004,0.00003722298424690962
1783696344853910800,7.837910888671875,0.0003803430590778589,0.002029634080827236,-0.0009118441957980394
1783696344863874600,7.84787451171875,-0.0015288770664483309,-0.0030351656023412943,0.00045648805098608136
1783696344873837600,7.857837646484375,-0.001211419701576233,0.0009492652025073767,0.0003616276662796736
1783696344883800600,7.867800537109375,-0.0008375118486583233,0.0009849516209214926,0.0005579026765190065
1783696344893763600,7.877763671875,-0.0004376724536996335,-0.0014019813388586044,-0.0009589651599526405
1783696344903727600,7.8877275390625,-0.0004959956859238446,0.00044625240843743086,0.00019444979261606932
1783696344913690600,7.897690673828125,0.00047995123895816505,0.001290776883251965,0.001209029695019126
1783696344923653600,7.907653564453125,0.0009398791007697582,-0.001738302526064217,-0.001753470627591014
1783696344933617700,7.91761767578125,0.0011180277215316892,0.0006764024728909135,0.00007426878437399864
1783696344943580700,7.92758056640625,-0.0010804117191582918,0.00037067162338644266,0.0007523095700889826
1783696344953543700,7.937543701171875,-0.0020745228976011276,-0.0012762568658217788,0.00015755154890939593
1783696344963506400,7.94750634765625,-0.000055047887144610286,0.0010678574908524752,-0.0004701555008068681
1783696344973470700,7.957470703125,-0.00040451748645864427,0.0008528440375812352,0.00028823368484154344
1783696344983433500,7.96743359375,0.00003676829510368407,-0.0015440009301528335,0.0011593536473810673
1783696344993396500,7.977396484375,-0.00034346425672993064,0.0006908035720698535,0.00139214179944247
1783696345003360500,7.987360595703125,-0.0012436127290129662,-0.0020621060393750668,0.00000649911817163229
1783696345013323500,7.997323486328125,-0.000059662386775016785,-0.0000017778947949409485,0.0016418329905718565
1783696345023286500,8.00728662109375,-0.001291640684939921,0.0030225077643990517,0.00018242065561935306
1783696345033249500,8.01724951171875,0.0016381015302613378,0.0003341424744576216,0.00029401894425973296
1783696345043213600,8.027213623046874,0.000047395500587299466,-0.0015543050831183791,0.00003063236363232136
1783696345053176600,8.037176513671875,-0.0016759155550971627,-0.00008360971696674824,0.0005330844433046877
1783696345063139600,8.0471396484375,-0.0007262322469614446,-0.0006404767045751214,0.0012433495139703155
1783696345073103600,8.057103515625,-0.0017419529613107443,-0.001749998889863491,-0.0006124569335952401
1783696345083066400,8.06706640625,0.0006349182222038507,0.0009853339288383722,-0.0003195093013346195
1783696345093029400,8.077029296875,0.0001144043926615268,-0.00008644547779113054,-0.00013099820353090763
1783696345102992600,8.08699267578125,0.00043877740972675383,-0.0007647525053471327,0.00035582768032327294
1783696345112956400,8.096956298828125,-0.0018434799276292324,0.001728493138216436,-0.0017997620161622763
1783696345122919700,8.106919677734375,-0.00047488155541941524,-0.0011953914072364569,-0.00009800214320421219
1783696345132882700,8.116882568359374,0.00014595591346733272,0.0011257852893322706,0.0004611011245287955
1783696345142846500,8.126846435546875,0.0013089582789689302,0.0020810612477362156,-0.0006169464904814959
1783696345152809700,8.136809814453125,-0.00023184355814009905,-0.001518001314252615,-0.0005714739672839642
1783696345162772700,8.146772705078124,-0.0014057650696486235,-0.0023664843756705523,-0.0008729437831789255
1783696345172735500,8.156735595703125,-0.00031470603425987065,0.001657720422372222,-0.0009396024979650974
1783696345182699800,8.16669970703125,0.0004304464382585138,-0.0004970431327819824,0.001135798986069858
1783696345192662500,8.17666259765625,0.001083809300325811,-0.00169801723677665,-0.0005308921681717038
1783696345202625500,8.18662548828125,-0.0007401896873489022,0.00227621803060174,-0.0011332993162795901
1783696345212589600,8.196589599609375,0.0018359893001616001,-0.0014954725047573447,0.00010890583507716656
1783696345222552600,8.206552490234374,0.002972093876451254,0.00007659138645976782,-0.001195510383695364
1783696345232515600,8.216515625,0.0015793737256899476,-0.00036215141881257296,0.0009006397449411452
1783696345242478600,8.226478515625,-0.0008691365364938974,-0.002492680214345455,0.0001954347244463861
1783696345252442600,8.236442626953124,0.00031083091744221747,0.00008184020407497883,-0.0001962935784831643
1783696345262405600,8.246405517578125,-0.0005813280586153269,0.000026180059649050236,-0.0007414426654577255
1783696345272368600,8.25636865234375,-0.0008093405049294233,-0.0000015924451872706413,-0.00019861874170601368
1783696345282332700,8.266332763671874,0.00009080793824978173,0.0019600919913500547,-0.0008657405851408839
1783696345292295400,8.27629541015625,-0.00015690484724473208,-0.00046637398190796375,-0.0016959490021690726
1783696345302258400,8.286258544921875,-0.0022405621130019426,-0.0019047472160309553,-0.0010485347593203187
1783696345312221400,8.296221435546874,-0.0019311705837026238,0.0019006654620170593,-0.00028004986234009266
1783696345322185500,8.306185546875,-0.0008637754945084453,-0.0006541049806401134,0.00000703881960362196
1783696345332148500,8.3161484375,-0.0006114484276622534,-0.0014319272013381124,-0.000672321068122983
1783696345342111500,8.326111572265624,-0.0020136027596890926,0.0007001995109021664,0.00039028021274134517
1783696345352075500,8.336075439453126,-0.0007241478888317943,0.0002699147444218397,0.0005056189838796854
1783696345362038500,8.34603857421875,-0.0005126928444951773,-0.0016904381336644292,-0.0006360781844705343
1783696345372001500,8.35600146484375,-0.0004937942139804363,0.0010321296285837889,0.0004660565755330026
1783696345381964800,8.36596484375,0.0009821295971050858,-0.0015149177052080631,0.0009813782526180148
1783696345391928600,8.375928466796875,0.0011252302210777998,-0.0017762884963303804,-0.0007732836529612541
1783696345401891600,8.3858916015625,-0.0008460415992885828,0.0011510581243783236,0.0012784156715497375
1783696345411854600,8.3958544921875,-0.00015815361985005438,-0.0017124757869169116,0.0005489314789883792
1783696345421818400,8.405818359375,-0.0004295297258067876,0.0006939565064385533,-0.0002971547655761242
1783696345431781600,8.41578173828125,-0.0014953947393223643,0.0014817180344834924,-0.0004439946496859193
1783696345441744600,8.42574462890625,0.00017067888984456658,-0.0006549360696226358,0.0005112812505103648
1783696345451707600,8.435707763671875,-0.0005244198255240917,0.0008006096468307078,-0.0006149016553536057
1783696345461671700,8.445671630859374,-0.0010125772096216679,0.001979058375582099,0.0003805879969149828
1783696345471634700,8.455634765625,-0.00010405873763374984,-0.0007519107311964035,-0.00023518339730799198
1783696345481597700,8.46559765625,-0.0012817084789276123,-0.0008557739201933146,-0.00016434327699244022
1783696345491560400,8.475560546875,-0.0005214897100813687,0.0008273804560303688,0.0005799427744932473
1783696345501524700,8.485524658203126,-0.0014490686589851975,-0.0014046148862689734,0.001022293814457953
1783696345511487500,8.495487548828125,0.00034144599339924753,0.0013425351353362203,0.0002981008146889508
1783696345521450500,8.505450439453124,0.0007204137509688735,0.0005483805434778333,0.000011278432793915272
1783696345531414500,8.51541455078125,0.0006551341502927244,-0.0011305147781968117,0.0017338433535769582
1783696345541377500,8.52537744140625,0.0004111886373721063,0.00022450147662311792,0.0005458072409965098
1783696345551339500,8.535339599609374,-0.0017671112436801195,-0.0005514220101758838,0.0019401665776968002
1783696345561302800,8.545302734375,-0.00021235784515738487,-0.0033304309472441673,0.0004056531470268965
1783696345571266600,8.5552666015625,-0.0004701645812019706,0.0014162625884637237,0.000458833877928555
1783696345581229600,8.5652294921875,-0.0018374314531683922,0.00005192519165575504,0.000122476601973176
1783696345591192800,8.57519287109375,-0.0006313232006505132,-0.0019990666769444942,0.00015491741942241788
1783696345601156600,8.585156494140625,-0.0013945851242169738,0.00014531053602695465,-0.0013955750036984682
1783696345611119900,8.595119873046874,-0.0004137458745390177,0.0010444773361086845,-0.00001485960092395544
1783696345621083000,8.605082763671875,0.0006802806747145951,-0.002670099725946784,-0.0016543015372008085
1783696345631046000,8.6150458984375,0.0003017778508365154,0.0020512528717517853,-0.00008114264346659184
1783696345641010000,8.625010009765624,-0.0008188802748918533,-0.0016446819063276052,0.0013484422815963626
1783696345650973000,8.634972900390625,-0.0002547446056269109,-0.000535982777364552,0.0009128841338679194
1783696345660935700,8.644935791015625,0.0012289023725315928,0.001496009062975645,0.00010488100815564394
1783696345670899700,8.654899658203124,-0.00029927902505733073,-0.0008513438515365124,0.0017507764277979732
1783696345680862700,8.66486279296875,-0.0006992857670411468,-0.00044254865497350693,-0.0007070549763739109
1783696345690825700,8.67482568359375,0.0005483458517119288,0.0026147973258048296,0.0003363698488101363
1783696345700788700,8.684788818359374,0.00005938942194916308,-0.0006403842708095908,-0.00022662244737148285
1783696345710752800,8.694752685546876,-0.0003186429967172444,0.00004485656972974539,-0.0009828589390963316
1783696345720715800,8.7047158203125,-0.000772711937315762,0.0009844198357313871,-0.0002976276446133852
1783696345730678800,8.7146787109375,-0.00008622686436865479,-0.0012767815496772528,0.001266609993763268
1783696345740641800,8.724641845703125,0.00025519035989418626,0.00124922685790807,0.0008511568885296583
1783696345750605800,8.734605712890625,0.0004264545568730682,0.0009573690476827323,0.0008384838001802564
1783696345760568600,8.744568603515624,0.00037718607927672565,-0.0015209687408059835,-0.00037511868868023157
1783696345770531600,8.754531494140625,0.00045217835577204823,0.0012572454288601875,0.000486478500533849
1783696345780495600,8.76449560546875,-0.00029989835456945,0.0007339342264458537,0.00039886048762127757
1783696345790458600,8.774458740234374,-0.0004886523238383234,-0.0016388042131438851,0.00044846523087471724
1783696345800421600,8.784421630859375,-0.0009288728469982743,0.0009308797889389098,-0.0005941623821854591
1783696345810385700,8.7943857421875,-0.0008209517691284418,-0.0011245534988120198,0.0002849008305929601
1783696345820348700,8.8043486328125,0.0011002526152879,-0.0007996478816494346,-0.0001481291837990284
1783696345830311700,8.814311767578126,0.001285267760977149,0.00028898194432258606,-0.0013442339841276407
1783696345840274700,8.824274658203125,-0.0006492523243650794,0.0017079140525311232,-0.000013452372513711452
1783696345850238700,8.83423876953125,-0.0007116127526387572,-0.0022210394963622093,0.00024924689205363393
1783696345860201700,8.84420166015625,0.0007680394919589162,-0.0003930457169190049,0.00005323824007064104
1783696345870164700,8.854164794921875,0.001155409961938858,0.0003358684480190277,-0.00017484824638813734
1783696345880127700,8.864127685546874,-0.0007559406803920865,-0.0007714739767834544,-0.00029442424420267344
1783696345890091800,8.874091796875,-0.0006924705812707543,0.0029400805942714214,-0.0007867241511121392
1783696345900054800,8.8840546875,-0.00010817302973009646,0.00039116910193115473,-0.0004418448079377413
1783696345910017800,8.894017822265624,0.0006441518198698759,-0.0004935859469696879,-0.0017413083696737885
1783696345919981800,8.90398193359375,0.0003024682227987796,0.003046820405870676,-0.0008715199073776603
1783696345929944800,8.91394482421875,0.0008610360091552138,0.0014087478630244732,0.0008671276737004519
1783696345939907800,8.923907958984374,0.002084492240101099,-0.001734048593789339,-0.0009728503646329045
1783696345949870800,8.933870849609375,0.000607850612141192,0.0008740542107261717,0.0010597490472719073
1783696345959835000,8.9438349609375,0.0006035895785316825,-0.000716918264515698,0.000035763601772487164
1783696345969798000,8.9537978515625,0.0007848605746403337,0.0006205387180671096,0.00015822448767721653
1783696345979760600,8.9637607421875,-0.0005491168703883886,0.0016120336949825287,0.00012679921928793192
1783696345989724700,8.973724609375,-0.0004336537967901677,-0.002063088584691286,0.0011444909032434225
1783696345999687700,8.983687744140624,0.0004760820302180946,0.001051478087902069,-0.0008933600038290024
1783696346009650700,8.993650634765626,0.0002795262262225151,0.002672874368727207,0.0010311708319932222
1783696346019613700,9.00361376953125,-0.0017684446647763252,-0.0012329176533967257,0.00010492338333278894
1783696346029577700,9.01357763671875,-0.0009156574378721416,0.00035470386501401663,0.00018230709247291088
1783696346039540700,9.023540771484376,-0.00038515578489750624,0.002571785356849432,0.0022694263607263565
1783696346049503700,9.033503662109375,0.00011014350457116961,-0.0016176033532246947,0.00041485874680802226
1783696346059467800,9.0434677734375,-0.0014198425924405456,0.0013385055353865027,-0.0007073973538354039
1783696346069430800,9.0534306640625,-0.001050623133778572,0.0005841379752382636,0.0017253400292247534
1783696346079393500,9.0633935546875,0.0008111927891150117,-0.0014244181802496314,-0.0004107814747840166
1783696346089356500,9.0733564453125,-0.0006229858845472336,-0.0008798404596745968,-0.000703797210007906
1783696346099320600,9.083320556640626,-0.0012152729323133826,-0.0008010107558220625,-0.0001674365485087037
1783696346109283600,9.09328369140625,-0.0008712579729035497,-0.002103794366121292,-0.000688859960064292
1783696346119246800,9.103246826171874,0.0008017397485673428,0.0023897571954876184,-0.00009630667045712471
1783696346129209900,9.1132099609375,0.0010089477291330695,0.001167292590253055,0.0003783578868024051
1783696346139173600,9.123173583984375,-0.0002744295634329319,-0.0015390117187052965,-0.00045601045712828636
1783696346149137000,9.133136962890624,0.0017314536962658167,0.002549691591411829,0.00001446274109184742
1783696346159100000,9.143099853515626,0.0004627237794920802,-0.000004546367563307285,0.001132191508077085
1783696346169063700,9.153063720703125,-0.00036433228524401784,-0.002096163807436824,-0.0004457904724404216
1783696346179027000,9.16302685546875,0.0014133277582004666,0.0001795073039829731,0.00018031871877610683
1783696346188989700,9.17298974609375,-0.0013468721881508827,0.0005167208146303892,0.0012646304676309228
1783696346198952700,9.18295263671875,-0.00011302958591841161,-0.0009496156126260757,-0.00029331876430660486
1783696346208916700,9.192916748046875,0.00016152806347236037,0.0020522098056972027,0.0003120449837297201
1783696346218879700,9.202879638671876,-0.0006470076041296124,-0.00020961277186870575,-0.00106827134732157
1783696346228842800,9.2128427734375,-0.00002629586379043758,-0.0010928319534286857,-0.0001468153204768896
1783696346238806800,9.222806884765625,-0.0007823673076927662,0.0008145240135490894,-0.000054669915698468685
1783696346248769800,9.232769775390626,0.00006837034015916288,-0.00202716002240777,0.0017324407817795873
1783696346258732800,9.24273291015625,-0.0008027496514841914,-0.00017173564992845058,-0.00039489229675382376
1783696346268695800,9.25269580078125,-0.00003972162085119635,0.003077856730669737,0.0006599117768928409
1783696346278659800,9.262659912109376,-0.00047781161265447736,-0.00129159155767411,-0.00036061147693544626
1783696346288622800,9.272622802734375,0.0006791155901737511,0.001754876459017396,-0.00028901733458042145
1783696346298585600,9.282585693359374,-0.0006221048533916473,0.0022451644763350487,-0.0012267162092030048
1783696346308549600,9.292549560546876,0.0010680695995688438,-0.001215516240336001,0.00023960100952535868
1783696346318512600,9.3025126953125,0.0003716529463417828,0.001984804403036833,-0.002142862882465124
1783696346328475600,9.3124755859375,-0.0008648877847008407,0.0016495425952598453,0.0005121482536196709
1783696346338438700,9.322438720703126,-0.00003984049544669688,-0.0008301266934722662,0.0007260001148097217
1783696346349024800,9.333024658203126,-0.0008374829776585102,0.0010538056958466768,-0.0014882172690704465
1783696346358988800,9.34298876953125,0.0017412833403795958,0.0013166401768103242,0.00012530619278550148
1783696346368951800,9.352951904296875,-0.0014843372628092766,-0.0011523764114826918,0.0009492882527410984
1783696346378914800,9.362914794921876,-0.0010639481479302049,0.0007307680789381266,0.0003273914917372167
1783696346388877600,9.372877685546875,-0.0006666044937446713,0.002284988760948181,-0.0000419889111071825
1783696346398841600,9.382841552734375,-0.0006939176237210631,-0.0022708072792738676,0.0003365788725204766
1783696346408804600,9.3928046875,0.00005416429485194385,0.001550828805193305,-0.0018988784868270159
1783696346418767600,9.402767578125,-0.0004329410148784518,-0.00011877936776727438,0.0008916700026020408
1783696346428731600,9.412731689453125,-0.0006483907345682383,-0.001536379917524755,-0.00041221361607313156
1783696346438694700,9.422694580078126,0.0007237468962557614,0.002622249536216259,0.00014612928498536348
1783696346448657700,9.43265771484375,0.00016927678370848298,-0.0008779428899288177,0.0007160457316786051
1783696346458620700,9.44262060546875,0.00018944911425933242,-0.0012655049795284867,-0.0004628318129107356
1783696346468584700,9.452584716796874,0.0005260726902633905,0.001492198440246284,0.0005265325307846069
1783696346478547700,9.462547607421875,0.0005415299092419446,-0.000627554371021688,-0.0004086164990440011
1783696346488510700,9.4725107421875,-0.0008129538036882877,-0.0010248980252072215,-0.0010424487991258502
1783696346498474800,9.482474853515624,0.0008254988351836801,0.0017069247551262379,0.0006816466338932514
1783696346508437800,9.492437744140625,-0.0010661445558071136,-0.00014024379197508097,0.0009642080403864384
1783696346518400800,9.50240087890625,0.00035375382867641747,0.0002857007784768939,-0.001188271096907556
1783696346528363800,9.51236376953125,-0.0005482588312588632,0.0018915869295597076,0.001816573436371982
1783696346538327800,9.522327880859375,0.000010277202818542719,-0.0014675029087811708,0.0002682749181985855
1783696346548291300,9.532291259765625,-0.000649387831799686,-0.0003921184688806534,-0.0007716895779594779
1783696346558254300,9.54225439453125,-0.0004648718750104308,0.0009226347901858389,-0.00025535025633871555
1783696346568218000,9.552218017578125,-0.00014635780826210976,-0.0013751406222581863,0.0005433317273855209
1783696346578181400,9.562181396484375,0.001966658513993025,0.0008933073258958757,0.00009452993981540203
1783696346588144400,9.572144287109374,-0.0011641536839306355,0.0015593639109283686,0.00005644676275551319
1783696346598107100,9.582107177734375,-0.0009365013102069497,-0.0016554715111851692,0.00203035119920969
1783696346608071200,9.5920712890625,-0.0005095965461805463,0.0009054242982529104,-0.0005305444356054068
1783696346618034200,9.6020341796875,-0.0010924628004431725,0.0015457264380529523,-0.00042179087176918983
1783696346627997200,9.6119970703125,-0.00014624171308241785,-0.0024346341378986835,0.00045305758249014616
1783696346637960200,9.621960205078125,0.0016277988906949759,-0.00022218446247279644,-0.0012431514915078878
1783696346647924200,9.63192431640625,0.00019155614427290857,0.0005613175453618169,0.0014466411666944623
1783696346658509300,9.64250927734375,0.00048317230539396405,-0.004194555338472128,0.0007670025224797428
1783696346668473300,9.652473388671876,-0.000154041190398857,0.002895256970077753,-0.0002820991212502122
1783696346678436400,9.662436279296875,-0.0009449999779462814,0.00015912530943751335,0.002395975636318326
1783696346688399000,9.672399169921874,-0.00009305051935371011,-0.0016665409784764051,-0.0003782969433814287
1783696346698362000,9.682362060546875,0.0008592958911322057,0.0008618640713393688,-0.000890689087100327
1783696346708326100,9.692326171875,0.0007969101425260305,0.0003317235969007015,0.0006482995231635869
1783696346718289200,9.7022890625,0.0008589617209509015,-0.0012691024458035827,0.0009841241408139467
1783696346728252200,9.712252197265625,0.001335241599008441,0.0011729823891073465,-0.0014432095922529697
1783696346738216200,9.72221630859375,-0.0008594695245847106,-0.0014542259741574526,0.0014026443241164088
1783696346748179200,9.73217919921875,-0.0007690209895372391,0.0004426616942510009,0.0007545611006207764
1783696346758142200,9.74214208984375,-0.00019590876763686538,0.0019446845399215817,0.0011122236028313637
1783696346768105200,9.752105224609375,0.0010648758616298437,-0.0022854767739772797,0.0004585105343721807
1783696346778069200,9.7620693359375,0.0010723327286541462,0.00025571160949766636,0.00022148923017084599
1783696346788032300,9.7720322265625,-0.0009061777964234352,0.000013905111700296402,0.0009556597215123475
1783696346797995000,9.7819951171875,-0.0005120299756526947,-0.0035190442577004433,0.00011676398571580648
1783696346807959000,9.791958984375,-0.0011807300616055727,-0.0006779901450499892,0.0006461635348387063
1783696346817922000,9.801922119140626,0.0006078489823266864,0.0023042175453156233,0.0007718647248111665
1783696346827885000,9.811885009765625,-0.0010781495366245508,0.00026389816775918007,-0.001831981004215777
1783696346837848000,9.82184814453125,0.0012364037102088332,0.0002676264848560095,-0.0010764423059299588
1783696346847812000,9.83181201171875,-0.0016441132174804807,0.0008424883708357811,0.001106602605432272
1783696346857775000,9.841775146484375,0.00023927428992465138,-0.0036364158149808645,-0.00015467056073248386
1783696346867738400,9.85173828125,-0.00020966108422726393,0.0005335155874490738,-0.00019333395175635815
1783696346877701400,9.861701416015626,0.0016098105115815997,0.0009313918417319655,0.0006804491858929396
1783696346887665200,9.8716650390625,0.0007409293903037906,-0.0016764203319326043,0.0013110421132296324
1783696346897628400,9.88162841796875,0.0009356064256280661,-0.00027133652474731207,-0.0008450531167909503
1783696346907591200,9.891591064453126,0.00046030961675569415,0.0017077019438147545,-0.0004958154167979956
1783696346917555200,9.90155517578125,0.0004706959589384496,-0.0028620162047445774,0.0009414926171302795
1783696346927518200,9.911518310546874,-0.0180039219558239,0.21489734947681427,0.2145538479089737
1783696346937481200,9.921481201171876,-0.01946147158741951,0.27410024404525757,0.3660232722759247
1783696346947444200,9.9314443359375,-0.013588614761829376,0.15729786455631256,0.23293860256671906
1783696346957408300,9.941408203125,0.000010817660950124264,-0.04532795399427414,0.001976495608687401
1783696346967371300,9.951371337890626,0.004292030818760395,-0.11036483198404312,-0.14347310364246368
1783696346977334300,9.961334228515625,0.009779473766684532,-0.09712279587984085,-0.17603904008865356
1783696346987298300,9.97129833984375,0.014073320664465427,-0.09966430813074112,-0.18850412964820862
1783696346997261300,9.98126123046875,0.00792141817510128,-0.12977081537246704,-0.19530929625034332
1783696347007224000,9.99122412109375,0.005877410527318716,-0.12364868074655533,-0.12981587648391724
1783696347017187000,10.00118701171875,0.0010190054308623075,-0.04105180501937866,-0.00564173236489296
