time,seconds_elapsed,z,y,x
1783696314887154200,0.060154296875,-0.16450316445827484,-0.017701880102977154,0.08543072372190653
1783696314897117200,0.0701171875,-0.011586392897367476,-0.02210658133532852,-0.09916318873725831
1783696314907080200,0.080080078125,0.006582300999760628,-0.03824932236280292,-0.02804170700535178
1783696314917044200,0.090044189453125,0.03377776643931865,-0.004707812364771962,0.052661622868478294
1783696314927007200,0.10000732421875,0.03367898223996162,0.017457842214033008,-0.002283763555623591
1783696314936970200,0.10997021484375,-0.032812136277556414,0.008669299874268472,-0.015004421179927886
1783696314946933000,0.11993310546875,-0.07589666024446487,-0.009834069337323307,-0.03773760998100042
1783696314956897000,0.12989697265625,-0.05194295320510864,-0.010793342823535203,-0.023520685916952788
1783696314966860000,0.139860107421875,-0.010952771168947219,0.008599997497722505,0.012337941917032002
1783696314976823000,0.149822998046875,0.005789104795455933,-0.008088723507337272,-0.0039512218438088895
1783696314986787000,0.159787109375,0.006084288349747657,-0.004251702627725899,-0.0069544587804004545
1783696314996750000,0.16975,-0.04434416863918304,0.0023183599449694155,-0.020243454344570637
1783696315006713000,0.179713134765625,-0.042999768292903896,-0.00947663420177996,-0.0015981924442574381
1783696315016677000,0.189677001953125,-0.02893383353948593,0.00007960457485169171,0.002670351720415056
1783696315026640100,0.19964013671875,-0.03536825050115585,-0.0017536387342959642,-0.01807462240550667
1783696315036603100,0.20960302734375,-0.013217793491482733,0.013159670096077025,-0.004659516243636608
1783696315046567200,0.219567138671875,-0.02669160757064819,-0.0005284443208947777,-0.0004928980834782124
1783696315056530200,0.2295302734375,-0.0424070630967617,0.014831146972253918,-0.007808299130760133
1783696315066493000,0.239492919921875,-0.036270752298831935,0.009597885961271821,-0.0011140621891245245
1783696315076457000,0.24945703125,-0.024749825853109357,0.00037062341067939993,-0.018906031728349624
1783696315086420000,0.259419921875,-0.01621639078557491,0.00625409195870161,-0.00841309662349522
1783696315096383000,0.269383056640625,-0.03207914582788944,-0.016342062991857528,-0.014806560520268975
1783696315106347000,0.279346923828125,-0.03491758412420749,0.004216887042671442,-0.01137680526729673
1783696315116310000,0.28931005859375,-0.02967617633938789,0.014213270802237093,0.010137618861161171
1783696315126273300,0.299273193359375,-0.019350597158074377,-0.00009246405642479657,-0.007262867142446339
1783696315136237000,0.309237060546875,-0.01619651704132557,0.0019439006093889474,-0.006870726019702851
1783696315146200000,0.319199951171875,-0.03414718427360058,-0.011822649338655173,-0.014780768491886555
1783696315156163300,0.329163330078125,-0.024868483796715735,-0.004637012150883675,-0.0008548267310485243
1783696315166127000,0.339127197265625,-0.021866379371285438,0.009604059973731637,0.0011431056205183268
1783696315176090400,0.34909033203125,-0.03308335443437099,-0.014756583898700772,-0.017131204075552523
1783696315186053000,0.35905322265625,-0.03277881852984428,-0.0003483019810169935,-0.014442293785139917
1783696315196017200,0.36901708984375,-0.0360544791996479,0.008609203717485069,0.0026702786551788447
1783696315205980200,0.378980224609375,-0.030658173114061354,0.012682042646966873,-0.0025319296304136514
1783696315215943200,0.388943115234375,-0.025861001965403554,0.018421536147035657,0.0048303062332794066
1783696315225907200,0.3989072265625,-0.037083822247385975,0.006093677232600748,-0.010660437158867716
1783696315235870200,0.4088701171875,-0.02720014161467552,0.011845701420679687,-0.008980338584817945
1783696315245833200,0.418833251953125,-0.045755204480886456,-0.0019387495102360843,-0.0088072105076164
1783696315255797200,0.42879736328125,-0.03453004611134529,-0.0026500395847484466,-0.014101846317015587
1783696315265760300,0.43876025390625,-0.015972645157575606,-0.00922401114758104,-0.004316474959626794
1783696315275723300,0.44872314453125,-0.02210018812716007,-0.02039692787323147,-0.008583630884811282
1783696315285687300,0.458687255859375,-0.030919454398751257,-0.012189984813705085,-0.014760091030038893
1783696315295650300,0.468650390625,-0.05111760829687118,-0.013278876028954983,-0.011505692343972623
1783696315305613000,0.478613037109375,-0.03734276544451713,-0.004119125756621361,-0.004247282180935144
1783696315315577000,0.4885771484375,-0.02551145787537098,-0.002105959303304553,0.000500679531134665
1783696315325540000,0.4985400390625,-0.025809564039111135,0.0047616614438593385,0.005128229733929038
1783696315335503000,0.508503173828125,-0.016526771908998487,-0.0015915435077622532,-0.0030086437640711662
1783696315345467100,0.518467041015625,-0.0376274276047945,0.0033061288733035325,-0.009797792447544633
1783696315355430100,0.52843017578125,-0.028349311649799345,-0.009150982443988322,-0.0072188818702474235
1783696315365393200,0.53839306640625,-0.03253858003318309,0.0020368395898491144,-0.0010576192941516636
1783696315375357200,0.548357177734375,-0.04166764290630817,-0.013419197815097868,-0.02355999501403421
1783696315385320200,0.5583203125,-0.01158405480980873,-0.004141995175555348,-0.006786445269733667
1783696315395283200,0.568283203125,-0.04435644359886646,-0.001212115736119449,-0.003102349929511547
1783696315405246000,0.578245849609375,-0.02086100172102451,-0.0008171250691637397,-0.019120697392337023
1783696315415210200,0.588210205078125,-0.016219897916913032,0.010803973815403878,0.007821049014478922
1783696315425173000,0.598173095703125,-0.038214872103929515,-0.0036195056714117524,-0.00277772108502686
1783696315435136000,0.608135986328125,-0.03356909212470054,0.02640047913696617,0.005483582510240376
1783696315445100000,0.61810009765625,-0.028639819028973577,-0.013790880671702324,0.008187946098111569
1783696315455063000,0.62806298828125,-0.005008183550834655,-0.005581453394144773,-0.0013349383981898426
1783696315465026000,0.638026123046875,-0.04062894750833511,0.008296228778176009,-0.00008497486971318721
1783696315474990000,0.647989990234375,-0.04199029898941516,-0.011617043763957917,-0.013151048398204147
1783696315484953000,0.657953125,-0.019112112227082253,-0.00930704978853464,-0.007384776489064097
1783696315494916000,0.667916015625,-0.022402385944128037,-0.0059526247940957545,-0.01210913812983781
1783696315504880000,0.677880126953125,-0.0414139604061842,0.003104213093034923,-0.01857723816540092
1783696315514841900,0.687841796875,-0.028993454772233963,0.00021718641463667153,-0.006261215819232165
1783696315524804900,0.697804931640625,-0.03229249631762504,-0.0034467429203912615,-0.0112476624622941
1783696315534769000,0.707768798828125,-0.03348609001636505,0.010697335103154182,-0.009167495187371968
1783696315544732000,0.71773193359375,-0.044106268230080604,-0.006654525985755026,-0.010628178857080638
1783696315554695000,0.72769482421875,-0.029590251621603964,-0.010747859713993967,-0.011945252805016935
1783696315564659000,0.737658935546875,-0.02599544200003147,-0.002723287484049797,-0.011370886983163655
1783696315574622000,0.7476220703125,-0.04484978007376194,-0.01492635097503662,-0.01201239975709468
1783696315584585000,0.7575849609375,-0.044836336070299146,0.003896897840686142,-0.015751440154947338
1783696315594549000,0.767549072265625,-0.03270166164040565,-0.002987929769605398,-0.01550502764582634
1783696315604512000,0.777511962890625,-0.013241758888959884,-0.007664324082806706,-0.013074256834946571
1783696315614474800,0.787474853515625,-0.04031389020979404,0.0037821488872170446,0.003926708457060158
1783696315624439000,0.79743896484375,-0.04314999041855335,-0.013229958853311836,-0.0220362560454756
1783696315634401800,0.80740185546875,-0.029529461345076558,-0.0003936389600858092,-0.009508929036185144
1783696315644364800,0.81736474609375,-0.028927988320589064,0.001612732426263392,0.0011451514471322297
1783696315654328800,0.827328857421875,-0.03894493994414806,0.017899594632163642,-0.008009447726048528
1783696315664291800,0.837291748046875,-0.03205284234285354,0.011138028075359761,-0.009286408859305083
1783696315674254800,0.8472548828125,-0.034893034204840655,0.001195164601318538,-0.00492686194293201
1783696315684219000,0.857218994140625,-0.033688919112086296,0.01692494091372937,-0.00601125964615494
1783696315694182000,0.867181884765625,-0.03996376159787178,0.004272891546227038,0.005923398699611425
1783696315704145000,0.877144775390625,-0.041453123372793194,0.005470248104631901,-0.019672047664783893
1783696315714109000,0.88710888671875,-0.03456336385905742,0.01619227925762534,0.0019181816462427376
1783696315724072000,0.897072021484375,-0.02558160050213337,-0.0052527694290503855,0.002629544785991311
1783696315734034700,0.90703466796875,-0.03394786230921745,-0.0015359773956239223,-0.019686989505589007
1783696315743997700,0.916997802734375,-0.022563713985681532,0.0002088569777086377,-0.00464373415261507
1783696315753961700,0.926961669921875,-0.031984453281760215,-0.010710852171853184,0.0028465485375374555
1783696315763924700,0.9369248046875,-0.03197451640963554,0.006678637513704597,0.014532346688769756
1783696315773888000,0.946887939453125,-0.03226502378880977,-0.009093808896653354,-0.015110950294323265
1783696315783851800,0.956851806640625,-0.03016249855160713,0.0077013316249474875,-0.010840762161836028
1783696315793814800,0.966814697265625,-0.029856793603301048,-0.0012332681220024824,0.004218677140958607
1783696315803778000,0.976778076171875,-0.032249826219677924,-0.0037399902459233996,-0.007823277504183351
1783696315813741800,0.986741943359375,-0.027612814068794247,-0.0047934448216110466,-0.004636391096375882
1783696315823704800,0.996704833984375,-0.025816578301787376,-0.02370554096456617,-0.013100085395947097
1783696315833668000,1.006668212890625,-0.024770868641138075,0.005034925427287817,-0.019495375923626122
1783696315843631900,1.0166318359375,-0.04062602489888668,-0.005906849423609674,-0.004254186845757067
1783696315853595000,1.026594970703125,-0.024913491982221602,-0.002110854674130678,-0.02285155448373407
1783696315863558000,1.036557861328125,-0.027904490491747855,0.014221381043456494,-0.00885298587810248
1783696315873522000,1.04652197265625,-0.030901334220170974,-0.005451945262961089,-0.01498535115327686
1783696315883485000,1.05648486328125,-0.023268062862753867,-0.0011418635115027426,-0.000930522315762937
1783696315893448000,1.066447998046875,-0.032094343397021295,-0.009858582724072038,-0.003328377237729728
1783696315903412000,1.076411865234375,-0.028207857352495192,-0.011817717435210942,0.003238251268863678
1783696315913375000,1.086375,-0.036892683589458464,-0.003074475541897118,0.005570785869657993
1783696315923338000,1.096337890625,-0.026419220370054244,-0.0033893867099657653,0.00008702069632709026
1783696315933302000,1.106302001953125,-0.03226443926692009,0.003943038537353277,-0.0008847834778949618
1783696315943265000,1.11626513671875,-0.035865678629279134,0.0002788900066167116,0.0015393383964896201
1783696315953228000,1.12622802734375,-0.0244996504843235,-0.017488127754442393,-0.017022921395488083
1783696315963192000,1.136192138671875,-0.022401801422238347,0.005817381041869521,-0.009173450004123151
1783696315973154800,1.14615478515625,-0.04306172761321068,-0.0005055018367245793,-0.005898118127882481
1783696315983117800,1.156117919921875,-0.03888181158006191,-0.008028736948408185,0.004565590882487595
1783696315993081900,1.166081787109375,-0.024664485657215116,-0.00026310791559517384,-0.0018942527813836931
1783696316003044900,1.176044921875,-0.032438042268157004,-0.014200776646845041,-0.022746304010972378
1783696316013008000,1.1860078125,-0.049343584361672396,0.007941095197573304,-0.0005473682170733809
1783696316022971000,1.195970947265625,-0.031248540222644804,-0.01595894542578608,-0.002663885447010398
1783696316032935000,1.205934814453125,-0.01329553490281105,-0.01069989238642156,-0.020410043083131314
1783696316042898000,1.21589794921875,-0.043212534260749814,-0.006289711261354387,-0.013427234991081059
1783696316052861000,1.22586083984375,-0.04785422258675098,0.0009970847459509968,-0.009389869233779609
1783696316062825000,1.235824951171875,-0.02061667157113552,0.016943462951108813,-0.0022159955490380526
1783696316072788000,1.2457880859375,-0.025249592068791387,-0.012184833714552224,-0.011843217202648519
1783696316082750700,1.255750732421875,-0.03931903395354747,-0.007670973019301891,-0.004585939550772309
1783696316092714800,1.26571484375,-0.04111936137378216,0.01823131080456078,0.005563588943891227
1783696316102677800,1.275677734375,-0.03469195867478847,-0.00011383563801646232,-0.006741181355901062
1783696316112640800,1.285640869140625,-0.032899230039119716,0.01565247329249978,-0.00387804700974375
1783696316122604800,1.295604736328125,-0.029324294161796566,0.001728869619220495,-0.005695617825724184
1783696316132567800,1.30556787109375,-0.01976093152463436,-0.0008300576159730553,-0.0005414499329403043
1783696316142530800,1.31553076171875,-0.03143500270545482,-0.0007960822811350226,-0.00905395181030035
1783696316152494800,1.325494873046875,-0.03997019133865833,0.011221358977258204,-0.01582150971647352
1783696316162457900,1.335457763671875,-0.026807342904806134,0.00009377923067659139,0.005746946154162287
1783696316172420900,1.3454208984375,-0.018883564168214798,-0.005958579610846937,0.008841551168635487
1783696316182385000,1.355385009765625,-0.023821605092287063,-0.010017280417121946,-0.008497852297499775
1783696316192348000,1.365347900390625,-0.035789106261730194,-0.012719780841469764,-0.0006579159194603562
1783696316202311000,1.375310791015625,-0.03998071273267269,-0.004801774258539081,-0.012712364719994365
1783696316212274000,1.38527392578125,-0.01573065309524536,-0.0013423910522833466,-0.009952873411402106
1783696316222238000,1.395238037109375,-0.02216214744746685,-0.004063230850920081,0.006171418643929064
1783696316232201000,1.405200927734375,-0.029492051944136618,0.006233049170672893,-0.0029823037464171646
1783696316242164000,1.4151640625,-0.03696691786944866,0.011353607054799795,0.00848937673009932
1783696316252128000,1.4251279296875,-0.0336713834553957,-0.013635945838317275,-0.0019441198050975798
1783696316262091000,1.435091064453125,-0.019001637589931487,0.0007295198509469628,0.001799962094053626
1783696316272054000,1.445053955078125,-0.02543547002971172,-0.008076412015035749,-0.019649178245849906
1783696316282018000,1.45501806640625,-0.021847674670815467,0.011009287129156291,-0.015609255205281078
1783696316291981000,1.46498095703125,-0.027084406280517576,0.004303798141144215,-0.0026601225873455403
1783696316301943800,1.47494384765625,-0.034270518392324444,-0.0031506095180287956,-0.009626673664338887
1783696316311908000,1.484908203125,-0.0264864403873682,0.013297471131570636,0.0058682344462722535
1783696316321870800,1.494870849609375,-0.03755611593425274,-0.002148300607688725,-0.008697356924973428
1783696316331833900,1.504833740234375,-0.03232172241210937,0.0004247647507116198,-0.020919417377375064
1783696316341798000,1.5147978515625,-0.03381108418703079,-0.0017332900660112498,0.0024571838937699794
1783696316351761000,1.524760986328125,-0.027529811960458755,-0.007445493700355291,-0.004750701658427715
1783696316361724000,1.534723876953125,-0.028578444230556485,0.004329370973818004,-0.006741948540881276
1783696316371688000,1.54468798828125,-0.030083588096499442,-0.014636976107023655,-0.008936170649528502
1783696316381651000,1.55465087890625,-0.01691664800941944,-0.008715111777372657,-0.0008909209577366709
1783696316391614000,1.564614013671875,-0.036517420536279675,-0.006340126274339854,-0.006306260537356138
1783696316401577000,1.574576904296875,-0.02604454183876514,-0.001248246495425701,-0.0016167510142549872
1783696316411541000,1.584541015625,-0.042057519006729126,-0.013702325605414806,-0.006152787008695304
1783696316421503700,1.594503662109375,-0.038466801038384436,-0.01444021142590791,-0.015131737354025244
1783696316431466800,1.604466796875,-0.033978257447481154,-0.009488945694081485,-0.0051162835678085685
1783696316441430800,1.6144306640625,-0.03816109609007835,-0.002684672506712377,0.0013718728750944137
1783696316451393800,1.624393798828125,-0.02709083602130413,0.0033040830466896294,-0.002585705644264817
1783696316461356800,1.634356689453125,-0.025440730726718902,0.008044738235138356,0.0012526669422164558
1783696316471320800,1.64432080078125,-0.03367781319618225,-0.020995989744924008,0.012935396353527903
1783696316481283800,1.654283935546875,-0.012878770795464515,-0.008836400069482624,0.006617043519578873
1783696316491246800,1.664246826171875,-0.022309446963667868,-0.0031054186694324014,-0.0036651349114254113
1783696316501211000,1.6742109375,-0.04236030134558678,-0.012709259447455405,0.0063817734589800236
1783696316511174000,1.684173828125,-0.032038813817501066,0.010691014960221946,-0.002271525128558278
1783696316521137400,1.694137451171875,-0.02501169165968895,-0.0052296077491715545,0.0060130132118239995
1783696316531100200,1.70410009765625,-0.025012276181578634,-0.006755940533615648,-0.0005065612826496362
1783696316541064400,1.714064453125,-0.034737551382184026,0.0030155484288930893,-0.009134944624640047
1783696316551027200,1.724027099609375,-0.027854221609234807,0.0010753376139327883,-0.018728154410794375
1783696316560990200,1.733990234375,-0.02755260831415653,-0.002548588504269719,0.004002696302719414
1783696316570954200,1.743954345703125,-0.03353986603021621,-0.019560038657672703,-0.01186765752416104
1783696316580917200,1.753917236328125,-0.024260581031441686,-0.011762662779726088,-0.008049268279783427
1783696316590880500,1.763880615234375,-0.031138650107383727,-0.001353971892222762,0.006240830618329346
1783696316600844300,1.77384423828125,-0.03158464030921459,-0.010516279447823762,-0.010995623929984866
1783696316610807300,1.783807373046875,-0.02769114000201225,0.004767506662756204,-0.005427833735011518
1783696316620770600,1.7937705078125,-0.025000585743784904,-0.007756824671849608,-0.001069528927654028
1783696316630734300,1.803734375,-0.03218728237748146,0.0058719242407009,-0.005745557914674282
1783696316640697600,1.813697509765625,-0.032786417314410204,0.0013148454582318663,-0.012875555925071239
1783696316650660400,1.823660400390625,-0.029048984351754188,-0.01554156026393175,-0.01986961606349796
1783696316660624400,1.833624267578125,-0.01453296774327755,0.007355806122906506,-0.0013602189699187875
1783696316670587400,1.84358740234375,-0.031443770533800125,-0.012089483581297099,-0.011638086551986634
1783696316680550400,1.85355029296875,-0.037733810588717456,-0.0073949690895155065,-0.018749014535732567
1783696316690513400,1.863513427734375,-0.02426175007522106,-0.0055191287476569414,-0.004122084898687899
1783696316700477400,1.8734775390625,-0.03324234438836574,-0.0026908465191721916,-0.0038828327827155587
1783696316710440400,1.8834404296875,-0.028602994149923323,0.005490962099097669,-0.011615326730906962
1783696316720403500,1.893403564453125,-0.03953179992139339,-0.0015399959836155175,0.0106758539237082
1783696316730367500,1.903367431640625,-0.020079495954513547,-0.00039440614506602287,-0.010931253456883132
1783696316740330500,1.91333056640625,-0.02486731475293636,0.001847637160681188,0.004454239462502301
1783696316750293500,1.92329345703125,-0.027567221361398695,-0.010516279447823762,0.008619505915790795
1783696316760257500,1.933257568359375,-0.010361819538474083,-0.005428564387373626,-0.004025127330236137
1783696316770220300,1.94322021484375,-0.03760229316353798,-0.01293072017841041,-0.00849916747175157
1783696316780183300,1.953183349609375,-0.030875030735135076,-0.0002603314366191625,-0.0027579569386318326
1783696316790147300,1.963147216796875,-0.018006196811795234,-0.007137925588525831,-0.0020200711181387306
1783696316800110300,1.9731103515625,-0.03984744174182415,-0.0029956016194075345,-0.01499210968762636
1783696316810073300,1.9830732421875,-0.02712181568145752,0.001384147834777832,-0.014734737393073736
1783696316820036400,1.993036376953125,-0.038488428348302836,-0.010220365241169928,0.003919657661765814
1783696316830000400,2.00300048828125,-0.03563713057041168,-0.0074887117875739925,-0.008146919967979192
1783696316839963400,2.01296337890625,-0.01393207924067974,0.0033551921794191,-0.001079575397633016
1783696316849926400,2.022926513671875,-0.031140988194942473,-0.008342625203169881,-0.0016287702456116676
1783696316859890400,2.032890380859375,-0.026054478710889815,0.0072498615304008125,-0.010470613675191998
1783696316869853400,2.042853515625,-0.03114800245761871,-0.004903079208545386,-0.02061890006083995
1783696316879816200,2.052816162109375,-0.02995557780265808,0.007268602763488888,-0.006941270505264401
1783696316889780200,2.0627802734375,-0.023373861324787137,0.006387837873585522,0.010463343684189021
1783696316899743200,2.0727431640625,-0.03310089009106159,0.0000014978373423218725,-0.009481675703078507
1783696316909706200,2.082706298828125,-0.029801264023780822,0.007508110607787966,-0.013728884818777442
1783696316919670300,2.092670166015625,-0.0356318698734045,0.00440137676410377,-0.004000212084688246
1783696316929633300,2.10263330078125,-0.027400048100948333,-0.018502455896139143,-0.013166501695662736
1783696316939596300,2.11259619140625,-0.035032150414586065,-0.0012840484611690043,-0.007039470182731747
1783696316949560300,2.122560302734375,-0.03324234438836574,-0.013489669235423206,-0.010534107365459204
1783696316959523300,2.1325234375,-0.025906010150909424,-0.004449855548329651,0.0005329378329217433
1783696316969486600,2.142486572265625,-0.03084405107498169,0.008157624025084078,-0.0017563421480357646
1783696316979449300,2.152449462890625,-0.03428688500523567,-0.007557977631501853,-0.004271795567683876
1783696316989413400,2.162413330078125,-0.0245563491076231,0.008103738413378596,-0.0013295315707102418
1783696316999376400,2.17237646484375,-0.01663257037103176,-0.0005076207285746932,-0.012731690474972128
1783696317009339400,2.18233935546875,-0.029205051696300506,0.006124693425372242,-0.012864121215604245
1783696317019303400,2.192303466796875,-0.03833469909131527,-0.010302490566670893,-0.005225406498089433
1783696317029266400,2.202266357421875,-0.04103168309032917,-0.010617072941176593,-0.0036054771460592746
1783696317039229400,2.2122294921875,-0.029660394248366355,-0.0009095160603523254,-0.005054506910592317
1783696317049193500,2.222193359375,-0.029064766442775725,-0.006103431441634893,0.0029140242831781505
1783696317059156500,2.232156494140625,-0.014407295536994933,-0.0007758432107046246,0.005387501724623143
1783696317069119500,2.242119384765625,-0.037898645761609076,-0.007102635079436004,0.004639788629859686
1783696317079083500,2.25208349609375,-0.037300095346570014,-0.00256776812877506,-0.01331559131015092
1783696317089046500,2.262046630859375,-0.034601357781887054,0.007083455454930662,-0.0021619272742420433
1783696317099009300,2.27200927734375,-0.024421909072995185,-0.015103278444521128,-0.019130378536134956
1783696317108972300,2.28197216796875,-0.02651099030673504,0.0039951340507715935,-0.006649886343255639
1783696317118936300,2.291936279296875,-0.026658289822936058,-0.004628025126829743,0.009710698685981333
1783696317128899300,2.3018994140625,-0.0359410819530487,-0.0014245894430205226,-0.010417312585376202
1783696317138862300,2.3118623046875,-0.030844635596871374,0.019302045308612285,0.00273735254202038
1783696317148826400,2.321826416015625,-0.042215924438834186,-0.009164353382214904,-0.009062610040791333
1783696317158789400,2.331789306640625,-0.019769114831089972,0.0043570261657238,-0.006730513831414282
1783696317168752400,2.34175244140625,-0.030690906339883802,-0.013197006431780754,0.003459127477928996
1783696317178716400,2.35171630859375,-0.02246609883010387,-0.023821349363960326,-0.009405614792183041
1783696317188679400,2.361679443359375,-0.036080782684683795,0.012516878680512308,-0.0024100568164139983
1783696317198642400,2.371642333984375,-0.03234101163446903,-0.005706139219738542,-0.0066108695071190595
1783696317208606500,2.3816064453125,-0.014680851781368255,-0.008358955283463,-0.0069966174216941
1783696317218569200,2.3915693359375,-0.028588965624570844,0.005306837703846394,-0.014146635306812823
1783696317228532200,2.4015322265625,-0.03368658102452755,-0.0055348012408241625,-0.01605718163587153
1783696317238495200,2.4114951171875,-0.02335983279943466,0.004440649328567087,-0.0016808657590299844
1783696317248459300,2.421459228515625,-0.03742752111852169,-0.012288951676152645,0.0034160555211827158
1783696317258422300,2.43142236328125,-0.030091771402955055,-0.004502535583637655,-0.007157908930629491
1783696317268385500,2.441385498046875,-0.031438509836792944,-0.0012064897129312156,-0.0037278979493305083
1783696317278349300,2.451349365234375,-0.026202947270870205,-0.005012092540971935,-0.01496036284249276
1783696317288312300,2.461312255859375,-0.026052725145220754,0.004817410219088197,-0.003999810225889086
1783696317298275600,2.471275634765625,-0.03458499116897583,-0.008274528403021396,-0.006796710935421287
1783696317308239400,2.4812392578125,-0.036082536250352855,0.00007821633536368608,-0.014660393515229225
1783696317318202400,2.491202392578125,-0.03189151430130005,-0.0013884221510961651,-0.0021746406253427266
1783696317328165400,2.501165283203125,-0.03518003445267677,-0.006972871219925582,-0.006245068402029573
1783696317338129400,2.51112939453125,-0.021858196064829825,-0.0010154971854761242,-0.008578260589949786
1783696317348092400,2.521092529296875,-0.02800093660354614,-0.002938574202544987,-0.0011964432429522275
1783696317358055400,2.531055419921875,-0.027706337571144102,0.013435454830154776,-0.0017478665806353092
1783696317368018400,2.541018310546875,-0.03204348999261856,0.0009604059973731637,-0.005928001809492707
1783696317377982500,2.550982421875,-0.0329477453559637,-0.006177190797589719,-0.0028097236584872006
1783696317387945500,2.560945556640625,-0.035192893934249875,0.00451276471670717,0.000608450754545629
1783696317397908500,2.570908447265625,-0.035944004562497134,-0.01690177923385054,-0.00557900570873171
1783696317407872500,2.58087255859375,-0.03129705553948879,-0.01268302902765572,-0.01372665632907301
1783696317417835500,2.59083544921875,-0.02950023525059223,0.0014959741787984966,-0.010135025045275688
1783696317427798300,2.60079833984375,-0.03548340131342411,-0.003550166762247681,-0.01499338832926005
1783696317437762600,2.610762451171875,-0.02050736597776413,0.007496675898320973,0.016013598222471774
1783696317447725300,2.620725341796875,-0.034872575938701626,-0.013330715814046561,0.0009252981513738632
1783696317457688300,2.630688232421875,-0.02768997095823288,0.00014569208100438118,-0.021227716141566634
1783696317467652400,2.64065234375,-0.022453823870420456,0.004762501694075763,-0.01608081823978573
1783696317477615400,2.650615478515625,-0.025902503019571303,-0.023317893353849647,-0.008004771550931036
1783696317487578400,2.660578369140625,-0.028899346747994423,0.009951119845733046,0.00057126054931432
1783696317497541400,2.670541259765625,-0.026060908451676367,-0.015935893343761564,-0.0004946516491472721
1783696317507505400,2.68050537109375,-0.016029928302764892,-0.00009271978475153446,-0.011951536415331065
1783696317517468000,2.690468017578125,-0.023953122517466542,0.0016829481182619927,0.0022247633773833514
1783696317527431000,2.700430908203125,-0.014973697248101233,0.0031488924849778412,-0.007635280651412904
1783696317537395000,2.71039501953125,-0.01512158128619194,0.009868373465724289,-0.009622764674201607
1783696317547358000,2.72035791015625,-0.039811785906553265,-0.015773286660574374,-0.013731149841099976
1783696317557321000,2.730321044921875,-0.03965922569334507,-0.0016049144459888338,-0.011513729519955813
1783696317567285000,2.740284912109375,-0.035762218254804606,-0.003342223099991679,0.0044345118487253785
1783696317577248000,2.750248046875,-0.021700959676504133,-0.02193911581393331,-0.012639847473055124
1783696317587211000,2.7602109375,-0.030074820268154143,-0.006135324417240917,-0.012732896051369607
1783696317597175000,2.770175048828125,-0.033814006796479223,-0.01079703261796385,-0.004513276173360645
1783696317607138000,2.780137939453125,-0.03111760731935501,-0.008806772116199135,-0.009998575716651975
1783696317617101000,2.79010107421875,-0.027968203377723693,0.006008446634560823,-0.0010306216893717645
1783696317627064000,2.80006396484375,-0.0270791455835104,-0.018110387838631867,-0.009627586979791521
1783696317637028000,2.810028076171875,-0.027976386684179306,-0.0000890299903228879,-0.015410262034460902
1783696317646991000,2.8199912109375,-0.034112697482109065,-0.0007653948819264769,-0.004093114532530307
1783696317656954000,2.8299541015625,-0.02484042674601078,-0.008933686431497334,-0.008817110847122967
1783696317666918100,2.839918212890625,-0.03172492556273937,0.007535327408276498,-0.00609828034248203
1783696317676881200,2.849881103515625,-0.04728431374430656,-0.010041465010307728,-0.011780673360452056
1783696317686844200,2.85984423828125,-0.01839724195599556,-0.003148454093560576,-0.0031140038346871733
1783696317696808200,2.86980810546875,-0.022737316986918447,-0.018013978259451686,-0.004086977052688599
1783696317706771200,2.879771240234375,-0.02483165891766548,0.0015438319085165858,-0.01301207831893116
1783696317716734200,2.889734130859375,-0.029473347243666646,-0.005438464726880193,0.011095796368829906
1783696317726697000,2.899697021484375,-0.03126782944500446,-0.017898608251474796,-0.0032543986860662697
1783696317736661000,2.909660888671875,-0.03097030780315399,0.015617730772681533,-0.0022966230371966956
1783696317746624000,2.9196240234375,-0.04249591042399406,-0.0031113734861835836,0.0117424967745319
1783696317756587000,2.9295869140625,-0.029626491978764533,-0.013805201457999646,-0.00883238148149103
1783696317766551000,2.939551025390625,-0.03127192109823227,0.007741809765808284,-0.0012160977914929389
1783696317776514000,2.94951416015625,-0.03606558511555195,-0.007690444904752076,0.000611556027084589
1783696317786477000,2.95947705078125,-0.028141221857070922,-0.0011628697669133544,0.0018652458826079964
1783696317796441000,2.969441162109375,-0.03591536298990249,-0.01768273701108992,0.006241597803309559
1783696317806404000,2.979404052734375,-0.024545243191719055,0.0007324789930135011,-0.0028321181533858177
1783696317816367000,2.9893671875,-0.03426934934854507,-0.018341383582912384,0.009900997093692422
1783696317826331100,2.9993310546875,-0.04608955100178718,-0.0164566292822361,-0.006213102361187339
1783696317836294100,3.009294189453125,-0.025884382840991017,0.014524346045404672,0.0035755569318309424
1783696317846257000,3.0192568359375,-0.04309446083903312,-0.010165602846629916,0.001692994588240981
1783696317856220000,3.029219970703125,-0.029930443361401556,0.001362849318422377,-0.01660407492890954
1783696317866184000,3.039183837890625,-0.03351531611084938,0.0038670141590759154,-0.0037189109252765773
1783696317876147000,3.04914697265625,-0.03172024938762188,-0.006143763452023268,-0.012710684219561516
1783696317886110000,3.05910986328125,-0.031118191841244695,0.01578537895716727,0.003138846014998853
1783696317896074000,3.069073974609375,-0.0348562093257904,-0.003974127795360982,0.008454853405989705
1783696317906037000,3.079037109375,-0.03036591216921806,-0.009386800493858755,-0.004705218548886478
1783696317916000000,3.089,-0.035599721169471736,-0.005815883204527199,-0.001341002812795341
1783696317925964000,3.098964111328125,-0.03335106545984745,-0.02011960876919329,-0.010914594583027064
1783696317935927000,3.108927001953125,-0.01793839227259159,-0.005466339114494622,-0.0032702903749421237
1783696317945890000,3.11889013671875,-0.023624621215462684,-0.013301197458617388,-0.0027597470369189977
1783696317955853000,3.12885302734375,-0.04023556427657604,-0.009887041633576154,-0.008070055339485406
1783696317965817000,3.138817138671875,-0.03768646431565285,0.007128573238290846,-0.005633585440181195
1783696317975780000,3.148780029296875,-0.02332885313928127,-0.009240377760492264,-0.007327858670055865
1783696317985743000,3.1587431640625,-0.028422376886010167,-0.004538629810325801,-0.0069434624623507255
1783696317995707100,3.16870703125,-0.030665187376737593,0.0056222968611866235,-0.009960216467641293
1783696318005670100,3.178670166015625,-0.02647591899335384,-0.00888451352752745,-0.019536146325431762
1783696318015633200,3.188633056640625,-0.032309447452425956,-0.007080752041190862,0.004183642360195517
1783696318025597200,3.19859716796875,-0.0291746565580368,0.0018085472593083976,-0.00136178987249732
1783696318035560200,3.208560302734375,-0.028729250878095625,-0.0026526699332520363,-0.0036989641157910225
1783696318045523200,3.218523193359375,-0.020201661029458046,0.00039915538541972635,0.0009111600281670689
1783696318055487200,3.2284873046875,-0.030830607071518898,-0.002567220139503479,-0.013339191381447017
1783696318065450000,3.238449951171875,-0.020501520758867263,0.006029927814006805,-0.012015212768688797
1783696318075413000,3.2484130859375,-0.03351823872029781,-0.012921696621738374,-0.0014615239199250935
1783696318085376000,3.2583759765625,-0.025879706665873525,-0.0003147285049781203,0.004176189706102013
1783696318095340000,3.268340087890625,-0.0426379492431879,-0.005420052287355065,0.007608209981396794
1783696318105303000,3.278302978515625,-0.0353051221370697,-0.00516753883101046,-0.010464512727968394
1783696318115266000,3.28826611328125,-0.01929039140343666,-0.005748480524122714,-0.004602561892010271
1783696318125230000,3.29822998046875,-0.03006312983036041,-0.006409940107539295,-0.011740633611008524
1783696318135193000,3.308193115234375,-0.04187748626470566,-0.0014515505151823163,-0.0011368950754404067
1783696318145156000,3.318156005859375,-0.03559562951624393,0.005750380220264196,0.006242218857817352
1783696318155120000,3.3281201171875,-0.026174305698275564,-0.01817709639929235,-0.018144399706088006
1783696318165083100,3.338083251953125,-0.030808395239710806,-0.0009177724320441484,-0.0115608931299299
1783696318175046000,3.3480458984375,-0.029462241327762602,-0.007940985599718987,-0.002130034298636019
1783696318185009000,3.3580087890625,-0.016296470284461975,0.01032696742080152,0.010032843312434852
1783696318194973000,3.367972900390625,-0.03231470814943314,0.008214761039800941,-0.010140358807519078
1783696318204936000,3.37793603515625,-0.03291501213014126,-0.016482786636799574,-0.01710351235102862
1783696318214899000,3.38789892578125,-0.017054010653495787,0.015324885305948555,0.010035254465229808
1783696318224863000,3.397863037109375,-0.0457926138818264,-0.006157938107848167,0.0017992314416915177
1783696318234826000,3.407825927734375,-0.03187982386350632,0.016493344563432037,-0.003551116610318422
1783696318244789200,3.417789306640625,-0.035324411359429354,-0.010360358233749865,-0.0014849778607487678
1783696318254753000,3.4277529296875,-0.019621815314888953,-0.009715046067535876,-0.009059175974689424
1783696318264716000,3.437716064453125,-0.02471007836461067,-0.012997173010744153,0.00022705022152513265
1783696318274679000,3.447678955078125,-0.03758125037550926,-0.030851540261693296,-0.009213708949275314
1783696318284642000,3.45764208984375,-0.03817687818109989,-0.011950403904169796,-0.010961064073257148
1783696318294606000,3.467606201171875,-0.023214286848902702,-0.0025891031777486202,0.01982040662690997
1783696318304569000,3.477569091796875,-0.026656536257266997,0.003654869245737791,-0.0004560366718098521
1783696318314532000,3.487531982421875,-0.03383212697505951,0.0006876900032162666,-0.0013997472627088428
1783696318324496100,3.49749609375,-0.020376433074474332,-0.023625096139498054,-0.00923866072744131
1783696318334459100,3.507459228515625,-0.02562076346874237,-0.007643463957868516,-0.00077898501586169
1783696318344422100,3.517422119140625,-0.024870237362384796,-0.01216766338404268,-0.007976641434989868
1783696318354386200,3.52738623046875,-0.033843232890963554,0.0006922565804794431,-0.017534743375144896
1783696318364349200,3.53734912109375,-0.039218496188521385,-0.01493687236905098,-0.006365187650360166
1783696318374312200,3.547312255859375,-0.03202361624836921,0.0022169819297268986,-0.003310476254858076
1783696318384275000,3.55727490234375,-0.04098784394860267,-0.0006143325060606002,-0.013570260190963744
1783696318394239000,3.567239013671875,-0.036632571348547936,-0.0025418665025383233,-0.005762764777801931
1783696318404202000,3.577201904296875,-0.03648176470100879,0.006278897606395184,0.010823482233472168
1783696318414165000,3.5871650390625,-0.021954057654738426,0.03773132637068629,0.017193382591567934
1783696318424129000,3.59712890625,-0.049483285093307496,0.010845803663134574,0.008333930440060793
1783696318434092000,3.607092041015625,-0.034816461837291715,0.011325878797657786,0.002850165266729891
1783696318444055000,3.617054931640625,-0.012970540732145309,-0.000630297260172665,-0.003720774088799953
1783696318454019000,3.62701904296875,-0.039753333717584605,-0.012253697699680923,-0.002010609170049429
1783696318463982000,3.636982177734375,-0.03376841408908367,0.013967954271659254,-0.005790091176144778
1783696318473945000,3.646945068359375,-0.035865094107389445,-0.03165302937030792,-0.015641623104922474
1783696318483909000,3.6569091796875,-0.023887656065821647,-0.016762845687195656,-0.013025449257157743
1783696318493872000,3.6668720703125,-0.013698855006694793,-0.010323277626372872,-0.01142736641075462
1783696318503835000,3.6768349609375,-0.045106969705224036,-0.010814495209418237,-0.01508479293975979
1783696318513798000,3.6867978515625,-0.040761633977293966,-0.002320442304201424,0.010236951049789786
1783696318523762200,3.69676220703125,-0.02654255448877811,-0.021275464273430404,-0.0066367346007376905
1783696318533725200,3.70672509765625,-0.013371522748470305,-0.0035016879780218,0.0004945785839110613
1783696318543688200,3.716688232421875,-0.03162731040716171,-0.006021342648752034,-0.007613251482695341
1783696318553652200,3.72665234375,-0.03582067044377327,-0.015845036722533404,-0.015661642979644237
1783696318563615200,3.736615234375,-0.027582418930530546,-0.01286090634521097,-0.010154569995962082
1783696318573578200,3.746578125,-0.0281768776923418,-0.027792298821546137,-0.002182239409908652
1783696318583542300,3.756542236328125,-0.03340484147369861,-0.0072161053912714115,-0.00027373890746384857
1783696318593505300,3.76650537109375,-0.017236381483078003,0.0036323651529848572,0.006040193479694426
1783696318603468300,3.77646826171875,-0.03533727084100246,-0.007982669316977262,0.003175597828812897
1783696318613431300,3.786431396484375,-0.036676995012164114,0.026067630453407764,-0.003526968549750745
1783696318623395300,3.796395263671875,-0.03652443479895592,0.0073722823336720466,-0.007661291875503956
1783696318633358300,3.8063583984375,-0.02111585326492786,-0.003076338705420494,-0.0004037219626829028
1783696318643321300,3.8163212890625,-0.013038345271348952,-0.012663630207441746,0.011966770517081022
1783696318653285400,3.826285400390625,-0.0377408248513937,-0.014637451031059026,-0.0018991116195917128
1783696318663248400,3.836248291015625,-0.04552373381257057,0.011448591861873865,-0.003703713356144726
1783696318673211400,3.84621142578125,-0.027267946153879164,0.0008083572408184408,-0.0024924378702417013
1783696318683175400,3.856175537109375,-0.026819033342599868,-0.01355294372998178,-0.010876929453760386
1783696318693138400,3.866138427734375,-0.030709026518464088,0.00818626559767872,0.018833806742355227
1783696318703101200,3.87610107421875,-0.039841012001037596,-0.006006254677474498,-0.005776683705300092
1783696318713064200,3.886064208984375,-0.024727614021301268,0.0013150646539404987,-0.005149528250284492
1783696318723028200,3.8960283203125,-0.03460837204456329,-0.018850794409774243,0.0033042657097801563
1783696318732991200,3.9059912109375,-0.04403612560331821,-0.005678739756159484,-0.018222835237160322
1783696318742954200,3.915954345703125,-0.03744973295032978,-0.016761932371743022,-0.0024241584070026872
1783696318752918300,3.925918212890625,-0.02831950103342533,-0.026685652753897008,-0.02022781838402152
1783696318762881300,3.93588134765625,-0.01813303806185722,-0.004818761925958097,-0.005713811069540679
1783696318772844300,3.94584423828125,-0.033982933622598646,-0.011362630611471832,0.007105996080301702
1783696318782808300,3.955808349609375,-0.03577215512692928,0.0002360737781971693,0.003280811768956482
1783696318792771300,3.965771240234375,-0.019901801300048826,0.002388721767440438,0.020643778773769734
1783696318802734300,3.975734375,-0.020951602613925934,-0.002406732348166406,-0.0011209668539464473
1783696318812697000,3.985697021484375,-0.02574059045612812,0.009033822337724267,-0.0065704278988763685
1783696318822661000,3.9956611328125,-0.02380991465449333,-0.006306662396155297,0.00013330752346664667
1783696318832624000,4.0056240234375,-0.022772388300299644,-0.017291143877618015,-0.008074439253658056
1783696318842587100,4.015587158203125,-0.02262742687165737,-0.01658862163145095,0.0009167129861190914
1783696318852551200,4.02555126953125,-0.042539749565720555,-0.024842837898805738,-0.012870404825918376
1783696318862514200,4.03551416015625,-0.028328853383660316,-0.0018978695105761288,-0.004864098905026913
1783696318872477200,4.045477294921875,-0.03670505206286907,-0.00926039763521403,0.007043598368577659
1783696318882441200,4.055441162109375,-0.025332594177126883,0.0003355886299163103,-0.010338767456449568
1783696318892404200,4.065404296875,-0.009615385085344314,0.0076013418491929765,0.00020969722792506216
1783696318902367200,4.0753671875,-0.03205810303986072,-0.008430266954004765,-0.01121072798538953
1783696318912330200,4.085330322265625,-0.0318979440420866,0.025845548667944966,0.007679667782410979
1783696318922294300,4.095294189453125,-0.039379239708185194,-0.0015925298884510992,0.008180858770199119
1783696318932257300,4.10525732421875,-0.012447978162765503,-0.009369849359057844,-0.023903292026370763
1783696318942220300,4.11522021484375,-0.025305121648311613,-0.0008036445330828428,-0.0022369652718305585
1783696318952184300,4.125184326171875,-0.03248129688799381,-0.02248396328035742,-0.0057051163064315916
1783696318962147300,4.135147216796875,-0.02648819395303726,0.008045688083209096,-0.004075140484422445
1783696318972110300,4.1451103515625,-0.04443710761964321,0.0037332317115738984,-0.0033982641361653804
1783696318982073300,4.1550732421875,-0.021982699227333067,0.006155965346470475,-0.015613785249926149
1783696318992037400,4.165037353515625,-0.024364041405916213,0.015101561411470173,-0.0015247253492474556
1783696319002000400,4.17500048828125,-0.041566520619392394,-0.0189450120318681,-0.005187156846933066
1783696319011963400,4.18496337890625,-0.0285386967420578,-0.0016019187713041901,-0.014677892639301717
1783696319021927400,4.194927490234375,-0.02703939809501171,0.000047163609974086285,0.0015473025072366
1783696319031890200,4.20489013671875,-0.028532851523160933,-0.019759324089437723,-0.0060875032201409334
1783696319041853200,4.214853271484375,-0.02103928089737892,-0.013299772686511278,-0.008358370761573313
1783696319051817200,4.224817138671875,-0.029264672929048538,-0.0051236996892839665,-0.0033453649051487446
1783696319061780200,4.2347802734375,-0.02865969277322292,0.00237246475238353,-0.0006665376173332333
1783696319071743200,4.2447431640625,-0.035687983974814416,0.003340615664795041,0.009640117667801677
1783696319081707300,4.254707275390625,-0.019521862071752546,-0.000026157354563474654,-0.004927227269113064
1783696319091670300,4.264670166015625,-0.032681203374266624,0.013182941373810172,0.007970650085620581
1783696319101633300,4.27463330078125,-0.027143442991375923,-0.01750295999739319,-0.02616612239181995
1783696319111596300,4.28459619140625,-0.031472996628284455,-0.00583911794964224,0.002190386183746159
1783696319121560300,4.294560302734375,-0.025184710139036177,-0.009070464553683997,-0.0012322817413136361
1783696319131523300,4.3045234375,-0.0275800808429718,-0.009384170145355164,-0.0004443462340161204
1783696319141486000,4.314486083984375,-0.02054652894437313,-0.00013582827411592007,0.0022703195521607995
1783696319151450000,4.3244501953125,-0.03477203817367554,-0.012437749029695987,0.004660721820034086
1783696319161413000,4.3344130859375,-0.02698796016871929,-0.006359159768372774,-0.00013619360029697419
1783696319171376000,4.344376220703125,-0.02415185995995998,0.0038121421666815875,-0.002679959798976779
1783696319181340200,4.354340087890625,-0.023712299498915672,0.004627148343995214,0.0001949380502104759
1783696319191303200,4.36430322265625,-0.026560674667358397,-0.0015378405591472983,-0.00593666003998369
1783696319201266200,4.37426611328125,-0.03794073133766651,-0.023649134602211415,-0.02118793212044984
1783696319211229400,4.3842294921875,-0.017587094616889953,-0.0064845397137105465,-0.0081874711740762
1783696319221193200,4.394193115234375,-0.037190205231308934,-0.010512041664123534,-0.0025001827852800486
1783696319231156200,4.40415625,-0.035388124245405196,-0.006475918015837669,-0.016398213625885547
1783696319241119200,4.414119140625,-0.023702362626791,0.01072824169807136,-0.0038895182518288492
1783696319251083300,4.424083251953125,-0.029983634853363035,-0.009842069980688392,-0.001207220365293324
1783696319261046300,4.43404638671875,-0.03327215500473976,0.01059909889306873,-0.008254618126153945
1783696319271009300,4.44400927734375,-0.03147182758450508,0.007276639939472079,0.00646053778361529
1783696319280973300,4.453973388671875,-0.018456278666853905,0.008299443648569285,0.011058167772181332
1783696319290936300,4.463936279296875,-0.02010463039577007,0.016831965400651096,0.01321249626185745
1783696319300899300,4.4738994140625,-0.04106207822859287,-0.017008746739663183,-0.012451485294103622
1783696319310863400,4.48386328125,-0.025801380732655525,0.0014360606851056218,-0.006735737995803356
1783696319320826400,4.493826416015625,-0.031036358776688575,-0.014180099184997378,-0.0019454349793493746
1783696319330789400,4.503789306640625,-0.019811200407147407,-0.015190627934411166,-0.011896518292464315
1783696319340752400,4.51375244140625,-0.022202479457855223,0.005822130282223224,0.010077888030558825
1783696319350716400,4.52371630859375,-0.027139351338148116,-0.020209917401149868,-0.017495251614972947
1783696319360679200,4.53367919921875,-0.020393968731164933,0.011172295671142637,0.004117079930007457
1783696319370642200,4.54364208984375,-0.045077743610739705,-0.0031458237450569864,-0.004322575906850397
1783696319380606200,4.553606201171875,-0.0326473011046648,0.008247238537296652,-0.017763802890665828
1783696319390569200,4.5635693359375,-0.03472761451005935,0.014072072233259677,0.003865187528170645
1783696319400532200,4.5735322265625,-0.02050736597776413,0.010960223823040724,0.005078764569014311
1783696319410496300,4.583496337890625,-0.008379705810546874,-0.001859619859419763,0.0011073767200112342
1783696319420459300,4.593459228515625,-0.02902092730104923,0.009131400960683822,0.01832644174210727
1783696319430422300,4.60342236328125,-0.03426175056397915,-0.0016586904598399996,-0.000108392277918756
1783696319440386300,4.61338623046875,-0.01840367169678211,0.004496873027831316,0.008345876606181264
1783696319450349300,4.623349365234375,-0.017958266016840935,-0.005951711478643119,-0.0034096623130142685
1783696319460312300,4.633312255859375,-0.02947802341878414,0.003577237432263791,0.00901533683296293
1783696319470275000,4.643275146484375,-0.03741349259316921,-0.0005647212106734514,0.007133980065770447
1783696319480239000,4.653239013671875,-0.020802549532055854,-0.009814889712817966,-0.01847900195531547
1783696319490202000,4.6632021484375,-0.022883447459340095,-0.003983882004395127,0.00346124636977911
1783696319500165000,4.6731650390625,-0.0412830275028944,-0.015303879050537943,-0.009000723785720765
1783696319510129200,4.683129150390625,-0.012098434072732926,0.02945431374963373,-0.010483071297965944
1783696319520091400,4.69309130859375,-0.040970892813801764,-0.0041630014309659595,-0.0012950082466006278
1783696319530054400,4.703054443359375,-0.03453121515512466,-0.005574000740051269,0.001327230015769601
1783696319540018400,4.713018310546875,-0.02494973233938217,0.0012390768082812427,0.010570530385710299
1783696319549981400,4.7229814453125,-0.03453589133024215,0.0024057094348594547,0.011573095024377106
1783696319559944400,4.7329443359375,-0.03544423834681511,-0.006178323308750987,0.012501717643998562
1783696319569908500,4.742908447265625,-0.017492986592650413,-0.006410963020846247,0.010337415749579668
1783696319579871500,4.75287158203125,-0.027676526954770086,-0.019656119443289936,-0.016304836254008113
1783696319589834500,4.76283447265625,-0.03574818972945213,-0.016046404513530434,0.0008101108064875007
1783696319599798500,4.772798583984375,-0.05205050523281097,-0.022254063514620063,-0.008758402929827571
1783696319609761500,4.782761474609375,-0.025705519142746925,0.016857282504998145,-0.005902538574673235
1783696319619724300,4.792724365234375,-0.015678046125173567,0.001592237627506256,0.02144519481714815
1783696319629687300,4.802687255859375,-0.034237785166502,0.007012034186534583,-0.004951156133972108
1783696319639651300,4.8126513671875,-0.029299159720540046,0.020144597079977393,0.010889350543916225
1783696319649614300,4.8226142578125,-0.029151860204339027,-0.005115845176391303,0.019603074081800877
1783696319659577300,4.832577392578125,-0.038730420410633085,0.009399769573286176,0.00005213204603642225
1783696319669541400,4.842541259765625,-0.021819033098220825,0.009542940903641283,-0.0022559622332453725
1783696319679504400,4.85250439453125,-0.02855506335496902,-0.013017448613792656,-0.013903108874522148
1783696319689467400,4.86246728515625,-0.017485387808084486,-0.0091143767606467,-0.004393777979537845
1783696319699431400,4.872431396484375,-0.029758009403944012,-0.023957725627347826,-0.005483765173330902
1783696319709394400,4.88239453125,-0.039326632738113404,-0.0019873744249343872,-0.011771138347126543
1783696319719357400,4.892357421875,-0.0328910467326641,-0.0019776567485183475,0.007486410232633352
1783696319729321500,4.902321533203125,-0.03588262976408005,-0.007107018993608653,-0.0131574781389907
1783696319739284200,4.9122841796875,-0.029140169766545293,0.0035935675125569103,-0.007770926262438297
1783696319749247200,4.922247314453125,-0.033328853628039355,-0.007751125583425163,-0.0008083207082003355
1783696319759210200,4.932210205078125,-0.024648119044303893,0.016177337416820228,0.006196516552567481
1783696319769174300,4.94217431640625,-0.03392038978040218,0.015292700069397687,0.0018267039705067872
1783696319779137300,4.95213720703125,-0.012677110743522643,-0.008475932726636529,-0.0014952800590544938
1783696319789100300,4.962100341796875,-0.024653964263200757,0.003836399825103581,0.010299239163659513
1783696319799064300,4.972064208984375,-0.04142389727830886,-0.018276099794358014,-0.006693323626182973
1783696319809027300,4.98202734375,-0.02780921342372894,-0.014262845565006135,-0.0026920886281877753
1783696319818990600,4.991990478515625,-0.026617957812547683,0.0050629459453746676,0.014042334682121873
1783696319828954400,5.001954345703125,-0.040239655929803844,0.0004627952061593532,-0.010398059895634651
1783696319838917400,5.01191748046875,-0.03321078020632267,0.00028926527015864847,0.008399835283122957
1783696319848880400,5.02188037109375,-0.03276712809205055,-0.027954174852371214,0.015098054280132054
1783696319858844200,5.03184423828125,-0.02812953141927719,-0.008249028635583817,-0.014595475052855907
1783696319868807400,5.041807373046875,-0.029773206973075866,-0.003070749214850366,0.0006429740786552428
1783696319878770400,5.0517705078125,-0.024399697241187093,-0.022025478923134504,-0.012701916391216218
1783696319888733400,5.0617333984375,-0.007801613661646842,0.0014073095146566628,0.0035260917669162153
1783696319898697500,5.071697509765625,-0.023074586117267606,-0.009222001853585243,0.0016901815766468644
1783696319908660500,5.081660400390625,-0.026533202138543127,0.00344308965858072,0.009347929788194596
1783696319918623500,5.09162353515625,-0.030150808113813397,0.0022121961567550894,0.011706475613079964
1783696319928587500,5.10158740234375,-0.028382044875621792,-0.002215411027148366,-0.0020297522619366643
1783696319938550500,5.111550537109375,-0.029147184029221535,-0.007075089485384523,0.000564684678055346
1783696319948513300,5.12151318359375,-0.04787234276533127,-0.011856368945166468,-0.004334522072970867
1783696319958477600,5.1314775390625,-0.023051789763569832,-0.012547346884012222,-0.013916041421331465
1783696319968440300,5.1414404296875,-0.027688801914453505,-0.005021883282624185,-0.0023053178003057838
1783696319978403300,5.1514033203125,-0.050884384062886236,-0.012224727333523332,-0.013455438172258435
1783696319988367400,5.161367431640625,-0.0266390006005764,0.007755546030215919,-0.0009194894650951027
1783696319998330400,5.171330322265625,-0.021994974187016486,-0.006135287884622812,0.008974201104976237
1783696320008293400,5.18129345703125,-0.019292729490995406,0.0016421046512201428,-0.00035359921064227816
1783696320018256400,5.19125634765625,-0.03963409125208855,0.019846563981473445,-0.0031129809213802217
1783696320028220400,5.201220458984375,-0.04921148241460323,0.003244133020378649,0.001982405988872051
1783696320038183400,5.211183349609375,-0.012103694769740103,0.013450360138341784,0.006960011738352478
1783696320048146400,5.221146484375,-0.020940496698021886,-0.0025183760290965434,0.0019047376427799461
1783696320058110500,5.2311103515625,-0.019908815562725064,0.00799629598353058,0.0027057883599773047
1783696320068073200,5.2410732421875,-0.018433482313156127,0.00032627281229943037,0.012704144880920648
1783696320078036200,5.2510361328125,-0.016216975307464597,-0.02673029561322182,-0.0015809125158935784
1783696320088000300,5.261000244140625,-0.021322774013876913,-0.010939254100248217,-0.010492862039618193
1783696320097963300,5.27096337890625,-0.029133155503869055,-0.017574746591970322,0.008385843290388583
1783696320107926300,5.28092626953125,-0.014499649995565413,0.003696881756559014,-0.00820624893978238
1783696320117890300,5.290890380859375,-0.017810966500639916,0.0015611483694985507,0.003826024561561644
1783696320127853300,5.300853271484375,-0.039680268481373786,-0.006297236980684101,0.005079860547557473
1783696320137816300,5.31081640625,-0.02219780328273773,0.008217427920922636,0.0004695902731269598
1783696320148403500,5.321403564453125,-0.029255905100703236,0.008602299052663147,-0.0015050342680886387
1783696320158366500,5.331366455078125,-0.02762976520359516,-0.005953026652894914,-0.011297164159826933
1783696320168329500,5.34132958984375,-0.052179684570431706,-0.0013392492471262813,-0.008507789169624448
1783696320178293500,5.35129345703125,-0.04859773443043232,-0.009512034308724104,-0.014600114695355295
1783696320188256500,5.361256591796875,-0.020910101559758185,0.00428640861492604,-0.025503968688659368
1783696320198219300,5.37121923828125,-0.05307867923676967,-0.015377090417221188,-0.016849829850904642
1783696320208183300,5.381183349609375,-0.030327918246388433,-0.010843429042957722,-0.001470255215652287
1783696320218146300,5.391146240234375,-0.0301724354237318,-0.0022813524028286337,0.013626922281645238
1783696320228109300,5.401109375,-0.023435820645093915,-0.007922719290666281,-0.004421908095479011
1783696320238072300,5.411072265625,-0.03585574175715446,0.010171886456944048,0.005019983586482703
1783696320248036400,5.421036376953125,-0.027630349725484848,0.002710062676295638,0.00902472571581602
1783696320257999400,5.430999267578125,-0.014471008422970772,0.005613200239278375,-0.0032214462645351887
1783696320267962400,5.44096240234375,-0.032583588218688966,0.001055354271829128,-0.015125672939419745
1783696320277926400,5.450926513671875,-0.0336363121420145,-0.012185527834296226,-0.008193170262500644
1783696320287889400,5.460889404296875,-0.029295652589201925,0.008183671781793236,-0.004658310667239129
1783696320297852200,5.47085205078125,-0.0358843833297491,-0.00046443917397409677,0.0035209772003814577
1783696320307816400,5.48081640625,-0.02316518701016903,-0.009843713948503136,-0.0026384952774271366
1783696320317779200,5.490779296875,-0.017778233274817465,0.009079341979883611,-0.00017641601283103226
1783696320327742500,5.500742431640625,-0.023167525097727775,-0.007392521404102444,-0.004438676567189395
1783696320337706200,5.510706298828125,-0.030043256086111067,0.00744494571108371,0.0013466288359835744
1783696320347669200,5.520669189453125,-0.02614975577890873,0.0020562018774449822,0.0076958882648497816
1783696320357632500,5.530632568359375,-0.03378068904876709,-0.0011998042438179253,-0.0005956278055906295
1783696320367596300,5.54059619140625,-0.027642040163278578,0.0017419482965022324,0.0008753215298056601
1783696320377559300,5.550559326171875,-0.03766425248384476,-0.008967734831571579,0.015092574387416242
1783696320387522600,5.5605224609375,-0.02030336783826351,-0.009873889891058207,0.019067359769903123
1783696320397485600,5.570485595703125,-0.039598435416817665,-0.0032799349861219523,-0.006134959091059863
1783696320407449600,5.58044970703125,-0.03988835827410221,0.0007858896806836128,-0.015959456882439552
1783696320417412400,5.590412353515625,-0.02866027729511261,0.014208375431410968,-0.0006422434262931346
1783696320427375400,5.600375244140625,-0.022972879308462143,-0.003781564365327358,0.004751213115081191
1783696320437339400,5.61033935546875,-0.009500818794965744,0.008340908170118927,0.006409720911830663
1783696320447302400,5.620302490234375,-0.017886369824409484,-0.014731705185770988,0.012558306669443846
1783696320457265400,5.630265380859375,-0.03315349706113338,-0.015286160730756818,0.011118702320381998
1783696320467851500,5.6408515625,-0.05080956526100635,-0.010194573212787508,0.0037508039008826016
1783696320477815300,5.650815185546875,-0.03809913676977157,-0.010558876480534673,-0.008233758001215756
1783696320487778300,5.6607783203125,-0.0372135861068964,-0.006996361693367361,0.011413155222311615
1783696320497741600,5.670741455078125,-0.04006605292856693,-0.006309000483714044,0.004531615547649562
1783696320507705300,5.680705322265625,-0.022419921600818633,-0.008846008148044347,0.001802190583758056
1783696320517668600,5.690668701171875,-0.04367196846604347,-0.00849335878547281,0.007071838082373142
1783696320527631600,5.700631591796875,-0.030811902371048926,-0.010691124558076262,-0.006941708896681666
1783696320537594600,5.7105947265625,-0.031111762100458143,0.010730762448720633,0.008307517357170582
1783696320547558700,5.72055859375,-0.05132219095826149,0.0047483270382508635,0.0011766790965571999
1783696320557521700,5.730521728515625,-0.030682138511538504,0.006534151009097695,-0.01353047616984695
1783696320567484700,5.740484619140625,-0.042806876069307324,0.013854703155532479,0.006758826610445976
1783696320577448700,5.75044873046875,-0.04775368482172489,-0.005131371539086103,0.0063868514928966755
1783696320587411500,5.760411376953125,-0.02022445738315582,-0.009452230412885546,0.010806531098671256
1783696320597374500,5.77037451171875,-0.024120295777916908,-0.003533763616718352,0.003079370912723243
1783696320607338500,5.78033837890625,-0.03191138804554939,0.01917845546156168,-0.01474441853687167
1783696320617301500,5.790301513671875,-0.04209434388577938,0.004186747632734477,0.007753427138365804
1783696320627264500,5.800264404296875,-0.03746960669457912,-0.01306019177697599,0.0023236937072128056
1783696320637228500,5.810228515625,-0.029392683222889897,0.0009486059617251157,0.007130436401814222
1783696320647191600,5.820191650390625,-0.04884849432110786,-0.016060944495536387,-0.008863726467825472
1783696320657154600,5.830154541015625,-0.024765607944130897,0.0010842515727505087,-0.010221205491386354
1783696320667118600,5.84011865234375,-0.026406945410370825,-0.004792969897575676,-0.0008697320392355323
1783696320677081600,5.85008154296875,-0.036436171993613244,-0.014064984905347227,-0.0003207563869655132
1783696320687044600,5.860044677734375,-0.04346913937032223,-0.008587028418295084,-0.0066857979068532586
1783696320697008600,5.870008544921875,-0.0395838223695755,-0.011081804376095532,0.011654343567043542
1783696320706971400,5.879971435546875,-0.018932079485058782,-0.004152881895750761,0.0006615326486527919
1783696320716934400,5.889934326171875,-0.039276363855600356,0.007971125009655952,0.007657200222276151
1783696320726898400,5.8998984375,-0.030153730723261832,0.0028170667147263883,-0.00021948796957731246
1783696320736861400,5.909861328125,-0.024319617742300032,0.027081447138451037,0.008922799711301922
1783696320746824400,5.919824462890625,-0.041074937710165974,0.01147354364003986,0.003469612339325249
1783696320756787500,5.929787353515625,-0.029551088654994964,0.008904168076068163,0.007643719686195254
1783696320766751500,5.93975146484375,-0.038383214408159255,0.014921236408501863,0.008452807579375802
1783696320776714500,5.949714599609375,-0.04407353500425815,0.007682261598296463,0.0038212753212079403
1783696320786677500,5.959677490234375,-0.014585574713349342,0.00561221385858953,-0.006922529272176325
1783696320796641500,5.9696416015625,-0.03134381729066372,-0.01020228159520775,0.005868124848417937
1783696320806604500,5.9796044921875,-0.023714637586474418,-0.008298420735262334,-0.006742167736589908
1783696320816567300,5.9895673828125,-0.022064532291889188,0.010819390580244361,0.014132131857424974
1783696320826531300,5.99953125,-0.033736849907040595,-0.011593699420988559,-0.007580810517817735
1783696320836494300,6.009494384765625,-0.025656419304013252,0.0039312019690871235,0.004879844463430345
1783696320846457600,6.01945751953125,-0.026701544442772864,-0.011926036647893488,0.007051197153143584
1783696320856421400,6.02942138671875,-0.036572365593910215,-0.014524565241113304,-0.000047784664481878275
1783696320866384400,6.03938427734375,-0.03477437626123428,0.009158581228554247,-0.0022687486495822666
1783696320876347600,6.04934765625,-0.04674538456201553,-0.02594678055271506,0.0017053791457787154
1783696320886311400,6.0593115234375,-0.027436872979998587,-0.0001433174608275294,-0.004334083681553602
1783696320896274700,6.069274658203125,-0.04314823685288429,-0.002791676545143127,0.005328501546382904
1783696320906237700,6.07923779296875,-0.028635142853856085,-0.01114361756592989,0.0014508563954383133
1783696320916201500,6.089201416015625,-0.029524785169959065,0.0035879049567505714,-0.0028692718259990214
1783696320926164700,6.099164794921875,-0.027579496321082114,-0.00452971585150808,0.010802183717116713
1783696320936127500,6.10912744140625,-0.0162082074791193,0.0040563261860981584,-0.0037542744996026155
1783696320946091500,6.119091552734375,-0.028477321943640707,-0.0033991774516180157,-0.00128010293841362
1783696320956054500,6.129054443359375,-0.029376316609978675,-0.00945928120817989,-0.017355952742137012
1783696320966017500,6.139017578125,-0.03760696933865547,0.0038421719787642356,0.003474215449206531
1783696320975981600,6.148981689453125,-0.03207388513088226,-0.016174268676899372,-0.0003616363866254687
1783696320985944600,6.158944580078125,-0.025035072535276412,0.0008823723251000046,-0.011443696491047739
1783696320995907600,6.168907470703125,-0.045240240696072576,0.0005342895397916436,0.004264379446208477
1783696321005871600,6.17887158203125,-0.04165653699040413,-0.009463993915915488,0.003090988285280764
1783696321015834600,6.188834716796875,-0.02324526650905609,0.0028844693951308726,0.004220540304481983
1783696321025797600,6.198797607421875,-0.029235446834564208,-0.006798172240145504,0.002494739425182342
1783696321035760400,6.208760498046875,-0.031183658292889594,0.0071133391365408895,0.002736366161331534
1783696321045724700,6.218724609375,-0.036577626290917396,-0.0029727322004735467,0.0019167203415185212
1783696321055687400,6.2286875,-0.031495208460092544,-0.016525456734746695,-0.002656250129826367
1783696321065650400,6.238650390625,-0.03359247300028801,0.007892287619784473,0.0012692527508363126
1783696321075614500,6.248614501953125,-0.03180909671485424,-0.010402699538134039,0.0014721549117937683
1783696321085577500,6.258577392578125,-0.013700024050474166,-0.00490121604502201,-0.008441884326562284
1783696321095540500,6.26854052734375,-0.034195699590444564,-0.005997998305782675,0.005853438735939562
1783696321105504500,6.27850439453125,-0.03764262517392635,-0.018690818075090647,0.005065978152677416
1783696321115467500,6.288467529296875,-0.04766425297260284,0.0011034677298739552,0.004346906630508601
1783696321125430500,6.298430419921875,-0.04033960917294025,-0.0010512260859832168,0.006088416535593569
1783696321135394600,6.30839453125,-0.028672552254796025,0.00829670370221138,-0.003893609905056655
1783696321145357600,6.318357666015625,-0.03166939598321915,0.00041877340134233236,0.002449512043967843
1783696321155320300,6.3283203125,-0.03287877177298069,-0.016053528374060988,-0.008616875567287206
1783696321165284400,6.338284423828125,-0.018515315377712248,0.005002228734083474,0.0026818229625001546
1783696321175247400,6.348247314453125,-0.026598084068298337,-0.006525163985043764,0.009035575903393328
1783696321185210400,6.35821044921875,-0.019268764093518256,0.0017380758389830588,-0.0026036796923726794
1783696321195174400,6.36817431640625,-0.019120295533537862,0.004114705309830605,0.006585187076590955
1783696321205137400,6.378137451171875,-0.02675824306607246,-0.0024041750648990273,-0.009180719995126128
1783696321215100400,6.388100341796875,-0.0185305129468441,0.012906243324279785,0.0019011209135875104
1783696321225064400,6.398064453125,-0.03544716095626354,-0.002686535670235753,-0.004032689582183957
1783696321235027500,6.40802734375,-0.021832477101683616,-0.0041088600909337395,0.0010380743434652685
1783696321244990500,6.417990478515625,-0.034703649112582204,-0.0033056904818862675,0.006258622003346682
1783696321254954500,6.42795458984375,-0.049370472368597984,-0.004060344774089754,0.004253090867213905
1783696321264917500,6.43791748046875,-0.04069324491620063,0.002689567877538502,-0.0014099398631602525
1783696321274880500,6.447880615234375,-0.026927169892191884,-0.012280658771842718,0.011327193971909582
1783696321284843500,6.457843505859375,-0.019600772526860235,-0.009831037130020558,0.0021508578909561035
1783696321294807600,6.4678076171875,-0.030218612653017042,0.0053417994193732735,-0.0019651260605081915
1783696321304770600,6.4777705078125,-0.03366320014894009,-0.0112436073416844,-0.009686623690649867
1783696321314733600,6.487733642578125,-0.027072715842723846,0.0015977175202220677,0.00768021577168256
1783696321324697600,6.497697509765625,-0.04322948539555072,-0.014905125523917376,-0.006296067936904728
1783696321334660600,6.50766064453125,-0.02825929527878761,-0.008845094832591712,-0.016706110531277952
1783696321344623600,6.51762353515625,-0.013889993664622307,0.0038052009692415593,0.0025605346703901884
1783696321354587600,6.527587646484375,-0.035136195310950274,-0.009537022619508206,0.002685914615727961
1783696321364550700,6.537550537109375,-0.020466449445486066,0.0007166238367557525,0.002924180351011455
1783696321374513700,6.547513671875,-0.02974164279103279,-0.003365129051543772,0.011142631185241043
1783696321384477700,6.557477783203125,-0.030039748954772946,0.013676570109650493,-0.007427519652247428
1783696321394440400,6.5674404296875,-0.03931611134409904,0.016205759793706236,0.003930946240760386
1783696321404403500,6.577403564453125,-0.03123860335052013,-0.0028222178138792514,0.0020895561577752232
1783696321414367500,6.587367431640625,-0.021060323685407636,0.009153758922964333,0.0035130861548706887
1783696321424330500,6.59733056640625,-0.03453179967701435,0.010983568166010082,0.008219108421355486
1783696321434293500,6.60729345703125,-0.01852057607471943,0.008092961291037499,0.0004989624980837106
1783696321444257500,6.617257568359375,-0.030489830809831617,0.005819719129428267,0.0015233371097594498
1783696321454220500,6.627220458984375,-0.03901566709280014,-0.000967091466486454,-0.020044789967313407
1783696321464183600,6.63718359375,-0.04155073852837086,0.01225778935290873,0.00525854158271104
1783696321474147600,6.647147705078125,-0.038111411729454994,-0.0018205299580469727,0.00997903076596558
1783696321484110600,6.657110595703125,-0.01356909114718437,-0.011673486658930778,-0.0032161855675280093
1783696321494073600,6.667073486328125,-0.03601414718925953,0.0028310221748426554,0.0068006929907947775
1783696321504036400,6.677036376953125,-0.04200374299287796,-0.010622772029601038,-0.004326704092696309
1783696321514000400,6.68700048828125,-0.0180599728256464,0.0042932767471298575,-0.0038685850616544484
1783696321523963400,6.69696337890625,-0.02719312735199928,-0.007840520899929105,-0.015976225354149935
1783696321533926400,6.706926513671875,-0.02210720238983631,-0.008666267666965722,-0.0005643924171105026
1783696321543890400,6.716890380859375,-0.0254015677601099,0.0007695961330085992,0.0020360724048689004
1783696321553853400,6.726853515625,-0.032739071041345595,-0.01004201299957931,-0.0007937807261943817
1783696321563816400,6.73681640625,-0.018223638954758644,0.01806618337072432,0.006853884482756257
1783696321573780500,6.746780517578125,-0.04396306036710739,-0.009470058330520987,0.008992540479265152
1783696321583743200,6.7567431640625,-0.031841245418787,-0.0004279430884867906,-0.011423274757526814
1783696321593706500,6.76670654296875,-0.032737901997566224,0.007330050627142191,0.0026264029808342453
1783696321603670300,6.776670166015625,-0.040077158844470974,-0.010843538640812039,0.0015325067969039082
1783696321613633300,6.78663330078125,-0.017625673061609268,0.004473857478424907,-0.0032990050127729774
1783696321623596500,6.796596435546875,-0.04171674274504184,-0.0051064562935382125,0.006103504506871104
1783696321633560300,6.806560302734375,-0.040811902859807014,-0.004446969471499323,-0.011637465497478842
1783696321643523300,6.8165234375,-0.03407294999361038,-0.010586385541968047,0.008723404681682586
1783696321653486600,6.826486572265625,-0.03990472488701343,-0.024533297025598585,-0.012441658019833267
1783696321663450400,6.836450439453125,-0.035706688675284384,-0.0029597265884280205,0.0049824645876884455
1783696321673413600,6.84641357421875,-0.031660628154873846,-0.014388736966997384,-0.0006356310224160551
1783696321683376400,6.85637646484375,-0.02896072154641151,-0.006999759226851165,-0.009535305586457252
1783696321693340400,6.86634033203125,-0.033442835396528245,-0.009138378690741956,-0.0026418562782928347
1783696321703303400,6.876303466796875,-0.032093758875131606,-0.010364669082686304,-0.0008737506272271275
1783696321713266400,6.886266357421875,-0.038517654442787166,0.0017708090648055075,0.006185775962844491
1783696321723230500,6.89623046875,-0.052883448925614356,-0.011050422857142984,0.009139072810485958
1783696321733193500,6.906193359375,-0.018768997877836226,-0.006988945571891963,-0.017750066626258193
1783696321743156500,6.916156494140625,-0.02818739908635616,-0.00165606011133641,-0.0010104556841775774
1783696321753119500,6.926119384765625,-0.045991351324319835,-0.014566139360517262,-0.0022405820010229943
1783696321763083500,6.93608349609375,-0.031471243062615395,0.007257131521403789,-0.0004117226060479879
1783696321773046500,6.946046630859375,-0.03566460309922695,-0.004358998927101493,0.02415675533078611
1783696321783009500,6.956009521484375,-0.03043079409897327,-0.006438764343224466,0.00372892086263746
1783696321792973600,6.9659736328125,-0.040453590941429134,0.002400521803088486,0.0031836350047960878
1783696321802936300,6.975936279296875,-0.03761398360133171,-0.0027876214245334268,0.0011254968985915184
1783696321812899300,6.9858994140625,-0.03162380327582359,0.006157207455486059,0.00778013248220086
1783696321822863400,6.99586328125,-0.039998248389363285,-0.0036127471370622512,-0.004285641429945826
1783696321832826400,7.005826416015625,-0.02637713479399681,-0.008332432602718471,-0.0066947849309071895
1783696321842789400,7.015789306640625,-0.028612931022047997,0.005444163815304636,0.015825016847811638
1783696321852753400,7.02575341796875,-0.02876607575714588,-0.010089578468352556,-0.002366948327049613
1783696321862716400,7.03571630859375,-0.030705519387125967,0.01499689546059817,-0.0047082872888073325
1783696321872679400,7.045679443359375,-0.03863981951773166,-0.004887479780614375,0.006441540822200477
1783696321882643500,7.0556435546875,-0.02457505380809307,-0.0016134996112436054,-0.002481916476227343
1783696321892606500,7.0656064453125,-0.02921791117787361,-0.0025812486648559567,-0.00006374941859394312
1783696321902569500,7.075569580078125,-0.03490764725208282,-0.009939831266738473,-0.004585355028882622
1783696321912533500,7.085533447265625,-0.034758594170212744,-0.000673880673572421,-0.01173047754317522
1783696321922496300,7.095496337890625,-0.03415945923328399,-0.0054461365766823285,0.009178381907567382
1783696321932459300,7.105459228515625,-0.02353986554145813,-0.011795103744603692,-0.009047047145478427
1783696321942423300,7.11542333984375,-0.02398936287462711,-0.01446688023712486,0.010693535710871218
1783696321952386300,7.12538623046875,-0.036106501647830004,-0.017074980376288292,0.0021434052368625995
1783696321962349300,7.135349365234375,-0.028323592686653135,-0.00484301958438009,0.0011021890882402657
1783696321972313300,7.145313232421875,-0.025333763220906257,-0.007170476151257753,0.00831412976104766
1783696321982276400,7.1552763671875,-0.03656184419989586,-0.012950374726951121,-0.00402278924267739
1783696321992239400,7.1652392578125,-0.032227029865980146,0.019462386969476938,0.006009542613103986
1783696322002202600,7.17520263671875,-0.03627016777694225,-0.009075250326655805,-0.004738353633508086
1783696322012166400,7.18516650390625,-0.0219072959035635,0.0048126244461163875,0.001360620828717947
1783696322022129400,7.19512939453125,-0.044516602596640586,-0.0016994243290275335,0.015537432078085838
1783696322032092400,7.205092529296875,-0.020439561438560485,-0.00944368178024888,-0.0024004487378522753
1783696322042056400,7.215056396484375,-0.006084872871637344,-0.0019251228436827658,0.0060404492080211635
1783696322052019500,7.22501953125,-0.029146599507331845,-0.004503741160035133,-0.00996127591356635
1783696322061982500,7.234982421875,-0.027951836764812468,0.0013863397918641566,-0.0009880977218970656
1783696322071946500,7.244946533203125,-0.03154372377693653,-0.013086239533685148,-0.004312712099961936
1783696322081909500,7.254909423828125,-0.03783025670051574,-0.01115969191789627,-0.007231485623493791
1783696322091872500,7.26487255859375,-0.012387772408127783,-0.008932955779135226,0.00793309455420822
1783696322101836500,7.27483642578125,-0.042618660020828245,-0.010390643774159252,-0.007263670860044658
1783696322111799600,7.284799560546875,-0.03200315798223018,-0.005944551085494458,-0.00027680764738470314
1783696322121762600,7.294762451171875,-0.030808395239710806,0.00020834552105516193,0.0008254910387098789
1783696322131726600,7.3047265625,-0.018092706051468847,-0.008049670138582586,-0.010009535502083599
1783696322141689600,7.314689697265625,-0.03844283564090729,0.0037003888878971336,-0.00817647485602647
1783696322151652400,7.32465234375,-0.03560673543214798,-0.008624145558290183,0.008208587027341127
1783696322161616400,7.334616455078125,-0.012564882540702819,-0.003971862773038446,-0.006555960982106626
1783696322171579400,7.344579345703125,-0.03470774076581001,-0.003695310853980481,-0.0006496595477685332
1783696322181542400,7.35454248046875,-0.03560673543214798,-0.00987958897948265,-0.002495323947072029
1783696322191506400,7.36450634765625,-0.03201309485435486,0.013098258765041827,0.0006623728988692164
1783696322201469400,7.374469482421875,-0.027675357910990715,-0.000017133797891438006,-0.002490611239336431
1783696322211432400,7.384432373046875,-0.030664602854847907,0.01103540795110166,0.005519640204310417
1783696322221396500,7.394396484375,-0.03126373779177666,-0.0006241963129490613,-0.005100464944168925
1783696322231359500,7.404359375,-0.0221381820499897,-0.0036201267259195445,-0.0005483911303803325
1783696322241322500,7.414322509765625,-0.022140520137548445,0.026069603214785454,-0.0039970702795311805
1783696322251286500,7.42428662109375,-0.03321896351277828,-0.004543269452825189,-0.012014007192291318
1783696322261249500,7.43424951171875,-0.04085223487019539,0.0022061682747676965,0.00043952392842620607
1783696322271212300,7.44421240234375,-0.02543605455160141,0.003367868997901678,0.0023285890780389306
1783696322281176300,7.45417626953125,-0.03142038965821266,-0.013244389237463473,-0.009371201065927743
1783696322291139300,7.464139404296875,-0.03844984990358352,0.010337890673615038,-0.0026633009251207113
1783696322301102300,7.474102294921875,-0.026331542086601257,-0.001666983364149928,-0.008393186346627772
1783696322311065300,7.4840654296875,-0.02064239053428173,0.004353044110350311,-0.011466638975217937
1783696322321029400,7.494029296875,-0.03919979148805141,-0.005085815364308655,0.01016224184576422
1783696322330992400,7.503992431640625,-0.03531564353108406,-0.006282295139878988,-0.0017739143373444676
1783696322340955400,7.513955322265625,-0.03575871112346649,-0.005705737360939383,-0.0017674845965579152
1783696322350919400,7.52391943359375,-0.03680792791545391,0.0004421542769297957,-0.0009913125922903418
1783696322360882400,7.53388232421875,-0.024386253237724302,-0.004343910955823958,-0.0017917422549799083
1783696322370845400,7.543845458984375,-0.04099076655805111,0.0027831644451245664,0.010411175105534493
1783696322380809500,7.5538095703125,-0.037252164551615716,-0.002316167987883091,-0.005969575928896665
1783696322390772200,7.563772216796875,-0.03321078020632267,0.005166917776502669,0.007458681975491345
1783696322400735500,7.573735595703125,-0.038003859701752664,-0.00043912206962704655,0.006291684022732079
1783696322410699300,7.58369921875,-0.022741408640146253,-0.0006072451781481504,-0.010872801267914473
1783696322420662500,7.59366259765625,-0.040544191834330556,0.006997749932855367,0.006244228151813149
1783696322430625500,7.60362548828125,-0.03591010229289532,0.00626651304885745,-0.013392675134353339
1783696322440589300,7.61358935546875,-0.03411211296021938,0.007041589074581861,0.009554777471907437
1783696322450552600,7.623552490234375,-0.03186462629437446,-0.0026740049822255967,0.015441278227232395
1783696322460515600,7.633515625,-0.029468671068549154,0.01133048190753907,0.012474135517328977
1783696322470479600,7.643479736328125,-0.03604688041508198,0.0069281918279826635,0.005806969245709478
1783696322480442600,7.653442626953125,-0.017935469663143157,-0.0100541052961722,-0.004274572046659887
1783696322490405400,7.6634052734375,-0.02002455089688301,0.002423318156786263,0.0018152692610397933
1783696322500369700,7.67336962890625,-0.046968671923875806,-0.0027195976896211504,0.0013537892291322349
1783696322510332400,7.68333251953125,-0.02856266213953495,0.005656600989587605,-0.005086180690489709
1783696322520295400,7.69329541015625,-0.03633680327236652,-0.00935625922512263,0.007206789573654532
1783696322530259500,7.703259521484375,-0.029605449190735815,-0.010359810244478285,-0.013593531468696891
1783696322540222500,7.713222412109375,-0.02856266213953495,0.006148476159758866,0.020592231249623
1783696322550185500,7.723185546875,-0.04906301385462284,-0.006210654675774276,0.012738814335502684
1783696322560148500,7.7331484375,-0.03349953401982784,-0.014295834519155323,0.003727678753621876
1783696322570112500,7.743112548828125,-0.026018822875618932,-0.007730448121577501,0.010233042059652506
1783696322580075500,7.753075439453125,-0.024529461100697515,0.0009134615831077099,-0.011118775385618208
1783696322590038300,7.763038330078125,-0.03216156341433525,0.007126856205239892,-0.014648264686018228
1783696322600002300,7.773002197265625,-0.040840544432401656,-0.008237849654443562,0.007594035325571894
1783696322609965300,7.78296533203125,-0.022731471768021583,-0.001115085102431476,-0.0024393559761345385
1783696322619928300,7.79292822265625,-0.03245090174973011,0.0037367753755301234,-0.006115998662263155
1783696322629892400,7.802892333984375,-0.02706862418949604,-0.01380922004599124,-0.009725677059404551
1783696322639855400,7.81285546875,-0.0022287819653749466,0.0165025507831946,-0.006096636374667287
1783696322649818400,7.822818359375,-0.026468904730677603,0.005423632483929395,0.014387567923218011
1783696322659782400,7.832782470703125,-0.031412206351757045,-0.001629354767501354,-0.002209821536578238
1783696322669745400,7.842745361328125,-0.030812486892938612,-0.0022244711164385077,0.0025537761360406876
1783696322679708400,7.85270849609375,-0.020488661277294158,-0.012105229139700531,0.0009454641565680503
1783696322689672400,7.86267236328125,-0.025721885755658147,0.007156338028050959,-0.000918722280114889
1783696322699635500,7.872635498046875,-0.038887656798958774,0.0028900223530828953,0.010190518092177808
1783696322709598200,7.88259814453125,-0.025872692403197287,0.006697305681556463,-0.008649974119290709
1783696322719562200,7.892562255859375,-0.03604395780563354,0.00013286913204938171,-0.006843180425651371
1783696322729525200,7.902525146484375,-0.04128068941533565,-0.010400763309374452,-0.0023052082024514675
1783696322739488300,7.91248828125,-0.015245499926805496,0.006363397552073002,-0.003903692907653749
1783696322749452300,7.922452392578125,-0.021531448328495024,-0.011835435754992067,0.004880173256993294
1783696322759415300,7.932415283203125,-0.026622633987665175,-0.004145977230928838,-0.000025499767437577247
1783696322769378300,7.94237841796875,-0.027818565773963928,-0.0005974544364959002,0.015554712006449698
1783696322779342300,7.95234228515625,-0.02827157023847103,-0.01941715958826244,0.008451346274651586
1783696322789305300,7.962305419921875,-0.03245850053429603,0.008251147527433932,-0.007021203873679042
1783696322799268600,7.9722685546875,-0.044732291173934936,-0.010471307794936,0.003968903630971909
1783696322809231400,7.9822314453125,-0.03111877636313438,-0.0034819238316267727,0.0015375848308205604
1783696322819195400,7.9921953125,-0.023336451923847198,-0.0016110153932124376,0.013527882353961468
1783696322829158400,8.002158447265625,-0.02528700146973133,0.0010933116620406508,-0.006719517513364553
1783696322839121400,8.012121337890624,-0.038003275179862975,0.0031697526099160314,-0.008877097406052052
1783696322849085400,8.02208544921875,-0.040842297998070716,-0.01042505750041455,-0.007221658349223435
1783696322859048400,8.03204833984375,-0.03411035939455032,-0.010201989334262907,-0.021789003286138177
1783696322869011500,8.042011474609374,-0.02199263609945774,0.005278963316231965,0.013669190520793198
1783696322878975500,8.0519755859375,-0.034411388167738914,-0.019043029046244917,0.0034216450117528436
1783696322888938500,8.0619384765625,-0.030066052439808845,-0.005316555380262434,0.008400419805012643
1783696322898901500,8.071901611328125,-0.026623803031444546,-0.003940663917176426,0.004607238067127764
1783696322908865500,8.081865478515626,-0.02752221317589283,0.00223130271602422,-0.012482903345674276
1783696322918828500,8.09182861328125,-0.02093640504479408,0.01304561526235193,0.004322868167795241
1783696322928791300,8.101791259765625,-0.03934475291669368,0.000041647184640169144,-0.004001198465377092
1783696322938755300,8.11175537109375,-0.027222937968373297,0.0021660189274698496,0.010602642557024955
1783696322948718300,8.12171826171875,-0.031410452786087985,-0.0007884104313328862,0.010482559841312468
1783696322958681300,8.131681396484375,-0.007618658310174942,-0.0038192660272121427,-0.011450199297070503
1783696322968645400,8.141645263671874,-0.027073300364613532,0.0118018988115713,0.0043783977473154665
1783696322978608400,8.1516083984375,-0.031123452538251876,-0.00702774321231991,0.003700315822660923
1783696322988571400,8.1615712890625,-0.01780979745686054,0.006157426651194692,0.009480689322389662
1783696322998535400,8.171535400390624,-0.04324643653035164,-0.007219356794282794,-0.0021725947987288234
1783696323008498400,8.18149853515625,-0.0320201091170311,0.0024186054490506646,-0.007099310611188412
1783696323018461400,8.19146142578125,-0.022449147695302964,0.002278100999817252,-0.003244754074886441
1783696323028425500,8.201425537109374,-0.045349546289443966,-0.004793956278264522,-0.004266388740204274
1783696323038388500,8.211388427734375,-0.009437105908989905,0.005073321208916604,0.006836969880573451
1783696323048351200,8.221351318359375,-0.032034137642383574,-0.007921513714268804,0.008200111459940672
1783696323058314200,8.231314208984376,-0.02455459554195404,-0.01916731301303953,-0.01025912634897977
1783696323068278300,8.2412783203125,-0.02694178293943405,0.003984320395812392,0.006198343183472752
1783696323078241300,8.2512412109375,-0.046398763081431385,0.00005527385119348764,-0.00908405468761921
1783696323088204300,8.261204345703124,-0.02350654779374599,0.002762961907312274,-0.006647073331661522
1783696323098168300,8.271168212890625,-0.03608019816279411,-0.0033177827784791588,0.008503332190215587
1783696323108131300,8.28113134765625,-0.03758008133172989,-0.0068622504523023955,-0.0022258593559265137
1783696323118094300,8.29109423828125,-0.03114624889194965,0.008102021380327642,0.003631524902768433
1783696323128058400,8.301058349609375,-0.039379239708185194,0.009636866264790296,0.000967456792667508
1783696323138021400,8.311021484375,-0.02651391291618347,0.01088803536966443,-0.003500226673297584
1783696323147984400,8.320984375,-0.030406828701496122,-0.0065504445567727086,0.005315203673392534
1783696323157948400,8.330948486328126,-0.02173427742421627,0.009770539114437997,-0.006048669047094881
1783696323167911200,8.3409111328125,-0.03370528572499752,0.002499050274118781,0.0036090208100154992
1783696323177874400,8.35087451171875,-0.04298807785511016,0.0012276055661961435,-0.008165661201067268
1783696323187838200,8.360838134765626,-0.013057634493708609,0.010956241767667234,0.0029798925936222074
1783696323197801500,8.370801513671875,-0.022186697366833687,0.002551620711572468,0.010180727350525557
1783696323207764500,8.380764404296874,-0.043130116674304005,-0.010728899285197257,-0.013341748664714395
1783696323217728300,8.390728271484376,-0.029358780953288078,0.008416822950541972,-0.013609569288045168
1783696323227691500,8.40069140625,-0.035193478456139564,-0.0036935572883114217,-0.008263166758790613
1783696323237654500,8.410654541015624,-0.03129588649570942,0.011512998867593705,0.010914996441826223
1783696323247618600,8.42061865234375,-0.03174246121942997,-0.007186221709661185,-0.010859868721105158
1783696323257581600,8.43058154296875,-0.035489246532320974,-0.010821984396129846,-0.004841777475364506
1783696323267544300,8.44054443359375,-0.016338555860519407,0.011130575421266256,-0.0017536752669140695
1783696323277508600,8.450508544921876,-0.03355447907745838,0.001238748014718294,0.004722535009868443
1783696323287471400,8.460471435546875,-0.032656653454899785,0.009497055935300886,0.001392404206469655
1783696323297434400,8.470434326171874,-0.03685527418851852,0.011137187825143337,0.0039986777147278186
1783696323307398400,8.4803984375,-0.038812837997078894,0.009021985769458115,0.0077712185233831405
1783696323317361400,8.490361328125,-0.017719196563959122,-0.0002582856100052595,0.0017500220051035284
1783696323327324400,8.500324462890624,-0.025659341913461683,-0.00015763824712485073,0.0012772168615832924
1783696323337287400,8.510287353515626,-0.03493570430278778,0.004154818124510348,-0.009942826941423118
1783696323347251500,8.52025146484375,-0.027897476229071617,-0.00008099281433969736,0.007477642404288053
1783696323357214500,8.53021435546875,-0.03702537005841732,-0.012958777229115367,-0.0047765667520463465
1783696323367177500,8.540177490234376,-0.025945173117518424,0.004577975440025329,-0.0004772255903109908
1783696323377141500,8.5501416015625,-0.0419581502854824,-0.015279365663789212,0.0013117767183110118
1783696323387104300,8.560104248046875,-0.044051323172450065,0.009860774681158363,0.0014118395593017339
1783696323397067300,8.5700673828125,-0.041056233009696005,0.00944591026995331,0.004743249004334211
1783696323407031300,8.58003125,-0.021754735690355298,-0.002031030903570354,-0.006495353368669748
1783696323416994300,8.589994384765625,-0.04015782286524772,0.005772847780399024,-0.007793868746608495
1783696323426957300,8.599957275390626,-0.031029929035902022,-0.00010342384185642004,-0.004290500268153846
1783696323436921300,8.60992138671875,-0.022202479457855223,-0.0028418358298018575,-0.009191460584849119
1783696323446884400,8.61988427734375,-0.038213118538260454,0.004504033420979977,0.019061441485770044
1783696323456847400,8.629847412109376,-0.035973230656981464,-0.00949303734730929,-0.003931348099559545
1783696323466811400,8.639811279296875,-0.03283201002180576,0.001328216396458447,0.01713423628285527
1783696323476774400,8.6497744140625,-0.04016717521548271,-0.013452990486845373,0.009846198166534304
1783696323486737400,8.6597373046875,-0.03373042016625404,0.0022384631091728804,0.000668108519911766
1783696323496701400,8.669701416015625,-0.02519406248927116,-0.001550955769047141,0.009521642387285829
1783696323506664200,8.679664306640625,-0.017110709276795387,-0.007546689052507281,-0.018493030480667947
1783696323516627200,8.689627197265626,-0.027283143723011015,0.0004971358671784401,-0.010894793904013931
1783696323526592000,8.699592041015626,-0.03880465469062328,-0.015357545466534792,0.0022534780152142046
1783696323536555000,8.709554931640625,-0.02817921577990055,0.004709346734732389,-0.007980806153453887
1783696323546518000,8.71951806640625,-0.0304208572268486,0.014738865578919649,0.0032994799368083476
1783696323556482000,8.72948193359375,-0.029523616126179694,-0.021605098086595532,-0.0037406478330492972
1783696323566445000,8.739445068359375,-0.023538696497678754,0.007610584601573646,-0.005261464192159474
1783696323576408000,8.749407958984374,-0.036411037552356716,0.00017447978407144545,-0.0008880714135244488
1783696323586372000,8.7593720703125,-0.03356967664659023,0.005498012894392014,-0.0000036167291924357413
1783696323596335000,8.769335205078125,-0.0497357985496521,0.010114237985573708,-0.0066061202667653555
1783696323606297900,8.7792978515625,-0.03642798868715763,0.003106770376302302,-0.016277911714464424
1783696323616262000,8.789261962890626,-0.024008067575097082,0.009573336041904985,0.0016362959649413823
1783696323626225000,8.799224853515625,-0.029841011512279508,-0.004506846432574093,0.011904847729392348
1783696323636188000,8.80918798828125,-0.03149228585064411,-0.0020481647014617918,-0.01481806829497218
1783696323646152000,8.81915185546875,-0.021469489008188247,0.012855170724168419,0.005647687030769884
1783696323656115000,8.829114990234375,-0.037332244050502776,-0.004654511274956166,-0.007180193827673792
1783696323666078200,8.839078125,-0.022075053685903546,0.008950016511790454,-0.006145407419838011
1783696323676041200,8.849041259765626,-0.0370393985837698,0.017611608003638684,0.0016680793426930903
1783696323686005000,8.8590048828125,-0.04018412635028362,-0.002732603301666677,-0.012777502378076315
1783696323695968300,8.86896826171875,-0.016233926442265508,0.006334536783769726,0.0030686668556183577
1783696323705931000,8.878930908203126,-0.03912438816428184,-0.007029423712752759,-0.008209792603738605
1783696323715895000,8.88889501953125,-0.023557985720038414,-0.00545377189386636,-0.007334836400113999
1783696323725858000,8.898858154296875,-0.025345453658699987,-0.00012158055305480956,0.0023773966558277605
1783696323735821000,8.908821044921876,-0.038061142846941946,-0.001912701753526926,-0.004709602463059127
1783696323745785000,8.91878515625,-0.028776597151160238,0.005645385475829243,-0.002268967845290899
1783696323755748000,8.928748046875,-0.028022563913464544,0.0023931787468492983,-0.0024457491843029857
1783696323765711000,8.938711181640626,-0.017542086431384087,0.013970401957072318,-0.013553857045434414
1783696323775675100,8.948675048828125,-0.03415419853627682,0.014480105044879019,0.016206015522032977
1783696323785638100,8.95863818359375,-0.023983517655730247,0.006051883917488158,-0.004141227990575135
1783696323795601200,8.96860107421875,-0.03280687558054924,0.01605805841870606,-0.003212714968807995
1783696323805565200,8.978565185546875,-0.0443371543765068,-0.004479666164703667,0.0018029577687382697
1783696323815528200,8.988528076171875,-0.028776012629270552,-0.005553067549876868,-0.010852854458428918
1783696323825491000,8.998490966796876,-0.024729952108860014,0.012026318684592842,-0.007328406659327447
1783696323835455000,9.008455078125,-0.03325812647938728,-0.006259864112362265,-0.007616027961671352
1783696323845418000,9.01841796875,-0.031306992411613464,-0.005491327425278723,-0.01884334175568074
1783696323855381000,9.028381103515626,-0.0336930107653141,-0.0031987960413098334,-0.00383011621478945
1783696323865345000,9.038344970703125,-0.024708909320831297,-0.0057109249927103515,-0.011612075327895582
1783696323875308000,9.04830810546875,-0.02455284197628498,-0.002011778213828802,0.005465571929514408
1783696323885271000,9.05827099609375,-0.027398294535279272,-0.00616261428296566,0.004438566969335079
1783696323895234000,9.068234130859375,-0.021560674422979355,0.0036833646878600117,0.0048699075913056725
1783696323905198000,9.078197998046875,-0.025450083076953886,0.007287672790139913,-0.007596848337166011
1783696323915161000,9.0881611328125,-0.03382920436561108,-0.004373794637434185,-0.01675192243438214
1783696323925124000,9.0981240234375,-0.03278057209551334,0.01896437431946397,0.005969648994132876
1783696323935088000,9.108088134765625,-0.029340660774707792,-0.006471387971192598,-0.009401303943246602
1783696323945051000,9.11805078125,-0.025748189240694046,0.007406513396836817,-0.0017537117995321749
1783696323955014000,9.128013916015625,-0.04744564178586006,0.005211304907500744,0.011056231543421745
1783696323964978000,9.13797802734375,-0.04235679421424866,-0.007983217306248843,-0.004065568938478827
1783696323974941000,9.14794091796875,-0.03427461004555225,0.013366517779789864,-0.0032899449234828353
1783696323984904000,9.157904052734375,-0.03113280488848686,-0.0023715149043127895,-0.003091718937642872
1783696323994868000,9.167867919921875,-0.03741524615883827,0.0022134382657706736,-0.01656027231980115
1783696324004831000,9.1778310546875,-0.034416064342856406,0.009761369427293538,0.0020702304027974605
1783696324014794000,9.1877939453125,-0.037409400939941405,-0.014321188156120478,-0.009290719708241522
1783696324024758000,9.197758056640625,-0.02379120995402336,0.0027541575463488695,-0.003813786134496331
1783696324034721000,9.207720947265624,-0.03680851243734359,0.00453990845195949,0.01621536787226796
1783696324044684300,9.217684326171875,-0.02424129180908203,-0.001543247386626899,-0.005926430906914174
1783696324054648000,9.22764794921875,-0.027981062859296798,0.014836919125914573,0.002471723875775933
1783696324064611000,9.237611083984374,-0.03576864799559116,-0.0025505977982655166,-0.0037887978237122295
1783696324074574000,9.247573974609375,-0.03442132503986359,-0.011272285446897148,-0.015269209595955907
1783696324084537900,9.257537841796875,-0.03501870641112327,0.011010200444608926,0.0055210649764165275
1783696324094501000,9.267501220703124,-0.03382745079994202,-0.0056709583085030315,-0.0030896731110289693
1783696324104464100,9.277464111328126,-0.024092238727211952,0.012158859023079276,-0.003026727410033345
1783696324114427100,9.28742724609375,-0.03980243355631828,-0.010046360381133854,-0.002104571063816547
1783696324124391200,9.29739111328125,-0.02498947982788086,0.010304828654229641,-0.015837839796766638
1783696324134354200,9.307354248046876,-0.021996727752685546,0.007799713965505361,0.004153539482876658
1783696324148676000,9.321676025390625,-0.03935936596393585,-0.0026235534366220235,-0.011333696777932346
1783696324158640000,9.33164013671875,-0.028733927053213117,-0.0012515344310551882,-0.003913045257888734
1783696324168603000,9.341602783203125,-0.03831248725950718,0.0021641557639464734,0.0003555719720199704
1783696324178566000,9.35156591796875,-0.02858136684000492,-0.014834727168828249,-0.011789989178068935
1783696324188530000,9.361530029296874,-0.026191256833076475,0.0011192132882773876,0.0036267756624147295
1783696324198493000,9.371492919921875,-0.04474515065550804,0.0048055736508220434,-0.0002306669507175684
1783696324208456000,9.3814560546875,-0.036066169637441636,-0.0057721171280369155,-0.007464198400825262
1783696324218420000,9.391419921875,-0.03711830903887749,-0.004814268413931131,0.005145911521092057
1783696324228383000,9.401383056640626,-0.02889408605098724,-0.009864391410350799,-0.012545410655252635
1783696324238346000,9.411345947265625,-0.02485036361813545,0.0010441752906888723,-0.004230440643988549
1783696324248310000,9.42131005859375,-0.043111411973834037,-0.010153547082655132,-0.0032331732349470256
1783696324258273000,9.43127294921875,-0.020813070926070213,-0.006905139745958149,-0.0012901494083926081
1783696324268236300,9.441236328125,-0.014668576821684836,0.0071835548285394905,0.005489939185790717
1783696324278200000,9.451199951171875,-0.04579495196938514,-0.011543247875384986,-0.009389686570689082
1783696324288163000,9.4611630859375,-0.019008651852607725,0.007363112646527588,-0.002154511152766645
1783696324298126000,9.4711259765625,-0.03188216195106506,0.009025748629122973,0.007383680510520935
1783696324308089900,9.48108984375,-0.04160802167356014,-0.005356777792796493,0.006493417139910161
1783696324318053000,9.49105322265625,-0.042052842831611634,-0.000024294191040098666,-0.0065763461830094455
1783696324328016100,9.50101611328125,-0.030087095227837563,-0.003303790785744786,-0.006447568704187869
1783696324337980000,9.51097998046875,-0.009438859474658966,-0.0033919439932331443,-0.0033272812591865655
1783696324347943200,9.520943115234376,-0.03517769636511803,-0.0069725424263626335,-0.0067569634469226
1783696324357906200,9.53090625,-0.03293371683061123,-0.004009162576124072,-0.009990611605904996
1783696324367870200,9.5408701171875,-0.03128185797035694,0.012221147136949002,-0.005708331176824868
1783696324377833200,9.550833251953126,-0.023198504757881162,-0.01093205717448145,-0.004452558962069452
1783696324387796200,9.560796142578125,-0.019759762480854988,-0.00466196392904967,-0.016772161504812536
1783696324397759000,9.570759033203124,-0.02230535531044006,0.010890921446494757,-0.0007019377242773771
1783696324407723000,9.580722900390626,-0.04191255757808685,0.005959419861063361,-0.0028212679658085106
1783696324417686000,9.59068603515625,-0.025905425629019735,0.010509411315619945,-0.01835099166147411
1783696324427649000,9.60064892578125,-0.02770166139602661,0.0015261501213535665,-0.004114230385795235
1783696324437613000,9.610613037109376,-0.031437925314903255,-0.006686272830888629,-0.012747655229084193
1783696324447576000,9.620576171875,-0.023803484913706777,0.0002994944032281637,-0.008433993281051516
1783696324457539000,9.6305390625,-0.029043723654747007,0.0026532179225236176,-0.006198818107508122
1783696324468125200,9.641125244140625,-0.03921031288206577,0.007707980561442672,0.0014141411142423747
1783696324478088200,9.651088134765626,-0.015115736067295073,0.00780895671788603,-0.004898804892227053
1783696324488052200,9.66105224609375,-0.027684125739336013,-0.006900207842513918,-0.006821443517878651
1783696324498015200,9.67101513671875,-0.035460020437836644,-0.011008264215849339,0.0022588117774575947
1783696324507978000,9.68097802734375,-0.02095043357014656,-0.0005523731857538223,0.0040645460251718755
1783696324517942000,9.69094189453125,-0.020050854381918906,0.0010739493744447827,0.0020950360504910347
1783696324527904800,9.70090478515625,-0.050125674650073046,-0.003241466139256954,-0.0077223378803581
1783696324537867800,9.71086767578125,-0.028879473003745076,-0.0026587708804756403,-0.004334302877262234
1783696324547831800,9.720831787109375,-0.03561316517293453,0.002102963628619909,0.007662424386665224
1783696324557794800,9.730794921875,-0.04174538431763649,-0.006488229508139193,-0.010601400448009371
1783696324567757800,9.7407578125,-0.03456394838094711,0.00478219277523458,-0.008522329151630401
1783696324577721900,9.750721923828126,-0.027236966493725773,0.00474628121163696,0.011369060352258384
1783696324587684900,9.760684814453125,-0.028436405411362647,-0.0012034575056284666,-0.0002690627323463559
1783696324597647600,9.770647705078124,-0.027385435053706168,0.006365187650360166,-0.004929273095726967
1783696324607611600,9.780611572265625,-0.035011692148447036,-0.018505415038205682,-0.003843267957307398
1783696324617574700,9.79057470703125,-0.023041268369555473,-0.005962050209566951,0.0006856076439842581
1783696324627537700,9.80053759765625,-0.01749649372398853,0.0065692588550969955,-0.0012491598108783364
1783696324637501700,9.810501708984376,-0.0406903223067522,-0.006746697781234979,-0.009920213250815867
1783696324647464700,9.820464599609375,-0.034708325287699696,0.005105616043321788,0.0027115239810198543
1783696324657427700,9.830427734375,-0.02707154679894447,0.009697620008699595,0.0050186318796128036
1783696324667390700,9.840390625,-0.024527707535028455,-0.0031458968102931976,0.0015372560372576116
1783696324677354800,9.850354736328125,-0.029759762969613072,-0.0025126769406720994,0.007525646264478564
1783696324687317800,9.86031787109375,-0.03245090174973011,-0.006107084703445434,0.004468706379272044
1783696324697280800,9.87028076171875,-0.02497252869307995,0.002259907756000757,-0.004994008895009756
1783696324707244800,9.880244873046875,-0.04263093498051166,0.003032828357256949,0.009379457437619566
1783696324717207600,9.89020751953125,-0.024976035824418066,0.0006929507002234459,-0.002599478441290557
1783696324727170800,9.9001708984375,-0.024676760616898535,-0.001867437839694321,0.0038553967865183948
1783696324737134600,9.910134521484375,-0.03484685697555542,-0.006847345144115388,0.002863207411393523
1783696324747097900,9.920097900390624,-0.03454875081181526,-0.006100801093131303,0.0033364144137129187
1783696324757060900,9.930060791015626,-0.03783551739752292,-0.0045133127059787505,-0.006609079408831894
1783696324767024600,9.940024658203125,-0.0432218866109848,-0.008208294766396283,-0.0039794615576043725
1783696324776988000,9.94998779296875,-0.017636778977513312,0.011526369805820285,-0.012262502060644328
1783696324786951000,9.959950927734376,-0.03813186999559402,0.00042578766401857136,0.004831548342294991
1783696324796914700,9.969914794921875,-0.03393850995898247,-0.0022538433413952586,0.007401618026010691
1783696324806878000,9.9798779296875,-0.03274199365079403,0.010588760162144899,0.007618000723049044
1783696324816840700,9.9898408203125,-0.026008886003494262,-0.0021333222342655063,-0.020206848661229012
1783696324826805000,9.999804931640625,-0.03334405119717121,-0.00487454723380506,-0.013364216224849223
1783696324836767700,10.009767822265625,-0.02227671373784542,0.0046302536165341735,0.005847593517042696
1783696324846730800,10.019730712890626,-0.03498889579474926,-0.01084806868545711,0.0018539573036134242
1783696324856694800,10.02969482421875,-0.03393909448087215,-0.0058753217741847035,-0.006749766521155834
1783696324866657800,10.03965771484375,-0.03587561550140381,0.002000781895779073,-0.002289462644048035
1783696324876620800,10.049620849609376,-0.02555062084197998,-0.007008307859487831,-0.0050958253016695374
1783696324886584800,10.059584716796875,-0.02435293549001217,-0.006760908969677984,-0.012081336807459592
1783696324896547800,10.0695478515625,-0.036325697356462475,0.005378989624604582,-0.005171447821147739
1783696324906510800,10.0795107421875,-0.030341362249851227,-0.008924114885553718,-0.004165631779469549
1783696324916475000,10.089474853515625,-0.022114801174402236,0.0005153291109949351,0.013428477100096642
1783696324926438000,10.09943798828125,-0.03737316058278083,-0.013606062156707047,0.006772343679144978
1783696324936400600,10.109400634765626,-0.025553543451428413,-0.002225384431891143,-0.005009389127232134
1783696324946365000,10.119364990234375,-0.01223930384814739,0.011348894347064197,0.007227722763828933
1783696324956327700,10.12932763671875,-0.09828969383835792,0.02200593397244811,-0.024618966015055775
1783696324966290700,10.139290771484376,-0.29331483781039713,0.14395437049157916,-0.19599910357072947
1783696324976254700,10.149254638671875,0.2831424033641815,0.29795904688704755,-0.15572669614879414
1783696324986217700,10.1592177734375,0.31664076834022997,0.029627807153016328,0.19076005213977767
1783696324996180700,10.1691806640625,-0.20787994937002657,-0.5459197718307376,0.2884942675198428
1783696325006144800,10.179144775390625,-0.4283832334697246,-0.24404501280467955,-0.009958828228153287
1783696325016107800,10.189107666015625,-0.1318710609227419,0.2722795024357736,-0.14045377849210053
1783696325026070800,10.19907080078125,0.12263386150002478,-0.06313519568573683,0.00647646600510925
1783696325036034800,10.209034912109376,0.28498832349181175,-0.049094870297610754,0.10846022858843207
1783696325045997800,10.218997802734375,0.13027063998878002,0.15853768018260597,-0.01258311231713742
