time,seconds_elapsed,z,y,x
1783696411136712400,0.06271240234375,0.0006077823927626014,0.023299219086766243,0.0028425101190805435
1783696411146675700,0.07267578125,0.0003681878442876041,0.025237996131181717,0.005860467441380024
1783696411156638700,0.082638671875,0.00019348447676748037,-0.020026953890919685,-0.00273941271007061
1783696411166601500,0.0926015625,0.0011926405131816864,-0.01931709423661232,-0.005023776087909937
1783696411176564500,0.102564453125,0.001226728898473084,0.01876664161682129,0.005890124011784792
1783696411186528500,0.112528564453125,-0.00047374365385621786,0.014647956937551498,0.00417197123169899
1783696411196491500,0.122491455078125,-0.0005480458494275808,-0.017621299251914024,-0.005080383270978928
1783696411206454500,0.13245458984375,0.001059380709193647,-0.0067356061190366745,-0.004992346744984388
1783696411216417500,0.14241748046875,0.0006572434213012457,0.01615665853023529,0.006735149305313826
1783696411226380500,0.152380615234375,-0.0005742121720686555,0.0025039645843207836,0.003195009659975767
1783696411236343600,0.162343505859375,0.0008489810861647129,-0.011609723791480064,-0.008604391478002071
1783696411246307600,0.1723076171875,-0.0009633743902668357,-0.0009425869211554527,-0.005953132174909115
1783696411256270300,0.182270263671875,0.0012470493093132973,0.009082617238163948,0.007371994666755199
1783696411266233300,0.1922333984375,-0.00041183788562193513,0.0008787642582319677,0.004509641323238611
1783696411276196400,0.2021962890625,0.0009018995333462954,-0.008483046665787697,-0.005329939536750317
1783696411286159600,0.21215966796875,-0.0007777908467687666,0.0021425061859190464,-0.003457018407061696
1783696411296122600,0.22212255859375,0.00008187754428945482,0.009014793671667576,0.004507430829107761
1783696411306086700,0.232086669921875,-0.002058954443782568,-0.005237811245024204,0.003737784456461668
1783696411316049700,0.242049560546875,-0.0007209824398159981,-0.005781096406280994,-0.005963046103715897
1783696411326012700,0.2520126953125,0.0009630554122850299,0.004929277114570141,-0.0017455079359933734
1783696411335975400,0.261975341796875,0.0008522679563611746,0.0021579917520284653,0.005892970599234104
1783696411345938400,0.2719384765625,0.001059121685102582,-0.003072611056268215,-0.0006711056921631098
1783696411355901400,0.2819013671875,-0.00032439050846733153,0.0004685941385105252,-0.004214707762002945
1783696411365864400,0.291864501953125,-0.0012585740769281983,0.0003489064984023571,0.0012745166895911098
1783696411375828500,0.301828369140625,0.0003009730135090649,0.001722831279039383,0.0029672218952327967
1783696411385791500,0.31179150390625,0.001317457528784871,-0.00028194033075124025,-0.0018744965782389045
1783696411395754500,0.32175439453125,-0.0006191931897774339,-0.004729952197521925,-0.002248937264084816
1783696411405717500,0.331717529296875,-0.0005015393835492432,0.0009432572987861931,0.0018359265523031354
1783696411415680500,0.341680419921875,0.00041671853978186846,0.004295910708606243,0.003079090267419815
1783696411425643500,0.3516435546875,-0.0006275997729972005,-0.002548865508288145,-0.0007861630292609334
1783696411435607600,0.361607666015625,0.00015403798897750676,-0.00022845331113785505,-0.002290316391736269
1783696411445570600,0.371570556640625,-0.00006600379128940403,0.003183715045452118,0.0019828216172754765
1783696411455533600,0.381533447265625,0.0016714424127712846,0.0005205539055168629,0.0024704462848603725
1783696411465496600,0.39149658203125,0.0006911449017934501,0.000255232909694314,-0.002458720002323389
1783696411475459600,0.40145947265625,0.0009492053068242967,0.0003545688232406974,-0.0010099600767716765
1783696411485422600,0.411422607421875,-0.00005839555524289608,-0.001106469426304102,0.0015971872489899397
1783696411495386600,0.42138671875,0.0008489434840157628,0.0013319208519533277,0.0019290170166641474
1783696411505349400,0.431349365234375,-0.00046501128235831857,0.0016480302438139915,-0.001883436692878604
1783696411515312400,0.4413125,-0.0004761965828947723,-0.0017174063250422478,-0.0005374752217903733
1783696411525275400,0.451275390625,0.0006178660551086068,0.0026124820578843355,0.0006773525383323431
1783696411535238400,0.46123828125,-0.0004633773351088166,0.0010486738756299019,0.0018813677597790956
1783696411545201700,0.47120166015625,-0.00012609073019120842,-0.0009439465356990695,-0.0001595123903825879
1783696411555164700,0.48116455078125,-0.0003346162266097963,-0.00003287906292825937,-0.0009965439094230533
1783696411565128400,0.49112841796875,0.00008930877083912492,0.0005775599274784327,0.0024505467154085636
1783696411575091700,0.501091796875,-0.00063054368365556,-0.0019037072779610753,-0.000021399464458227158
1783696411585054500,0.511054443359375,0.00044543403782881796,-0.0005133689846843481,0.0002831964520737529
1783696411595017500,0.521017578125,0.001187124289572239,-0.0011871487367898226,0.0013207639567553997
1783696411604980500,0.53098046875,0.0001309939834754914,-0.00010713795199990273,0.0007804168853908777
1783696411614943000,0.54094287109375,-0.0018602516502141953,0.0027557602152228355,-0.0003943034680560231
1783696411624907000,0.550906982421875,0.00008662304026074708,-0.0008959383703768253,-0.0005004761042073369
1783696411634870000,0.5608701171875,-0.00034614064497873187,-0.0018197889439761639,0.0006697167991660535
1783696411644833000,0.5708330078125,-0.0009516184218227863,0.002049740869551897,0.00019956892356276512
1783696411654795800,0.580795654296875,0.0005211096722632647,-0.0006544326897710562,0.0011500511318445206
1783696411664759000,0.590759033203125,0.0004238598921801895,-0.0008623696630820632,-0.0016114722238853574
1783696411674722000,0.60072216796875,-0.00020011875312775373,0.0010433883871883154,0.0010061487555503845
1783696411684685000,0.61068505859375,-0.00031321251299232244,-0.001155469217337668,0.000684992119204253
1783696411694649000,0.620649169921875,-0.0008964447770267725,0.0002714524744078517,-0.002908677328377962
1783696411704612000,0.630612060546875,0.00038463732926175,0.00023847410921007395,-0.00019801338203251362
1783696411714575000,0.6405751953125,0.0005910323234274983,-0.001796447322703898,0.0014092043275013566
1783696411724538000,0.6505380859375,-0.0015388515312224627,0.0008588740020059049,0.00022008392261341214
1783696411734500900,0.6605009765625,0.0007650491897948086,0.000731308595277369,-0.00008990801870822906
1783696411744464000,0.6704638671875,0.00030086221522651613,-0.0005147005431354046,0.001122624846175313
1783696411754428000,0.680427978515625,0.0006428121123462915,0.0008091567433439195,-0.0007237447425723076
1783696411764391000,0.690390869140625,0.0002829083241522312,0.0011580463033169508,-0.00044463330414146185
1783696411774354000,0.70035400390625,-0.0020521513652056456,-0.002320840721949935,-0.0004267900949344039
1783696411784317000,0.71031689453125,0.0004358426376711577,0.0008231729152612388,0.000027790898457169533
1783696411794280000,0.720280029296875,-0.0006882776506245136,0.002466876059770584,0.0016927991528064013
1783696411804243200,0.7302431640625,0.0013030043337494135,-0.0015271827578544617,0.0010403665946796536
1783696411814207000,0.74020703125,-0.00021286695846356452,0.0010030865669250488,-0.00021771062165498734
1783696411824170000,0.750169921875,-0.0008415246848016977,0.0018471174407750368,0.0008210152154788375
1783696411834133000,0.760133056640625,-0.0010047764517366886,-0.0013846284709870815,-0.0008194920374080539
1783696411844096000,0.770095947265625,-0.0005268024397082627,-0.000013810000382363796,-0.000376663520000875
1783696411854059000,0.78005908203125,0.00036935124080628157,-0.0004047621041536331,0.00008353078737854958
1783696411864022000,0.79002197265625,0.0002928328176494688,-0.0013083921512588859,0.00016494200099259615
1783696411873985000,0.799985107421875,0.0005785899702459574,0.0021369392052292824,0.000024060835130512714
1783696411883949000,0.809948974609375,0.0009156800806522369,0.000557403895072639,-0.00011519528925418854
1783696411893912000,0.819912109375,0.0012752067996188998,-0.00032117299269884825,-0.0006150705739855766
1783696411903874800,0.829874755859375,0.000043724721763283014,0.0015746159479022026,0.000994416419416666
1783696411913837800,0.839837890625,-0.0005427033174782991,-0.0002951894421130419,0.0017459605587646365
1783696411923800800,0.84980078125,0.0001884915109258145,-0.0013341378653421998,0.0011728731915354729
1783696411933764000,0.85976416015625,-0.0005252356640994549,0.001035809051245451,0.00027538795256987214
1783696411943727900,0.869727783203125,0.001417502062395215,-0.0018684555543586612,0.0012824591249227524
1783696411953691000,0.87969091796875,0.00005343096563592553,-0.0009118480375036597,-0.0020496880169957876
1783696411963654100,0.889654052734375,-0.0012980826431885362,0.000548927579075098,-0.0005602468736469746
1783696411973617200,0.8996171875,0.0013283267617225647,-0.001521946513094008,0.0006000924622640014
1783696411983580000,0.909579833984375,0.0009213061421178281,0.0015430839266628027,-0.00027279637288302183
1783696411993543000,0.91954296875,0.0015245119575411081,0.0015787703450769186,0.001306724501773715
1783696412003506000,0.929505859375,-0.00008445630373898894,-0.0013577251229435205,0.0003595954622142017
1783696412013470000,0.939469970703125,0.0009243490640074015,0.0013847980881109834,-0.0015839794650673866
1783696412023433000,0.949432861328125,-0.0008389949216507375,0.0018054395914077759,-0.0006055913399904966
1783696412033396000,0.95939599609375,-0.001057374058291316,-0.001110189245082438,-0.00016217504162341356
1783696412043359000,0.96935888671875,0.00024011448840610683,0.002025399822741747,0.00012983079068362713
1783696412053322000,0.979322021484375,0.00017033968470059335,0.0018280594376847148,-0.0002962748985737562
1783696412063285000,0.989284912109375,-0.00003916650894097984,-0.0011644868645817041,-0.00041056645568460226
1783696412073248000,0.999248046875,-0.001017079222947359,0.00031170330476015806,-0.00015437044203281403
1783696412083211800,1.009211669921875,0.00010462236241437495,0.002472372492775321,-0.0002101497957482934
1783696412093175000,1.019175048828125,0.0006990398978814483,-0.0026193251833319664,0.0008034493075683713
1783696412103138000,1.029137939453125,-0.0006570973200723529,0.0005009747110307217,-0.0009986012009903789
1783696412113101000,1.03910107421875,-0.0020126462914049625,0.00016861222684383392,0.0003521540202200413
1783696412123064000,1.04906396484375,0.0008877143263816833,-0.0005256826989352703,-0.0006216921610757709
1783696412133027000,1.059027099609375,-0.001047338591888547,-0.00018533074762672186,-0.0021713855676352978
1783696412142991000,1.0689912109375,0.0005516653181985021,-0.0005617776187136769,0.0007125833071768284
1783696412152953900,1.078953857421875,0.001262462930753827,-0.0008099841652438045,-0.001873612403869629
1783696412162916900,1.088916748046875,-0.0015032750088721514,0.001660243491642177,0.00026829802663996816
1783696412172880000,1.0988798828125,-0.000006045855116099119,0.00040003564208745956,0.0008363502565771341
1783696412182843000,1.1088427734375,-0.001329128397628665,-0.0016908800462260842,0.001266559585928917
1783696412192806000,1.118805908203125,0.0003489293740130961,0.00222023855894804,0.000043369713239371777
1783696412202769200,1.12876904296875,-0.0024991787504404783,-0.0007321633165702224,-0.000442635384388268
1783696412212733000,1.13873291015625,0.0005304332007654011,-0.0012983513297513127,-0.00031107524409890175
1783696412222696200,1.1486962890625,0.0002192344982177019,0.0021953454706817865,-0.00008095009252429008
1783696412232659000,1.158658935546875,0.0006474708206951618,-0.0008702193154022098,-0.0003880126168951392
1783696412242622000,1.1686220703125,0.000881722429767251,-0.0003424527822062373,-0.0009753387421369553
1783696412252585000,1.1785849609375,0.000013531884178519249,0.00023571948986500502,0.00014771625865250826
1783696412262548000,1.1885478515625,-0.00009440320718567818,-0.002011561533436179,-0.00005721522029489279
1783696412272511000,1.198510986328125,-0.001470724819228053,0.0017829104326665401,-0.0007978403009474277
1783696412282475000,1.20847509765625,0.00023105397121980786,-0.00042479787953197956,0.0004480044008232653
1783696412292438000,1.21843798828125,-0.0004443236975930631,-0.0008069616742432117,-0.0003432207740843296
1783696412302401000,1.228401123046875,-0.00009775451326277107,0.0004747145576402545,-0.0002525580348446965
1783696412312363800,1.23836376953125,0.000028479320462793112,0.0015061568701639771,0.0011479983804747462
1783696412322326800,1.248326904296875,0.001255711424164474,-0.001821918529458344,-0.0008094444638118148
1783696412332290000,1.2582900390625,-0.0003195483877789229,0.0007890445413067937,-0.0012073207180947065
1783696412342253800,1.26825390625,0.0009098153095692396,0.0014415184268727899,-0.00023728352971374989
1783696412352216800,1.278216796875,0.00023869864526204765,-0.0021564122289419174,0.0005824374384246767
1783696412362180000,1.28818017578125,-0.0009286748827435076,0.00047792517580091953,-0.0008543777512386441
1783696412372143000,1.29814306640625,-0.00033478994737379253,0.0018491867231205106,0.0006851956131868064
1783696412382106000,1.308106201171875,0.0004130949964746833,-0.0008697384037077427,-0.001991912256926298
1783696412392068900,1.31806884765625,-0.0007232758216559887,0.0009792943019419909,-0.0006411569193005562
1783696412402031900,1.328031982421875,-0.0009361240081489086,0.000010745599865913391,0.0011651188833639026
1783696412411996000,1.337995849609375,-0.0008919155225157738,-0.0019765053875744343,0.00028494413709267974
1783696412421959000,1.347958984375,-0.0013954360038042068,0.0016455136938020587,-0.0010185628198087215
1783696412431922000,1.357921875,-0.0012795885559171438,0.000578651437535882,-0.0005152254598215222
1783696412441885000,1.367885009765625,0.0004176075744908303,-0.002904868684709072,-0.001584403682500124
1783696412451848000,1.377847900390625,0.0007907163817435503,0.0019146539270877838,-0.0006022299639880657
1783696412461811000,1.38781103515625,0.0007481485372409225,0.00003399956040084362,0.00026990054175257683
1783696412471774000,1.39777392578125,0.00007570034358650446,-0.0010043669026345015,0.00025924789952114224
1783696412481738000,1.407738037109375,0.0007939252536743879,0.003103994531556964,0.0022322852164506912
1783696412491701000,1.417700927734375,-0.00017466644931118935,-0.0009216397302225232,0.0020879420917481184
1783696412501664000,1.4276640625,-0.0004451620625331998,-0.0010120469378307462,-0.00043002725578844547
1783696412511627000,1.437626953125,0.0017388963606208563,0.0016404616180807352,0.0009598765755072236
1783696412521590000,1.447590087890625,-0.0000948578817769885,-0.001735333469696343,-0.0006820142734795809
1783696412531553000,1.457552978515625,0.000259342574281618,-0.0016189533052965999,-0.0010489978594705462
1783696412541516000,1.46751611328125,0.0007144086994230747,0.001482236897572875,0.00125131756067276
1783696412551480000,1.47747998046875,0.0004725936450995505,0.0002846133429557085,0.0010182909900322556
1783696412561443000,1.487443115234375,0.000014242628822103143,-0.001314188470132649,-0.0018296106718480587
1783696412571405800,1.49740576171875,0.0005125200841575861,0.00191329640801996,-0.00025914458092302084
1783696412581368800,1.507368896484375,0.0006212852895259857,-0.0014206620398908854,-0.00020524603314697742
1783696412591331800,1.517331787109375,0.0009717573411762714,-0.0018480992875993252,-0.0008611825760453939
1783696412601295000,1.527295166015625,0.00034070800757035613,0.0020640979055315256,0.0026460245717316866
1783696412611257600,1.537257568359375,-0.00008166933548636734,-0.002928796224296093,0.00173335918225348
1783696412621221600,1.5472216796875,-0.0003801540588028729,-0.0001655870582908392,-0.0009017476113513112
1783696412631184600,1.5571845703125,-0.00042596040293574333,0.0018094131955876946,-0.000039149774238467216
1783696412641147600,1.567147705078125,0.00035592878703027964,-0.001038604648783803,-0.00011348945554345846
1783696412651110700,1.577110595703125,0.0003410151111893356,0.0006623562658205628,-0.0022219140082597733
1783696412661073700,1.58707373046875,0.0010252660140395164,0.002209423342719674,0.0004882700741291046
1783696412671036400,1.597036376953125,0.0006239275680854917,-0.0012087438954040408,-0.00014343170914798975
1783696412680999400,1.60699951171875,0.0008497827220708132,0.0007180077955126762,0.0006482737953774631
1783696412690963500,1.61696337890625,0.0011797483311966062,0.00005328282713890076,0.0006429475033655763
1783696412700926500,1.626926513671875,0.00017982558347284794,-0.002651811111718416,0.0009035277180373669
1783696412710889500,1.636889404296875,-0.0015917092096060514,0.0008345330716110766,-0.0008134122472256422
1783696412720852700,1.646852783203125,-0.0006499275332316756,-0.0012915651313960552,0.000834694248624146
1783696412730815700,1.656815673828125,-0.0003718935477081686,-0.001594366505742073,-0.00010966265108436346
1783696412740778800,1.66677880859375,0.0021620162297040224,0.0018425644375383854,-0.00047795416321605444
1783696412750741500,1.676741455078125,-0.0014745300868526101,-0.0002520116977393627,0.0008046241709962487
1783696412760705800,1.686705810546875,-0.000409489672165364,-0.0020417659543454647,0.0006448961212299764
1783696412770668500,1.69666845703125,-0.00033465484739281237,0.0015412508510053158,0.00002864061389118433
1783696412780631600,1.706631591796875,-0.00020490362658165395,-0.00043961533810943365,-0.00039485038723796606
1783696412790594600,1.716594482421875,-0.00023872577003203332,-0.0016430978430435061,-0.0015996643342077732
1783696412800557600,1.7265576171875,-0.001264883205294609,0.0021548946388065815,-0.0003882761811837554
1783696412810520600,1.7365205078125,-0.0003745884750969708,-0.00045420415699481964,0.0001177244121208787
1783696412820483600,1.746483642578125,-0.0021750405430793762,-0.0005889557069167495,-0.0005272483685985208
1783696412830447600,1.756447509765625,-0.0004098974750377238,0.002812167163938284,0.0004189727478660643
1783696412840410600,1.76641064453125,-0.0011199046857655048,-0.0009603422367945313,0.0025721383281052113
1783696412850373600,1.77637353515625,-0.0008389411959797144,-0.001187776098959148,-0.0010233954526484013
1783696412860336600,1.786336669921875,-0.0016801123274490237,0.0013922859216108918,0.0008658285951241851
1783696412870299600,1.796299560546875,0.0011553552467375994,-0.002323356457054615,0.0014258912997320294
1783696412880262700,1.8062626953125,-0.000013324286555871367,0.0002830832963809371,-0.001321186195127666
1783696412890225700,1.8162255859375,0.0014045427087694407,0.0007555280462838709,-0.000785890850238502
1783696412900189700,1.826189697265625,-0.0002481058472767472,-0.0011860233498737216,0.0016595111228525639
1783696412910152700,1.836152587890625,0.00048053503269329667,0.0000880328007042408,-0.0005075030494481325
1783696412920115700,1.84611572265625,0.00002722983481362462,0.00218337238766253,0.0008300586487166584
1783696412930078500,1.856078369140625,-0.0005967487813904881,-0.0015764784766361117,-0.001051198341883719
1783696412940041500,1.86604150390625,0.0016972918529063463,0.0005654249107465148,-0.0013951539294794202
1783696412950004500,1.87600439453125,-0.0007464246591553092,0.002018711995333433,0.001464548520743847
1783696412959967500,1.885967529296875,0.0003809635527431965,-0.00016702641732990742,-0.0015516176354140043
1783696412969931500,1.895931640625,0.000177231733687222,0.0008236695430241525,0.0004489488201215863
1783696412979894500,1.90589453125,0.0006386669701896608,0.001179089886136353,0.0016635991632938385
1783696412989857800,1.91585791015625,-0.0008979769190773368,-0.0009506399510428309,-0.0005377698689699173
1783696412999820800,1.92582080078125,-0.0015823026187717915,-0.0004867063835263252,0.0019169538281857967
1783696413009783600,1.935783447265625,-3.8492726162075996e-7,-0.00043317675590515137,0.0008756578899919987
1783696413019746600,1.94574658203125,0.0011619103606790304,-0.001394798280671239,0.0002105876337736845
1783696413029710600,1.955710693359375,-0.00022746084141544998,0.0008409254951402545,-0.0010376358404755592
1783696413039673600,1.965673583984375,0.00011500736582092941,-0.0005933837965130806,0.001053572865203023
1783696413049636600,1.97563671875,-0.00014092242054175586,-0.0017193681560456753,-0.0008367388509213924
1783696413059599600,1.985599609375,0.00026243834872730076,0.0008329272386617959,-0.0016468226676806808
1783696413069562600,1.995562744140625,-0.0005615436821244657,-0.00027734460309147835,0.00031938927713781595
1783696413079525600,2.005525634765625,-0.0010289833880960941,-0.0014041946269571781,0.0007997879874892533
1783696413089488400,2.01548828125,0.00005252638948149979,0.001899190479889512,0.0016445426736027002
1783696413099452400,2.025452392578125,-0.0001816057483665645,-0.0013961105141788721,0.001217712415382266
1783696413109415400,2.03541552734375,-0.00013713096268475056,-0.0011151470243930817,-0.001230531488545239
1783696413119378700,2.045378662109375,-0.00018749221635516733,0.0006701750680804253,-0.0019795766565948725
1783696413129341700,2.055341796875,-0.0004354325064923614,-0.002216158900409937,0.0016345992917194963
1783696413139304700,2.0653046875,-0.0007934943423606455,0.0005910176550969481,-0.0004958687350153923
1783696413149267700,2.075267822265625,0.00038815021980553865,0.0011012792820110917,-0.0008812281303107738
1783696413159230700,2.085230712890625,-0.0005875925999134779,-0.0016311175422742963,0.00047434354200959206
1783696413169194800,2.09519482421875,-0.00031248806044459343,0.00021152361296117306,-0.0006692177848890424
1783696413179157500,2.105157470703125,0.00048330542631447315,0.0027158414013683796,0.00008499552495777607
1783696413189120500,2.11512060546875,-0.00019367011555004865,-0.0006922056199982762,-0.0007389865349978209
1783696413199083500,2.12508349609375,-0.0010416721925139427,-0.0008827109122648835,-0.002409719629213214
1783696413209046500,2.135046630859375,-0.001259518787264824,0.0012235832400619984,0.00014638237189501524
1783696413219009500,2.145009521484375,-0.0007337152492254972,-0.0018052856903523207,-0.0001943502575159073
1783696413228972800,2.154972900390625,0.001028232043609023,0.00023496185895055532,0.0005936791421845555
1783696413238936600,2.1649365234375,0.0003425624454393983,0.0017038960941135883,0.0007548995781689882
1783696413248899600,2.174899658203125,-0.000305384659441188,-0.001551285618916154,0.002057451754808426
1783696413258862600,2.184862548828125,0.000049030204536393285,0.0006728372536599636,0.0008187127532437444
1783696413268825600,2.19482568359375,0.002498605754226446,0.001881645992398262,0.0027130190283060074
1783696413278788600,2.20478857421875,0.0005883999983780086,-0.0010316282277926803,-0.0005504741566255689
1783696413288751600,2.214751708984375,0.00042088713962584734,0.00015161419287323952,-0.000318779144436121
1783696413298715600,2.224715576171875,-0.0008023694390431046,0.0005841932725161314,0.0015358629170805216
1783696413308678700,2.2346787109375,-0.00042207000660710037,-0.0017719053430482745,-0.001292147790081799
1783696413318641700,2.2446416015625,0.00045919237891212106,0.0027223359793424606,-0.0007473938167095184
1783696413328604700,2.254604736328125,0.0006080630701035261,0.0005119122797623277,0.0024393447674810886
1783696413338567400,2.2645673828125,0.0005878665251657367,-0.0006961992476135492,0.0009353702189400792
1783696413348530400,2.274530517578125,-0.0004409126122482121,0.003184026340022683,0.0006232477026060224
1783696413358493400,2.284493408203125,-0.0011739367619156837,0.00041633937507867813,-0.0011569876223802567
1783696413368457500,2.29445751953125,0.0016655254876241088,-0.002169856335967779,-0.00034898449666798115
1783696413378420500,2.30442041015625,0.000058363249991089106,0.0023971665650606155,-0.0007496688049286604
1783696413388383700,2.3143837890625,-0.0012814730871468782,-0.0005898347590118647,0.0011411755112931132
1783696413398346800,2.3243466796875,-0.00042092142393812537,-0.0013306488981470466,0.0020069461315870285
1783696413408309800,2.334309814453125,0.0007023998769000173,0.00013941607903689146,-0.000601353938691318
1783696413418272500,2.3442724609375,-0.000900638522580266,-0.00016762223094701767,0.0009465148905292153
1783696413428236500,2.354236572265625,-0.0005126159521751106,0.0006209397688508034,-0.0012572507839649916
1783696413438199600,2.364199462890625,0.000884154113009572,0.001059799687936902,-0.00017185381148010492
1783696413448162600,2.37416259765625,0.00013340901932679117,0.00006990262772887945,0.00005318329203873873
1783696413458125600,2.38412548828125,0.00014303199714049697,0.0009620789787732065,-0.00035925942938774824
1783696413468088600,2.394088623046875,0.00011187302879989147,0.0011194718535989523,0.0006751124165020883
1783696413478051600,2.404051513671875,-0.00037888757651671767,-0.002165423706173897,0.00007001147605478764
1783696413488014600,2.4140146484375,-0.00007395562715828419,-0.000610936782322824,-0.000982736237347126
1783696413497978600,2.423978515625,-0.0012763224076479673,0.0018661550711840391,0.0015806549927219748
1783696413507941400,2.43394140625,0.0005103924195282161,-0.0014225825434550643,0.0003244419349357486
1783696413517904600,2.443904541015625,0.0004127287247683853,0.0018662021029740572,0.00043361273128539324
1783696413527867600,2.45386767578125,0.001523533253930509,0.001737305079586804,0.0004501243238337338
1783696413537830700,2.46383056640625,-0.00032183658913709223,-0.0032297614961862564,0.00007692689541727304
1783696413547793700,2.473793701171875,-0.00032343450584448874,0.0017247832147404552,0.0002532282378524542
1783696413557757700,2.4837578125,-0.000020558683900162578,0.0013206780422478914,-0.0005084666190668941
1783696413567720700,2.493720703125,0.0016021053306758404,-0.004126551561057568,-0.0008086048765107989
1783696413577683700,2.50368359375,0.0006174310110509396,0.00030933006200939417,-0.002248096279799938
1783696413587646500,2.513646484375,0.0003314075293019414,0.0007950906292535365,0.0010683380533009768
1783696413597609500,2.523609375,0.0009891748195514083,-0.00281366053968668,-0.000844696769490838
1783696413607572500,2.533572509765625,0.0004948921268805861,0.0005389930447563529,-0.002175212139263749
1783696413617536300,2.543536376953125,-0.0011861644452437758,0.0010270713828504086,0.0016590963350608945
1783696413627500300,2.553500244140625,-0.0003360834962222725,-0.0026978920213878155,0.00019622198306024075
1783696413637463300,2.56346337890625,-0.00011821977386716753,0.0010354253463447094,0.00005763245280832052
1783696413647426300,2.57342626953125,0.0004985682899132371,0.0004513941239565611,0.001409452990628779
1783696413657389300,2.583389404296875,-0.0010855060536414385,-0.0014988996554166079,-0.0007318509742617607
1783696413667352300,2.593352294921875,0.0003997389576397836,0.002112613059580326,-0.001045038690790534
1783696413677315300,2.6033154296875,0.0011668342631310225,-0.0007564289262518287,-0.0004826491931453347
1783696413687279400,2.613279296875,0.002131963847205043,-0.00030901783611625433,-0.0008533612126484513
1783696413697242400,2.623242431640625,0.0012646033428609371,0.0017657690914347768,0.0011623975588008761
1783696413707205400,2.633205322265625,0.0012116064317524433,-0.00004518043715506792,-0.0002610620576888323
1783696413717168400,2.64316845703125,0.0002960592391900718,0.0003096287837252021,-0.00046839891001582146
1783696413727131400,2.65313134765625,0.0008220335585065186,0.0027408285532146692,-0.00034855667036026716
1783696413737094400,2.663094482421875,0.0009273855248466134,-0.0008289406541734934,0.0006427654298022389
1783696413747057400,2.673057373046875,-0.00013415042485576123,-0.00003984617069363594,-0.0009924155892804265
1783696413757021400,2.683021484375,-0.0003803345316555351,0.0022912616841495037,0.0012633329024538398
1783696413766984400,2.692984375,0.0004814643762074411,-0.0027314601466059685,-0.00035187427420169115
1783696413776947200,2.702947265625,-0.00014875302440486848,0.0021119886077940464,-0.0005573881790041924
1783696413786910200,2.71291015625,-0.0008827202254906297,0.0010065104579553008,0.0019806043710559607
1783696413796873200,2.722873291015625,0.000855456106364727,-0.0024892911314964294,0.0009739029337652028
1783696413806836500,2.73283642578125,-0.00029502948746085167,-0.0003060315502807498,-0.00027538591530174017
1783696413816800300,2.74280029296875,-0.00043603754602372646,0.002961954101920128,-0.0010170296300202608
1783696413826763300,2.75276318359375,0.00034187181154266,-0.0015928501961752772,0.0002967077889479697
1783696413836726500,2.7627265625,-0.0008950626943260431,0.0010394654236733913,-0.00005278375465422869
1783696413846689500,2.772689453125,0.0012098997831344604,0.0011960593983530998,0.0003472230164334178
1783696413856652300,2.78265234375,-0.0009538965532556176,-0.0009464817121624947,0.00004099123179912567
1783696413866615300,2.792615234375,-0.002028748393058777,0.0009124046191573143,-0.0006732685724273324
1783696413876579300,2.802579345703125,0.0017337249591946602,0.0019719137344509363,0.0005873061600141227
1783696413886542300,2.812542236328125,0.00004847662057727575,-0.002574901096522808,-0.0012225782265886664
1783696413896505300,2.82250537109375,-0.0007498760824091733,0.0027721556834876537,0.0008363486267626286
1783696413906468400,2.83246826171875,-0.0015661348588764668,-0.00003295205533504486,0.0012249038554728031
1783696413916431400,2.842431396484375,-0.0009159736218862236,-0.0013919584453105927,-0.0001535456394776702
1783696413926394400,2.852394287109375,-0.0006366079906001687,-0.0007067271508276463,0.0007665765006095171
1783696413936357400,2.862357421875,0.00024759865482337773,0.00007469591218978167,0.0006270168232731521
1783696413946321200,2.872321044921875,-0.00003549535176716745,-0.0017591568175703287,-0.0017290818504989147
1783696413956284200,2.8822841796875,0.0004627750313375145,0.001607535290531814,0.0007431289413943887
1783696413966247400,2.892247314453125,0.00005983878509141505,-0.0005488261813297868,0.00006562075577676296
1783696413976210400,2.90221044921875,-0.0005648824153468013,-0.0007848686072975397,-0.00017638166900724173
1783696413986173400,2.91217333984375,0.0006535137072205544,0.0016966648399829865,0.00151818769518286
1783696413996136400,2.922136474609375,-0.001205745618790388,-0.0018581406911835074,-0.00011030351743102074
1783696414006099500,2.932099365234375,0.00008189270738512278,-0.0006685064872726798,-0.0019063394283875823
1783696414016063500,2.9420634765625,0.00046760879922658205,0.0025583086535334587,-0.0010209972970187664
1783696414026026200,2.952026123046875,-0.0001795393618522212,-0.002337113954126835,0.00013747764751315117
1783696414035989200,2.9619892578125,-0.0010333448881283402,-0.00104305031709373,-0.0014467135770246387
1783696414045952300,2.9719521484375,0.0000332510971929878,0.0030291893053799868,-0.0008722696220502257
1783696414055915300,2.981915283203125,0.0006034402758814394,-0.0014136870158836246,-0.0007650898769497871
1783696414065878300,2.991878173828125,-0.0011832744348794222,-0.0008376453770324588,0.00015157018788158894
1783696414075842300,3.00184228515625,-0.0005947151221334934,0.0025034714490175247,0.0011260811006650329
1783696414085805300,3.011805419921875,-0.00016754410171415657,-0.0022406834177672863,0.0007207479793578386
1783696414095768600,3.0217685546875,-0.0006671237642876804,0.00026908982545137405,-0.000467773643322289
1783696414105731300,3.0317314453125,-0.0005025403806939721,0.0005412648897618055,0.0023988529574126005
1783696414115694300,3.0416943359375,0.00046986009692773223,-0.0016489983536303043,0.00004768557846546173
1783696414125657300,3.0516572265625,0.00042671692790463567,0.0005265380023047328,-0.0008122492581605911
1783696414135620400,3.061620361328125,-0.0005248811794444919,0.0004378145094960928,0.0008726431988179684
1783696414145584400,3.07158447265625,-0.0019014690769836307,-0.0008120069978758693,0.0014564080629497766
1783696414155547400,3.08154736328125,0.0009036191622726619,-0.0006970661925151944,-0.00015299301594495773
1783696414165510400,3.091510498046875,0.0023300081957131624,0.0011594233801588416,0.0007887006504461169
1783696414175473400,3.101473388671875,0.0006228480488061905,-0.0014946387382224202,-0.0004958558129146695
1783696414185436200,3.111436279296875,0.00024601074983365834,0.00045665923971682787,-0.001178690348751843
1783696414195399200,3.121399169921875,-0.000053873605793341994,0.0023119293618947268,0.001344600459560752
1783696414205363200,3.13136328125,-0.00008449994493275881,-0.000721677322871983,-0.0011971204075962305
1783696414215326200,3.141326171875,0.00007110714795999229,0.0018887725891545415,0.000839274434838444
1783696414225289500,3.15128955078125,-0.0003126543597318232,0.0005702414782717824,0.0011239664163440466
1783696414235252500,3.16125244140625,-0.0015404676087200642,-0.00015341397374868393,-0.0006947453366592526
1783696414245215500,3.171215576171875,0.0003335988149046898,0.0003682993119582534,-0.002578931860625744
1783696414255178500,3.181178466796875,0.0002543600567150861,-0.00134769338183105,-0.000509904813952744
1783696414265141200,3.191141357421875,-0.00030117531423456967,-0.000420114491134882,0.00017026654677465558
1783696414275105300,3.201105224609375,-0.0017385706305503845,0.00037774606607854366,-0.00012602529022842646
1783696414285068300,3.211068359375,0.0002936875680461526,0.0001870637061074376,0.00011765386443585157
1783696414295031300,3.22103125,0.0004423085483722389,-0.0026897075586020947,-0.000978295225650072
1783696414304994300,3.230994384765625,-0.0007190959877334535,0.001095443032681942,0.00027285778196528554
1783696414314957300,3.240957275390625,-0.0006679190555587411,-0.00023723405320197344,-0.00013221194967627525
1783696414324920300,3.25092041015625,-0.00046791561180725694,-0.0003376352833583951,0.00016046944074332714
1783696414334883300,3.26088330078125,0.0001843363861553371,0.0023503804113715887,0.000916403136216104
1783696414344847400,3.270847412109375,-0.0003672042803373188,-0.0015452915104106069,-0.000025024288333952427
1783696414354810000,3.28081005859375,-0.00001388552482239902,-0.0009765602881088853,-0.0012460675789043307
1783696414364773400,3.2907734375,-0.0012634407030418515,-0.00003539922181516886,-0.00024072430096566677
1783696414374736400,3.300736328125,-0.0018054461106657982,-0.002146197948604822,0.0013660516124218702
1783696414384699400,3.310699462890625,-0.0007865206571295857,0.0005886021535843611,-0.0001772502437233925
1783696414394662400,3.320662353515625,-0.0005900196265429258,0.0016899930778890848,-0.00022133986931294203
1783696414404626400,3.33062646484375,-0.00014633696991950274,-0.001311389496549964,-0.0011912629706785083
1783696414414589400,3.34058935546875,-0.0006864054594188929,0.001724338624626398,-0.001932141138240695
1783696414424552400,3.350552490234375,-0.0017884215340018272,0.001206353772431612,0.0011009329464286566
1783696414434515200,3.36051513671875,-0.0002200363524025306,-0.000867214985191822,0.000044962624087929726
1783696414444478200,3.370478271484375,-0.001490630442276597,0.0008491923217661679,-0.0015840930864214897
1783696414454441200,3.380441162109375,-0.0003630717401392758,0.001497145858593285,0.00047784438356757164
1783696414464404200,3.390404296875,0.001793556148186326,-0.0015367271844297647,-0.0017224593320861459
1783696414474368300,3.4003681640625,0.00010231471969746053,0.0018023101147264242,-0.00043133320286870003
1783696414484331300,3.410331298828125,0.0003337434318382293,0.0009189395932480693,0.0014414016623049974
1783696414494294500,3.42029443359375,0.0004000987682957202,-0.0023030226584523916,-0.0008018035441637039
1783696414504257500,3.430257568359375,-0.001862522796727717,0.0014499039389193058,-0.0011956850066781044
1783696414514220300,3.44022021484375,-0.0008125678868964314,0.0009870707290247083,0.00011484825517982244
1783696414524183300,3.450183349609375,0.001223684987053275,-0.0021480023860931396,0.0003183137741871178
1783696414534147300,3.460147216796875,-0.001743131666444242,0.0021169325336813927,-0.0008753658039495349
1783696414544110300,3.4701103515625,0.0005533122457563877,0.00018880399875342846,0.0013153506442904472
1783696414554073300,3.4800732421875,-0.0006563785718753934,-0.0003380879061296582,-0.0007962656673043966
1783696414564036400,3.490036376953125,-0.0008933998760767281,0.0017138776602223516,-0.0023795149754732847
1783696414573999400,3.499999267578125,0.0007963650859892368,0.0010873253922909498,0.0006155748851597309
1783696414583962400,3.50996240234375,-0.0004121774691157043,-0.0006301470566540956,0.0007806908106431365
1783696414593925000,3.519925048828125,-0.0008302695350721478,0.001243287930265069,0.0008463438134640455
1783696414603889400,3.529889404296875,0.0008480545948259532,-0.0011231969110667706,0.0006942773470655084
1783696414613852000,3.539851806640625,-0.0006929062074050307,-0.000825728289783001,-0.0012480828445404768
1783696414623815200,3.549815185546875,0.0007846155785955489,0.001604406163096428,-0.0002656427677720785
1783696414633778000,3.55977783203125,0.00027566077187657356,-0.002134593203663826,0.0006985748186707497
1783696414643741000,3.569740966796875,-0.00038773263804614544,0.0005706459050998092,-0.0015741669340059161
1783696414653704000,3.579703857421875,0.0008235268760472536,0.0013171200407668948,0.0003603376680985093
1783696414663667000,3.5896669921875,-0.00007049630221445113,0.0011578629491850734,0.0006410348578356206
1783696414673631000,3.599630859375,-0.0008526711026206613,0.0014684981433674693,0.00074636226054281
1783696414683594000,3.609593994140625,0.0003548061358742416,0.0011593052186071873,-0.0009924155892804265
1783696414693557000,3.619556884765625,0.0010009299730882049,-0.001187099376693368,0.0001933268504217267
1783696414703520000,3.62952001953125,0.00039559340802952647,0.0014678058214485645,-0.0011371882865205407
1783696414713482800,3.639482666015625,-0.00014191275113262236,0.001407384523190558,0.0000906139612197876
1783696414723446000,3.649446044921875,-0.0006700175581499934,-0.0008802707307040691,-0.0007192533230409026
1783696414733409800,3.659409912109375,0.00004878209438174963,0.0011301881168037653,-0.001734454301185906
1783696414743372800,3.669372802734375,0.0006514554261229932,0.0015365865547209978,-0.0007003489881753922
1783696414753336000,3.679336181640625,-0.00008494143548887223,-0.0012324647977948189,0.0005884544225409627
1783696414763299000,3.689299072265625,-0.00020371840219013393,0.0013745034812018275,0.0008129589259624481
1783696414773262000,3.699261962890625,0.00003982792259193957,0.002576580038294196,0.0003268926520831883
1783696414783225000,3.70922509765625,0.0015575634315609932,-0.0018466642359271646,-0.00035141443368047476
1783696414793187800,3.719187744140625,-0.00048072246136143804,0.001274780952371657,-0.0010624314891174436
1783696414803152100,3.729152099609375,-0.0003084159689024091,0.00032909249421209097,0.0009993878193199635
1783696414813115000,3.739114990234375,0.0015002161962911487,-0.0006581265479326248,-0.0008232503896579146
1783696414823078000,3.749077880859375,0.00013188400771468878,0.0023832032456994057,-0.0003284352133050561
1783696414833041000,3.759041015625,0.0018105724593624473,0.0013081751530990005,0.0012066718190908432
1783696414843004000,3.76900390625,-0.0004810775863006711,-0.00038426381070166826,-0.0025590378791093826
1783696414852967000,3.778966796875,0.0009876085678115487,0.0000030727824196219444,-0.0002295803278684616
1783696414862930200,3.78893017578125,0.00040038159932009876,-0.0015716543421149254,0.0006993302959017456
1783696414872894000,3.79889404296875,0.0007097244379110634,-0.0019715859089046717,-0.0001687244512140751
1783696414882857000,3.80885693359375,-0.0001566018909215927,0.002609850140288472,0.0005085174343548715
1783696414892820000,3.818820068359375,-0.0004320107400417328,-0.0017824729438871145,0.001199592836201191
1783696414902783000,3.828782958984375,0.0008210066007450223,-0.0018519815057516098,-0.00023185624741017818
1783696414912746000,3.83874609375,-0.0015329538146033883,0.003412980353459716,0.000521569512784481
1783696414922709000,3.848708984375,-0.0005113652441650629,-0.0014281137846410275,0.0005492664058692753
1783696414932672000,3.858672119140625,-0.00004993732727598399,0.00045669812243431807,-0.000005787704139947891
1783696414942636000,3.868635986328125,0.0006781709380447865,0.0021113199181854725,0.0009047470521181822
1783696414952599000,3.87859912109375,0.0002226363867521286,-0.001506503438577056,0.0017808903940021992
1783696414962562000,3.88856201171875,-0.0005281087360344827,-0.00022206082940101624,-0.0008492474444210529
1783696414972524800,3.89852490234375,-0.0013717676047235727,0.0006653382442891598,0.000022643478587269783
1783696414982487800,3.90848779296875,0.00221843970939517,-0.0010175133356824517,0.00011505512520670891
1783696414992451000,3.918451171875,0.0007274113595485687,0.0010836930014193058,0.0003598119947127998
1783696415002414800,3.928414794921875,0.0010278159752488136,0.00017768563702702522,0.0009694095933809876
1783696415012377900,3.9383779296875,0.001021416625007987,-0.0023366808891296387,0.0003355022054165602
1783696415022341000,3.948341064453125,-0.0007112359162420034,-0.0005294597940519452,-0.0026887834537774324
1783696415032304000,3.95830419921875,-0.00018408067990094423,0.001531148562207818,0.0026480797678232193
1783696415042267100,3.96826708984375,0.0009006248437799513,-0.001155448378995061,-0.00006221933290362358
1783696415052230000,3.97822998046875,-0.0007923914818093181,0.0021712027955800295,-0.000052120303735136986
1783696415062193000,3.98819287109375,0.000489920552354306,-0.0009191293502226472,0.0005596078117378056
1783696415072157000,3.998156982421875,-0.0003619652707129717,-0.0010010572150349617,-0.0009937735740095377
1783696415082120000,4.008119873046875,0.0009214120218530297,0.0010514410678297281,-0.0008257280569523573
1783696415092083000,4.0180830078125,0.0005359785282053053,-0.0005968677578493953,0.000009408220648765564
1783696415102046000,4.0280458984375,-0.0015362270642071962,-0.0019987556152045727,0.0005122130387462676
1783696415112009000,4.038009033203125,0.0005903880810365081,0.001161677879281342,-0.000745888683013618
1783696415121972000,4.047971923828125,0.0008431220194324851,-0.0013784450711682439,0.002889858791604638
1783696415131935000,4.05793505859375,0.00011529374751262367,-0.0004102021921426058,-0.0006756167858839035
1783696415141898800,4.067898681640625,-0.00006127383676357567,0.002065206179395318,0.0011768779950216413
1783696415151862000,4.077862060546875,-0.0009514426346868277,-0.000533781130798161,0.0016503084916621447
1783696415161825000,4.087824951171875,0.001570304506458342,-0.0007481655338779092,-0.0009217723272740841
1783696415171788000,4.0977880859375,0.0006099620368331671,0.0015833351062610745,0.00012944138143211603
1783696415181751000,4.1077509765625,-0.0007479838095605373,-0.0007943351520225406,0.0003438258427195251
1783696415191714000,4.117714111328125,-0.000680023105815053,-0.0014648564392700791,-0.0005790186114609241
1783696415201677000,4.127677001953125,0.0003250538429711014,0.002048651920631528,-0.0004005868686363101
1783696415211641000,4.13764111328125,-0.0007058543851599097,-0.0005932955536991358,0.001329763443209231
1783696415221603800,4.147603759765625,-0.00026243808679282665,-0.0014164785388857126,-0.00022285955492407084
1783696415231566800,4.15756689453125,-0.0004015926388092339,0.0013255298836156726,0.000608398171607405
1783696415241529900,4.16752978515625,0.0010040237102657557,-0.0007338925497606397,0.0001263660378754139
1783696415251492900,4.177492919921875,-0.00006758130621165037,-0.0002772129373624921,-0.001190808368846774
1783696415261456100,4.1874560546875,-0.00025240468676202,0.0008911158074624836,0.0020561176352202892
1783696415271419100,4.197419189453125,0.0015831473283469677,-0.002194673754274845,-0.0003356605302542448
1783696415281383000,4.2073828125,0.00015329616144299507,0.0016120487125590444,-0.0008746841922402382
1783696415291346200,4.21734619140625,0.0015145621728152037,0.0007419388857670128,0.00017805083189159632
1783696415301309000,4.227308837890625,0.0006000326247885823,-0.002334012184292078,0.0007085524848662317
1783696415311272000,4.23727197265625,0.00027578731533139944,0.00016245490405708551,0.0014353567967191339
1783696415321235000,4.24723486328125,0.00021000724518671632,0.0008287777891382575,0.00001163093838840723
1783696415331198000,4.257197998046875,0.0012354881037026644,-0.0008365812245756388,-0.0008669189410284162
1783696415341161000,4.267160888671875,0.001558529562316835,-0.00014842033851891756,-0.002316743601113558
1783696415351125000,4.277125,0.00002423301339149475,-0.0003714869963005185,0.0011507465969771147
1783696415361088000,4.287087890625,0.0008596666739322245,-0.001592546352185309,-0.0009986907243728638
1783696415371051000,4.297051025390625,0.0006170336855575442,0.0018328743753954768,-0.0006318740779533982
1783696415381013800,4.307013671875,0.0003967902157455683,-0.0011610513320192695,-0.00117249577306211
1783696415390977000,4.31697705078125,0.0004825264331884682,-0.0014755363808944821,0.0011597643606364727
1783696415400940000,4.32693994140625,-0.0007196244550868869,0.00015192129649221897,-0.0011523920111358166
1783696415410903000,4.336903076171875,-0.001227628206834197,-0.0006391457282006741,-0.0003938176669180393
1783696415420867000,4.3468671875,0.000985991209745407,-0.0023254593834280968,-0.0008468213491141796
1783696415430830000,4.356830078125,-0.0005453554913401604,0.00019375537522137165,-0.00016413000412285328
1783696415440793000,4.36679296875,0.00043735088547691703,-0.0008725742809474468,0.002009275835007429
1783696415450756000,4.376756103515625,-0.0015711106825619936,-0.0022631194442510605,-0.0012785907601937652
1783696415460718800,4.38671875,-0.00011036693467758596,0.002668255940079689,0.0016423643101006746
1783696415470681900,4.396681884765625,-0.0011102858697995543,-0.00009771529585123062,0.0017255053389817476
1783696415480646000,4.40664599609375,0.00009213140583597124,-0.0004148978041484952,-0.0013357982970774174
1783696415490609000,4.41660888671875,0.0009516400750726461,0.002229682169854641,-0.0006186129758134484
1783696415500572000,4.426572021484375,-0.0004984511760994792,-0.0018414921360090375,0.0005023115081712604
1783696415510535000,4.436534912109375,-0.00011518414248712361,0.00036219728644937277,-0.0008652423275634646
1783696415520498000,4.446497802734375,0.0009697877103462815,0.0011097465176135302,0.0005227972869761288
1783696415530461200,4.456461181640625,-0.00009106298966798931,-0.0013231171760708094,0.0010099385399371386
1783696415540424000,4.466423828125,0.000431182881584391,0.0007797147263772786,0.00002377002965658903
1783696415550387000,4.476386962890625,-0.0014696386642754078,0.002249085810035467,0.0016729177441447973
1783696415560351000,4.48635107421875,0.0005154816317372024,-0.0011951804626733065,0.0006385460728779435
1783696415570314000,4.49631396484375,-0.00013568188296630979,0.001146939117461443,-0.00027134327683597803
1783696415580277000,4.506277099609375,0.0007508844719268382,0.0009192388970404863,0.0010176267242059112
1783696415590240000,4.516239990234375,-0.000597859441768378,-0.0025376284029334784,0.0018484387546777725
1783696415600203000,4.526203125,0.001012287801131606,0.00047573831398040056,-0.00010978360660374165
1783696415610166000,4.536166015625,0.001429123105481267,0.0019952706061303616,0.0006139359320513904
1783696415620130300,4.54613037109375,0.00028130062855780125,-0.0015693705063313246,0.0006155338487587869
1783696415630093300,4.55609326171875,-0.001353318803012371,0.0011656974675133824,-0.0008431869791820645
1783696415640056300,4.566056396484375,0.0004808003141079098,0.0008346665999852121,0.0003347292076796293
1783696415650019300,4.576019287109375,0.0007806927314959466,-0.0018678685883060098,0.0010767960920929909
1783696415659982300,4.585982421875,-0.001345575088635087,0.00044961401727050543,0.0005329786217771471
1783696415669945600,4.595945556640625,0.000624811858870089,-0.0010234881192445755,0.00023770437110215425
1783696415679908400,4.605908447265625,-0.0011113027576357126,-0.00257690972648561,-0.0005226281937211752
1783696415689872400,4.615872314453125,-0.0009627463296055794,-0.0003997549647465348,0.0006988263339735568
1783696415699835400,4.62583544921875,0.00024606246734037995,-0.00034382857847958803,0.0021236175671219826
1783696415709798400,4.63579833984375,0.0011145512107759714,-0.0005441653775051236,-0.0009211651049554348
1783696415719761400,4.645761474609375,0.0010346564231440425,0.0015802383422851562,-0.001034615794196725
1783696415729724400,4.655724365234375,0.00021187710808590055,-0.0015425290912389755,0.0024586122017353773
1783696415739687400,4.6656875,-0.001437951112166047,0.00041116587817668915,-0.001065548975020647
1783696415749650400,4.675650390625,-0.0006182757206261158,0.002427302300930023,0.0002467104932293296
1783696415759613200,4.68561328125,0.0014062593691051006,-0.002027633599936962,0.000685333099681884
1783696415769577500,4.695577392578125,-0.0006285220151767135,-0.001141811371780932,-0.00040762266144156456
1783696415779540200,4.705540283203125,0.00022182532120496035,0.0024180361069738865,0.00009251898154616356
1783696415789503200,4.715503173828125,-0.0003582333738449961,-0.0010793820256367326,0.0008425600826740265
1783696415799466500,4.725466552734375,-0.0005776778561994433,-0.000014383927918970585,-0.0001880832714959979
1783696415809429500,4.735429443359375,0.0002051448100246489,0.002101580146700144,0.0005751700955443084
1783696415819392500,4.745392578125,-0.00014159877900965512,-0.0017091369954869151,-0.0009175317827612162
1783696415829356500,4.7553564453125,-0.001072864281013608,-0.001159742590971291,-0.0008623974863439798
1783696415839319600,4.765319580078125,-0.0018268052954226732,0.0017012913012877107,-0.00003495323471724987
1783696415849282600,4.775282470703125,-0.000669743400067091,-0.0010998966172337532,0.0008665257482789457
1783696415859245300,4.785245361328125,-0.00047320208977907896,-0.0000034732511267066,0.0019605522975325584
1783696415869208300,4.795208251953125,0.00170472904574126,-0.0012682118685916066,0.0010553544852882624
1783696415879171300,4.80517138671875,-0.000787989585660398,-0.0014559646369889379,0.00015946710482239723
1783696415889134300,4.81513427734375,0.0007796527352184057,0.002012428594753146,-0.001714219688437879
1783696415899097300,4.825097412109375,0.000011330732377246022,0.0006078773876652122,-0.00006279349327087402
1783696415909061400,4.835061279296875,0.00017092042253352702,-0.0018023285083472729,0.0022336789406836033
1783696415919024400,4.8450244140625,0.00019994887406937778,-0.00021588336676359177,0.0005502947024069726
1783696415928987400,4.8549873046875,0.0007638458628207445,0.0010499248746782541,0.0018185439985245466
1783696415938950400,4.864950439453125,0.0019723884761333466,-0.005274283699691296,0.00013223045971244574
1783696415948913400,4.874913330078125,0.00009292463073506951,0.001914955792017281,-0.000231874524615705
1783696415958876400,4.88487646484375,0.0007778896251693368,0.002352513140067458,0.0010594922350719571
1783696415968839400,4.89483935546875,-0.0012800245312973857,-0.0018270392902195454,0.0003307177685201168
1783696415978803500,4.904803466796875,0.0008193454705178738,0.0015522458124905825,0.0009749364107847214
1783696415988766500,4.914766357421875,-0.0005021534161642194,0.0007009130786173046,0.0011103146243840456
1783696415998729500,4.9247294921875,0.001242749742232263,-0.004058954305946827,-0.002340609673410654
1783696416008692500,4.9346923828125,0.00019364466425031424,0.0011050337925553322,-0.0003544972278177738
1783696416018655200,4.9446552734375,0.0005137566477060318,-0.0004350721137598157,-0.00015715707559138536
1783696416028618200,4.9546181640625,0.0011564395390450954,-0.001822834718041122,0.0008161793230101466
1783696416038581200,4.964581298828125,-0.0004715507384389639,0.0008824043325148523,-0.00110715557821095
1783696416048545300,4.974545166015625,-0.0002955872332677245,-0.0009743655100464821,0.00022061530034989119
1783696416058508300,4.98450830078125,-0.0015771003672853112,-0.0015639893244951963,0.0012453997042030096
1783696416068471600,4.994471435546875,-0.00029773428104817867,0.0014741604682058096,-0.00010331592056900263
1783696416078434600,5.0044345703125,-0.00018641416681930423,-0.0008883298141881824,0.0019920591730624437
1783696416088397600,5.0143974609375,0.0010972621385008097,-0.000033350312151014805,-0.00047436775639653206
1783696416098360300,5.0243603515625,-0.0006106230430305004,0.0019286004826426506,-0.00022349797654896975
1783696416108323300,5.0343232421875,0.0000967007945291698,-0.00031714618671685457,0.0001550847664475441
1783696416118287400,5.044287353515625,0.00020881989621557295,0.00020723033230751753,-0.0020308378152549267
1783696416128250400,5.05425048828125,0.00016736207180656493,0.00054503686260432,0.0002201723400503397
1783696416138213400,5.06421337890625,-0.0007192041957750916,-0.0009268922731280327,0.0011693229898810387
1783696416148176400,5.07417626953125,0.0006279757944867015,0.0018291331361979246,0.00045735377352684736
1783696416158139400,5.084139404296875,0.0006516779540106654,0.0018576289294287562,-0.0008643730543553829
1783696416168102400,5.094102294921875,-0.0016809959197416902,0.00001611141487956047,0.00019677751697599888
1783696416178065400,5.1040654296875,0.00036298015038482845,-0.0001157150836661458,0.0006412590737454593
1783696416188029200,5.114029296875,0.0007629235624335706,0.002452636370435357,-0.0007781905587762594
1783696416197992400,5.123992431640625,0.000021233194274827838,0.0004986751591786742,-0.00014515721704810858
1783696416207955500,5.13395556640625,-0.001067094155587256,0.0008754071313887835,0.00023821945069357753
1783696416217918500,5.14391845703125,-0.0009099676972255111,0.0008967124158516526,0.0009988181991502643
1783696416227881500,5.153881591796875,-0.000780944712460041,-0.0022611150052398443,0.0004133881302550435
1783696416237844500,5.163844482421875,0.00019350595539435744,0.002770395250990987,-0.0018742671236395836
1783696416247807500,5.173807373046875,-0.0016044569201767445,0.0004452778957784176,0.0005487832240760326
1783696416257771500,5.183771484375,-0.0012172332499176264,-0.0001166490837931633,0.0001916532637551427
1783696416267734300,5.193734375,-0.0013348220381885767,0.0018398913089185953,-0.0005388731369748712
1783696416277697300,5.203697265625,0.00006067438516765833,0.00024252734147012234,-0.0004928004927933216
1783696416287660300,5.213660400390625,0.0010767097119241953,-0.001761767896823585,0.0001418950268998742
1783696416297623300,5.223623291015625,-0.001518274424597621,0.0003490534145385027,-0.000030411523766815662
1783696416307586300,5.23358642578125,0.0005432586185634136,0.00011583836749196053,-0.00013591116294264793
1783696416317549600,5.243549560546875,-0.00048099312698468566,-0.0008503565331920981,-0.0006754676578566432
1783696416327513300,5.253513427734375,0.00010212574852630496,0.0010917921317741275,-0.00008648901712149382
1783696416337476600,5.2634765625,0.00003661200753413141,-0.00048746250104159117,0.0011010145535692573
1783696416347439400,5.273439453125,-0.0009809068869799376,-0.00026604265440255404,0.0010249356273561716
1783696416357402400,5.28340234375,0.00028329575434327126,0.0029547843150794506,-0.000276817474514246
1783696416367365400,5.293365478515625,0.0006743638077750802,-0.0025533116422593594,0.0007907736580818892
1783696416377328400,5.303328369140625,0.000051983079174533486,-0.000002535991370677948,-0.001071574748493731
1783696416387291400,5.31329150390625,0.0006649966817349195,0.002253548940643668,-0.00027828989550471306
1783696416397878500,5.32387841796875,-0.0008436839561909437,-0.0018900634022429585,-0.0001355444546788931
1783696416407841500,5.333841552734375,0.00033748266287148,-0.00032830145210027695,0.0007890512351877987
1783696416417804500,5.343804443359375,-0.0001836979790823534,0.0008544084848836064,0.0005610846565105021
1783696416427767300,5.353767333984375,0.0011282158084213734,-0.0014931457117199898,-0.0006595727754756808
1783696416437730300,5.363730224609375,-0.0005655546556226909,-0.00043107708916068077,-0.000981282675638795
1783696416447693300,5.373693359375,-0.000017519720131531358,0.0004016570746898651,0.00014433322940021753
1783696416457656300,5.38365625,0.0005550599307753146,-0.0025840129237622023,0.00006470468360930681
1783696416467620400,5.393620361328125,-0.002053135074675083,-0.0005299324402585626,0.0006272601312957704
1783696416477583400,5.403583251953125,0.0008811358129605651,0.0006426575127989054,0.0005907748127356172
1783696416487546400,5.41354638671875,0.0006555618019774556,0.0000567195238545537,0.00014630984514951706
1783696416497509400,5.42350927734375,0.00028777922852896154,0.0015494212275370955,-0.0013392014661803842
1783696416507472400,5.433472412109375,4.805915523320436e-7,-0.00035508954897522926,-0.0005289391847327352
1783696416517435400,5.443435302734375,-0.0016887625679373741,-0.0012592326384037733,-0.00035556743387132883
1783696416527398400,5.4533984375,-0.0006281115347519517,-0.00014242506586015224,0.0011026504216715693
1783696416537362400,5.463362548828125,-0.001705892733298242,0.0006868832278996706,0.0015998625895008445
1783696416547325400,5.473325439453125,-0.000250287470407784,-0.002672364469617605,-0.00008110492490231991
1783696416557288400,5.483288330078125,0.0005036534275859594,0.0006917404243722558,-0.00010826915968209505
1783696416567251500,5.49325146484375,-0.001580720767378807,0.0001316542038694024,-0.0008160899160429835
1783696416577214500,5.50321435546875,-0.0012717940844595432,-0.0010435986332595348,-0.001976695377379656
1783696416587177200,5.51317724609375,-0.00023673046962358057,-0.00001274107489734888,-0.00009996246080845594
1783696416597140200,5.52314013671875,-0.0003682906390167773,0.00033160566817969084,0.00009231769945472479
1783696416607104300,5.533104248046875,0.0014668472576886415,0.0004990698071196675,-0.0001270407810807228
1783696416617067500,5.543067626953125,-0.0018839420517906547,0.0027441144920885563,-0.0007957606576383114
1783696416627030500,5.553030517578125,-0.001288283267058432,-0.0013179662637412548,0.00026978657115250826
1783696416636993500,5.56299365234375,-0.0013932117726653814,-0.0002359237987548113,0.0008953631040640175
1783696416646956800,5.572956787109375,-0.00008049642201513052,0.00354947941377759,0.0004209780599921942
1783696416656919600,5.58291943359375,0.0018289901781827211,-0.0017896260833367705,-0.0005116609390825033
1783696416666882600,5.592882568359375,-0.0002424814156256616,0.0008991679642349482,0.00015388824976980686
1783696416676845600,5.602845458984375,0.0007601986872032285,0.0027806912548840046,-0.0004919283092021942
1783696416686809600,5.6128095703125,-0.000009990879334509373,-0.0003680892987176776,0.0016832496039569378
1783696416696772600,5.622772705078125,0.0002462051925249398,-0.0007547804852947593,0.0007775084814056754
1783696416707358700,5.633358642578125,0.0004807875957340002,0.0015907259657979012,-0.0003637349000200629
1783696416717321700,5.64332177734375,0.0006799920811317861,-0.002413603011518717,0.0009260340593755245
1783696416727284700,5.65328466796875,0.00038104606210254133,0.0006297809304669499,-0.0007342936005443335
1783696416737247700,5.663247802734375,-0.0009129839017987251,0.0003778459504246712,0.0017493703635409474
1783696416747210500,5.67321044921875,-0.0021387210581451654,-0.0014804441016167402,0.0001570746535435319
1783696416757173500,5.683173583984375,0.00026957548107020557,0.000754480657633394,0.000535243540070951
1783696416767137500,5.693137451171875,-0.0013264199951663613,0.0005531652132049203,-0.00007692491635680199
1783696416777100500,5.7031005859375,0.0004086294211447239,0.0008288024109788239,-0.0005674791755154729
1783696416787063600,5.7130634765625,-0.0006384407170116901,0.0019158326322212815,-0.0002571070799604058
1783696416797026600,5.723026611328125,-0.0007425702642649412,0.00014989054761826992,0.0009168143733404577
1783696416806989600,5.732989501953125,0.00025919577456079423,-0.0011047448497265577,0.0009614144219085574
1783696416816952800,5.742952880859375,-0.0007184506393969059,0.001039099763147533,-0.0010146510321646929
1783696416826915600,5.75291552734375,-0.0006346302106976509,-0.0008578180568292737,-0.000325674656778574
1783696416836879600,5.762879638671875,0.0008918937528505921,-0.0026013897731900215,0.00068020133767277
1783696416846842600,5.772842529296875,-0.0005853731418028474,0.00098888180218637,0.0019305680179968476
1783696416856805600,5.7828056640625,-0.0009667378035373986,0.00017129129264503717,0.0003329376922920346
1783696416866768600,5.7927685546875,-0.0013762994203716516,-0.0020895167253911495,-0.0012531873071566224
1783696416876731600,5.802731689453125,-0.0002521790156606585,0.0010479534976184368,0.00026587973115965724
1783696416886694700,5.812694580078125,-0.0005954399239271879,0.0007834738935343921,-0.00007212173659354448
1783696416896657700,5.82265771484375,0.0001912578591145575,-0.0016514543676748872,-0.000015130150131881237
1783696416906621700,5.83262158203125,-0.0002849270822480321,0.0013866263907402754,-0.0015021684812381864
1783696416916584400,5.84258447265625,0.0005044338759034872,0.0002409344306215644,0.0014656581915915012
1783696416926547500,5.85254736328125,-0.0005465683643706143,0.00010490126442164183,0.0002357583143748343
1783696416936510500,5.862510498046875,-0.0005878473748452961,0.0008228895021602511,0.0012682658853009343
1783696416946473500,5.872473388671875,0.000742170843295753,-0.0027720071375370026,0.0007351785898208618
1783696416956436700,5.882436767578125,0.0010151448659598827,-0.0001304176403209567,0.001765289343893528
1783696416966399700,5.892399658203125,-0.001349792117252946,0.002784174866974354,-0.0014663494657725096
1783696416976363800,5.90236376953125,0.00003238848876208067,-0.0020547888707369566,0.001391488709487021
1783696416986326800,5.912326904296875,0.0008783255470916629,-0.0012884476454928517,-0.0020254342816770077
1783696416996289500,5.92228955078125,-0.00023966944718267769,0.0014649946242570877,-0.0011260848259553313
1783696417006252500,5.93225244140625,-0.0007840162143111229,-0.0004704589955508709,-0.002367895096540451
1783696417016215600,5.942215576171875,-0.0015211792197078466,-0.00044755591079592705,-0.0030999984592199326
1783696417026178600,5.952178466796875,0.00015770172467455268,0.00023425102699548006,0.0014109102776274085
1783696417036141600,5.9621416015625,0.0006290812161751091,-0.0011551202042028308,0.000587993476074189
1783696417046105600,5.972105712890625,0.0007790937088429928,0.000849531905259937,-0.0022153696045279503
1783696417056068600,5.982068603515625,0.0002656361903063953,0.002114533446729183,0.001639023539610207
1783696417066031600,5.992031494140625,0.0006655145552940667,-0.0006871860241517425,-0.0005526036256924272
1783696417075994400,6.001994384765625,-0.0006213248707354069,0.0015155145665630698,-0.000403466634452343
1783696417085957600,6.01195751953125,0.0010944476816803217,0.0005851396126672626,-0.0005962256109341979
1783696417095920600,6.021920654296875,-0.0012003983138129115,-0.0023187710903584957,-0.00010540499351918697
1783696417105884700,6.031884765625,-0.0011878979858011007,0.002111332258209586,-0.00015424273442476988
1783696417115847700,6.04184765625,0.00039987871423363686,-0.0009936472633853555,0.0017248836811631918
1783696417125810700,6.051810791015625,-0.000035749166272580624,-0.0015608803369104862,-0.0026671234518289566
1783696417135773700,6.061773681640625,0.0004337661375757307,0.0017845826223492622,0.00029990408802405
1783696417145736700,6.07173681640625,-0.00004377900040708482,0.0008210160885937512,0.00031332240905612707
1783696417155699500,6.081699462890625,0.00035276566632092,-0.0018868861952796578,-0.001397492247633636
1783696417165662500,6.091662353515625,0.0001924731768667698,0.0012489319778978825,0.0003677399945445359
1783696417175626500,6.10162646484375,-0.002495987806469202,-0.0001332486281171441,0.0004473684821277857
1783696417185589500,6.111589599609375,0.0003799307160079479,-0.0009970380924642086,-0.0013964578974992037
1783696417195552500,6.121552490234375,-0.001121825771406293,0.0007579851080663502,-0.000018804683350026608
1783696417205515500,6.131515625,-0.0010236275848001242,-0.0008729948895052075,-0.0003967859083786607
1783696417215478800,6.141478759765625,0.00004802836338058114,-0.0013009648537263274,-0.0012087837094441056
1783696417225441800,6.15144189453125,-0.0015732188476249576,0.0017929753521457314,-0.0008880079258233309
1783696417235404500,6.161404541015625,0.0007543839747086167,-0.001998833380639553,0.0009106911020353436
1783696417245368600,6.17136865234375,0.001829848624765873,0.0001328890211880207,-0.001409821561537683
1783696417255331600,6.18133154296875,0.0001009246043395251,0.0021084218751639128,0.00011563720181584358
1783696417265294600,6.191294677734375,-0.00015816136146895587,-0.002046989044174552,-0.00002740323543548584
1783696417275257600,6.201257568359375,-0.0007144957198761404,-0.0004488260019570589,-0.0002180855954065919
1783696417285220600,6.211220703125,0.0009111881954595447,0.0023475962225347757,-0.0015831366181373596
1783696417295183600,6.22118359375,0.000038470287108793855,-0.0005943977739661932,0.0007463303627446294
1783696417305147600,6.231147705078125,-0.0012560728937387466,-0.00007731840014457703,-0.0016975111793726683
1783696417315110700,6.241110595703125,0.0021157553419470787,0.0006241581868380308,0.001183230197057128
1783696417325073400,6.251073486328125,-0.0011888263979926705,-0.0011650420492514968,-0.000592241995036602
1783696417335036400,6.261036376953125,0.0007299812277778983,0.0013726840261369944,-0.0015523115871474147
1783696417344999400,6.27099951171875,0.00018250872381031513,0.0007501840009354055,0.000018863007426261902
1783696417354962700,6.280962646484375,0.0009353843634016812,-0.0014668975491076708,0.00012246001278981566
1783696417364926500,6.290926513671875,0.001316951122134924,0.001637797337025404,-0.0015676659531891346
1783696417374889700,6.3008896484375,-0.0007067848928272724,0.0011669504456222057,-0.00005685468204319477
1783696417384852700,6.310852783203125,0.0017978624673560262,-0.0007134682964533567,-0.0008916212245821953
1783696417394815700,6.320815673828125,-0.0005798078491352499,0.0025869873352348804,0.0003054697881452739
1783696417404778500,6.330778564453125,-0.0009418805711902678,-0.0006518114823848009,0.00011664140038192272
1783696417414741500,6.340741455078125,0.0008443015394732356,-0.0006882967427372932,-0.0013883109204471111
1783696417424704500,6.35070458984375,0.0017738069873303175,0.0015528680523857474,-0.00043954246211797
1783696417434668500,6.36066845703125,-0.0010938846971839666,0.001182954991236329,-0.0000065123895183205605
1783696417444631600,6.370631591796875,-0.00021940705482847989,-0.00039518915582448244,-0.0012469170615077019
1783696417454594600,6.380594482421875,-0.0005419158842414618,0.0013100330252200365,0.00012674136087298393
1783696417464557600,6.3905576171875,0.00023061505635268986,-0.000018708640709519386,0.0016627945005893707
1783696417474520600,6.4005205078125,-0.0005976280081085861,-0.0017545570153743029,0.0006739628734067082
1783696417484483600,6.410483642578125,0.00022390222875401378,0.0025162766687572002,-0.000021380139514803886
1783696417494447600,6.420447509765625,0.001542699639685452,-0.00042651640251278877,0.0005341552314348519
1783696417504410600,6.43041064453125,-0.00034784284071065485,-0.000496786436997354,-0.0012912984238937497
1783696417514373600,6.44037353515625,-0.0009625004604458809,0.0018590458203107119,0.0008373662130907178
1783696417524336600,6.450336669921875,-0.002203265205025673,-0.0018098772270604968,-0.0007998698856681585
1783696417534299600,6.460299560546875,0.0005877275252714753,-0.0007587276631966233,-0.0009343593847006559
1783696417544262700,6.4702626953125,0.0010372946271672845,0.0021967869251966476,0.000537627493031323
1783696417554225700,6.4802255859375,-0.0008895024657249451,-0.0022610784508287907,0.0018234016606584191
1783696417564189700,6.490189697265625,0.00019688083557412028,-0.0015828533796593547,0.00022142991656437516
1783696417574152700,6.500152587890625,0.0008642689790576696,0.0011578056728467345,0.0011229099472984672
1783696417584115500,6.510115478515625,0.0003840622375719249,-0.0020999028347432613,-0.000724898767657578
1783696417594078500,6.520078369140625,0.000021073356037959456,0.0010418284218758345,-0.0012199803022667766
1783696417604041500,6.53004150390625,-0.0005209632799960673,0.0015392585191875696,0.0008735646260902286
1783696417614004700,6.540004638671875,-0.0011113861110061407,-0.0028560226783156395,0.0009518616134300828
1783696417623968300,6.54996826171875,-0.0008515107911080122,0.0013543263776227832,0.00039627880323678255
1783696417633931500,6.559931640625,0.0013634403003379703,0.0027929660864174366,0.0006026737974025309
1783696417643894500,6.56989453125,0.00014486879808828235,-0.0016783853061497211,-0.0017280157189816236
1783696417653857500,6.579857421875,-0.000026638765120878816,-0.0005803639069199562,-0.0007929798448458314
1783696417663820500,6.589820556640625,-0.001303794444538653,0.0007496681064367294,-0.0010290421778336167
1783696417673783600,6.599783447265625,-0.00034372485242784023,-0.00267728790640831,-0.0014013521140441298
1783696417683746600,6.60974658203125,-0.0010032572317868471,0.0015358454547822475,0.0008924204739741981
1783696417693710600,6.619710693359375,0.00010754732647910714,0.00015073537360876799,0.0017233267426490784
1783696417703673300,6.62967333984375,0.0004942998057231307,-0.00171041174326092,-0.00043322285637259483
1783696417713636400,6.63963623046875,-0.0015555352438241243,0.00027790432795882225,-0.0009259077487513423
1783696417723599400,6.649599365234375,0.0007268477929756045,-0.00027024245355278254,0.0004003604990430176
1783696417733562400,6.659562255859375,0.0011164682218804955,-0.0022902502678334713,0.0010192791232839227
1783696417743525600,6.669525634765625,0.0002504299918655306,0.0033819270320236683,0.00021520332666113973
1783696417753489400,6.679489501953125,0.001021148869767785,0.0009661735966801643,0.0005667405785061419
1783696417763452400,6.689452392578125,-0.00024330025189556181,-0.0022602900862693787,-0.0014040018431842327
1783696417773415700,6.699415771484375,0.0005007869331166148,0.0010425621876493096,-0.00012648350093513727
1783696417783378400,6.70937841796875,-0.0012224861420691013,-0.0005340436473488808,0.0006234493921510875
1783696417793341400,6.719341552734375,0.001506455009803176,-0.001524473074823618,-0.0022234697826206684
1783696417803304400,6.729304443359375,0.0002543485024943948,0.0011405168334022164,0.00009089591912925243
1783696417813267500,6.739267333984375,0.0007214669603854418,0.0005253267008811235,-0.00020045391283929348
1783696417823231500,6.7492314453125,0.000572856399230659,-0.00005392602179199457,0.0005064402939751744
1783696417833194500,6.759194580078125,0.0007203954737633467,0.00031518808100372553,0.000389261229429394
1783696417843157500,6.769157470703125,-0.0000918607838684693,-0.00098236626945436,-0.0017640157602727413
1783696417853120500,6.77912060546875,0.00048631150275468826,0.0006730547174811363,0.00038568786112591624
1783696417863083300,6.789083251953125,-0.00008653863915242255,0.002045751316472888,0.0009546785149723291
1783696417873046300,6.79904638671875,-0.000568304443731904,-0.002571903634816408,0.001522730803117156
1783696417883010300,6.80901025390625,-0.000009674127795733511,0.0027683789376169443,0.00025947578251361847
1783696417892973300,6.818973388671875,0.0012044609757140279,0.0017473229672759771,0.001070408383384347
1783696417902936600,6.8289365234375,-0.0007164512062445283,-0.002904260065406561,-0.00007953832391649485
1783696417912899600,6.838899658203125,0.0005038091912865639,0.0005346795078366995,-0.001793282455764711
1783696417922862600,6.848862548828125,-0.00020746338122989982,0.0004256889224052429,-0.0012917215935885906
1783696417932825600,6.85882568359375,0.0018194685690104961,-0.0014326648088172078,-0.0015529775992035866
1783696417942789600,6.86878955078125,-0.0007440551999025047,0.0008621904416941106,-0.0007814596174284816
1783696417952752600,6.878752685546875,-0.0011533830547705293,0.0009476779378019273,0.0015003366861492395
1783696417962715400,6.88871533203125,0.00030162360053509474,-0.0022309310734272003,0.00010697124525904655
1783696417972678400,6.898678466796875,-0.0014067941810935736,0.0018168073147535324,0.0001282764715142548
1783696417982641400,6.908641357421875,0.000043740583350881934,-0.0007060474017634988,0.0007102438248693943
1783696417992604400,6.9186044921875,-0.001466271816752851,-0.0012432070216163993,-0.00019070354755967855
1783696418002567400,6.9285673828125,0.0012149770045652986,0.0014233044348657131,-0.0016768331406638026
1783696418012531500,6.938531494140625,-0.000081716148997657,-0.0011383902747184038,-0.00003446172922849655
1783696418022494500,6.948494384765625,0.0006489517400041223,-0.001663227449171245,-0.0007374207489192486
1783696418032457500,6.95845751953125,0.0005480179097503424,0.0016734469681978226,-0.00029666756745427847
1783696418042420500,6.96842041015625,0.0008068045135587454,-0.0008992170915007591,-0.0007325413171201944
1783696418052383500,6.978383544921875,0.00036551873199641705,-0.0016843171324580908,-0.00040896725840866566
1783696418062346500,6.988346435546875,0.0006153697613626719,0.002059292746707797,0.000512931786943227
1783696418072309500,6.9983095703125,-0.0001172658521682024,-0.0013567439746111631,0.0009118732996284962
1783696418082273500,7.0082734375,-0.0005684253992512822,-0.0012067442294210196,-0.0004912890726700425
1783696418092236500,7.018236572265625,0.0013306746259331703,0.0006702517857775092,-0.0009946266654878855
1783696418102199600,7.028199462890625,0.00027695915196090937,-0.001468138536438346,0.0004938472993671894
1783696418112162600,7.03816259765625,0.0018133367411792278,-0.00039728148840367794,-0.00025743048172444105
1783696418122125300,7.048125244140625,0.0009735370986163616,0.0019345292821526527,-0.0001922402298077941
1783696418132088300,7.05808837890625,-0.0006414037779904902,-0.0013054725714027882,0.0011127087054774165
1783696418142052400,7.06805224609375,0.0006543659255839884,0.0017424535471946,-0.0008545456221327186
1783696418152015400,7.078015380859375,0.000014408331480808556,0.0017259418964385986,0.00008821336086839437
1783696418161978400,7.087978271484375,-0.000522732618264854,-0.0025766813196241856,0.0009493374964222312
1783696418171941600,7.097941650390625,-0.001415690523572266,0.000017770216800272465,-0.0004751873202621937
1783696418181904600,7.107904541015625,-0.0005700762267224491,0.0016395951388403773,0.00031801447039470077
1783696418191867600,7.11786767578125,0.000017949729226529598,-0.002648360561579466,0.001032806932926178
1783696418201830400,7.127830322265625,-0.00014026148710399866,0.0015348839806392789,-0.0003645368851721287
1783696418211794400,7.13779443359375,-0.001158654224127531,0.00036202778574079275,0.0024349780287593603
1783696418221757400,7.14775732421875,-0.0006455181282944977,-0.0028423513285815716,0.0009066615020856261
1783696418231720400,7.157720458984375,0.0003329272731207311,0.002118585165590048,-0.0014734056312590837
1783696418241683500,7.167683349609375,0.00013362299068830907,-0.00027138914447277784,-0.0010205504950135946
1783696418251646500,7.177646484375,0.0011900989338755608,-0.0020104332361370325,-0.000598972081206739
1783696418261609500,7.187609375,-0.0001708243798930198,0.0011229797964915633,-0.0005707178497686982
1783696418271573500,7.197573486328125,0.0009237347985617816,-0.00033030728809535503,0.0005723109352402389
1783696418281536500,7.20753662109375,-0.0003131232224404812,-0.002958003431558609,-0.0003428504569455981
1783696418291499300,7.217499267578125,0.00013029310503043234,0.0015882786829024553,-0.001002781791612506
1783696418301462500,7.227462646484375,-0.0016431291587650776,0.0006112160626798868,0.0005495244986377656
1783696418311425500,7.237425537109375,-0.00015096005517989397,-0.002799494192004204,-0.0010587585857138038
1783696418321388500,7.247388427734375,-0.000578450271859765,0.000901479332242161,-0.0016500083729624748
1783696418331351600,7.2573515625,-0.0006418335251510143,0.000636761193163693,0.0014863965334370732
1783696418341315600,7.267315673828125,0.0005852862959727645,-0.0015315614873543382,-0.0004567588912323117
1783696418351278600,7.277278564453125,-0.0002674578863661736,0.0012530398089438677,-0.0003443735186010599
1783696418361241600,7.28724169921875,0.0008481018012389541,-0.0015974155394360423,0.0008150698849931359
1783696418371204400,7.297204345703125,0.00015514728147536516,-0.0018027453916147351,-0.00025285768788307905
1783696418381167400,7.30716748046875,0.000716081412974745,0.0035755978897213936,0.00038997805677354336
1783696418391130400,7.31713037109375,-0.0004285452305339277,-0.002154991962015629,-0.00046170083805918694
1783696418401094400,7.327094482421875,0.00047687735059298575,-0.000737997586838901,-0.0016835713759064674
1783696418411057400,7.337057373046875,0.000746921868994832,0.004314285237342119,0.0009902422316372395
1783696418421020400,7.3470205078125,-0.0003837358672171831,-0.0012656684266403317,0.0004057097830809653
1783696418430983400,7.3569833984375,0.00008045308641158044,-0.0018742006504908204,-0.0003892438253387809
1783696418440946700,7.36694677734375,0.0013000995386391878,0.002072980860248208,-0.0006502877222374082
1783696418450909400,7.376909423828125,0.0006399019621312618,-0.0012961842585355043,0.0018261857330799103
1783696418460872400,7.38687255859375,-0.00217672367580235,-0.00008966797031462193,-0.0007967214332893491
1783696418470836500,7.39683642578125,-0.00026377500034868717,0.0030001315753906965,0.0007737445994280279
1783696418480799500,7.406799560546875,-0.0007301103323698044,-0.0012659553904086351,-0.00007150869350880384
1783696418490762500,7.416762451171875,0.0001290254294872284,0.0012169097317382693,-0.0002592615783214569
1783696418500725500,7.4267255859375,-0.0005624933983199298,0.0008940111729316413,0.0003423429443500936
1783696418510688500,7.4366884765625,-0.0005180186126381159,-0.0006719274679198861,-0.0006318413652479649
1783696418520651500,7.446651611328125,-0.00018997957522515208,0.0027498111594468355,-0.001148379873484373
1783696418530614300,7.4566142578125,-0.0000829204946057871,0.0005353926680982113,0.0005736200837418437
1783696418540578300,7.466578369140625,-0.0008037650259211659,-0.0013355932896956801,-0.0013074076268821955
1783696418550541300,7.476541259765625,0.001016771886497736,0.0015536702703684568,-0.002097301185131073
1783696418560504300,7.48650439453125,-0.0008891690522432327,0.0008546457393094897,-0.0007052059518173337
1783696418570467600,7.496467529296875,-0.001390109653584659,-0.00275233993306756,-0.0015941691817715764
1783696418580430600,7.5064306640625,-0.0015901733422651887,0.00004304375033825636,-0.00010627857409417629
1783696418590393600,7.5163935546875,0.0003627226979006082,-0.0008267445955425501,-0.00009029963985085487
1783696418600356600,7.526356689453125,-0.00015013643132988364,-0.0009829761693254113,0.0005570120410993695
1783696418610320600,7.536320556640625,0.0015359108801931143,0.001505481544882059,-0.00023634359240531921
1783696418620283000,7.546282958984375,-0.0010537462076172233,0.0007840794860385358,0.001140229171141982
1783696418630246000,7.556245849609375,-0.00011285142682027072,-0.0007858539465814829,-0.0007942910306155682
1783696418640209000,7.566208984375,0.001314632361754775,0.0016687127063050866,-0.0006093609845265746
1783696418650172000,7.576171875,0.00029650586657226086,-0.0015103025361895561,0.00011395354522392154
1783696418660135000,7.586135009765625,0.001474922988563776,-0.00217870669439435,-0.0002794634783640504
1783696418670098000,7.596097900390625,0.0002978057018481195,0.0015643660444766283,-0.000713026151061058
1783696418680061700,7.606061767578125,0.000607480644248426,-0.001763413194566965,0.0012093867408111691
1783696418690025000,7.61602490234375,0.00011799167259596288,0.0001218386460095644,-0.0004356477875262499
1783696418699988000,7.625988037109375,0.0004196634399704635,0.0028084833174943924,-0.00089868507348001
1783696418709951000,7.635950927734375,-0.0003827469772659242,-0.0031596608459949493,0.0007812369149178267
1783696418719914000,7.6459140625,-0.001266324077732861,-0.0024227509275078773,-0.0008046241709962487
1783696418729877000,7.655876953125,0.0010562187526375055,0.001809012028388679,-0.0016254102811217308
1783696418739841000,7.665841064453125,0.0008034987840801477,-0.0008946328889578581,0.0007575502386316657
1783696418749803800,7.6758037109375,-0.0000037052668631076813,-0.0014307273086160421,-0.0001255539245903492
1783696418759766800,7.685766845703125,-0.0005171607481315732,0.000632760114967823,0.0014068601885810494
1783696418769729800,7.695729736328125,-0.0007302135927602649,-0.00036992004606872797,-0.0014879958471283317
1783696418779692800,7.70569287109375,0.0011428045108914375,0.00040035578422248363,0.00007108296267688274
1783696418789655800,7.71565576171875,-0.002129155211150646,0.002258176915347576,0.0003041095333173871
1783696418799619000,7.725619140625,-0.00011711055412888527,-0.0017913880292326212,-0.0010495239403098822
1783696418809582800,7.735582763671875,0.0018126158975064754,0.0005700368201360106,0.0009569015819579363
1783696418819546000,7.745546142578125,0.0004959145444445312,0.0005765253445133567,-0.0007672349456697702
1783696418829508900,7.7555087890625,0.000885268731508404,-0.001832037465646863,-0.00014618586283177137
1783696418839471900,7.765471923828125,-0.00041281135054305196,0.0007720472640357912,-0.00019034382421523333
1783696418849435000,7.775434814453125,0.00117256841622293,0.00048708904068917036,0.001125790411606431
1783696418859398000,7.78539794921875,0.0004051122232340276,-0.002900228835642338,0.0003443463356234133
1783696418869361000,7.79536083984375,0.000002442306140437722,0.0022660372778773308,-0.000540355802513659
1783696418879325000,7.805324951171875,-0.0008310752455145121,0.00039854482747614384,0.0000889119110070169
1783696418889288000,7.815287841796875,-0.00036209262907505035,-0.0023477068170905113,-0.0006011130753904581
1783696418899251000,7.8252509765625,0.0003989608958363533,0.0023538062814623117,-0.0013373724650591612
1783696418909213700,7.835213623046875,-0.0012812274508178234,-0.0006534351268783212,0.0006482803728431463
1783696418919176700,7.8451767578125,0.000022493128199130297,-0.0013723325682803988,-0.0023612030781805515
1783696418929140000,7.855139892578125,-0.00048404012341052294,0.0029571685008704662,-0.0002328050322830677
1783696418939103000,7.86510302734375,0.00073618208989501,-0.00043820892460644245,0.00006190699059516191
1783696418949066800,7.875066650390625,-0.000035601959098130465,-0.0010683129075914621,0.0003780242404900491
1783696418959030000,7.885030029296875,0.001204759581014514,0.0015097210416570306,0.0007140117813833058
1783696418968993000,7.894992919921875,-0.00008341140346601605,-0.00042053801007568836,0.0003046839265152812
1783696418978956000,7.9049560546875,-0.0005227490910328925,-0.00031278457026928663,-0.00010372360702604055
1783696418988918800,7.914918701171875,-0.0015296903438866138,0.0021570310927927494,0.0003625958925113082
1783696418998881800,7.9248818359375,-0.001274854177609086,-0.0014502559788525105,-0.001156904036179185
1783696419008844800,7.9348447265625,0.001182710868306458,0.0002357912017032504,-0.0003736683866009116
1783696419018808800,7.944808837890625,0.00007071788422763348,0.0034164709504693747,0.0013364664046093822
1783696419028771800,7.954771728515625,0.00141082052141428,-0.001535410643555224,-0.0008127045584842563
1783696419038734800,7.96473486328125,-0.0006894045509397984,3.259629011154175e-9,-0.0009325125720351934
1783696419048697900,7.97469775390625,-0.0006244234391488135,0.0016037588939070702,-0.00039402139373123646
1783696419058660900,7.984660888671875,-0.00019578645878937095,-0.001547632971778512,0.00014788855332881212
1783696419068624000,7.994623779296875,0.0008068936294876039,0.00015918700955808163,-0.002123255282640457
1783696419078587000,8.0045869140625,0.00013316265540197492,0.0025708626490086317,-0.0008767908439040184
1783696419088551000,8.014551025390626,-0.00009613549627829343,-0.0004014915321022272,0.0002025882713496685
1783696419098514000,8.024513916015625,0.0007500184001401067,-0.00026419840287417173,-0.0012386131566017866
1783696419108477000,8.034476806640624,0.001740980544127524,0.000019694562070071697,0.0003496962017379701
1783696419118440000,8.04443994140625,0.0003007050836458802,-0.0005850095767527819,0.00026245240587741137
1783696419128403000,8.05440283203125,-0.00009823644359130412,0.0002624084008857608,-0.0015546223148703575
1783696419138366000,8.064365966796874,-0.001594225293956697,-0.00012281269300729036,0.0011388200800865889
1783696419148328700,8.07432861328125,0.0001970168959815055,-0.0017561294371262193,-0.0008518927497789264
1783696419158292700,8.084292724609375,0.0007289213826879859,0.0018986487993970513,-0.0006739207310602069
1783696419168255700,8.094255859375,0.0002887009468395263,0.001139115309342742,0.000010511721484363079
1783696419178218800,8.10421875,-0.0013448457466438413,-0.00144133809953928,-0.0006921187741681933
1783696419188181800,8.114181640625,0.0003049825318157673,0.001030607963912189,-0.0008271409897133708
1783696419198145000,8.12414501953125,-0.00023536442313343287,0.0011453032493591309,-0.0008821587543934584
1783696419208108000,8.13410791015625,0.0020440351217985153,-0.0017370358109474182,0.0012190754059702158
1783696419218072000,8.144072021484375,-0.0003827453765552491,0.0010996977798640728,0.0002685096114873886
1783696419228035000,8.15403515625,-0.0010645146248862147,-0.0014811716973781586,0.0007667870377190411
1783696419237997800,8.163997802734375,-0.0007363705663010478,-0.0022330174688249826,0.0008717830642126501
1783696419247960800,8.1739609375,0.0004513992462307215,-0.00007905287202447653,0.0012094718404114246
1783696419257923800,8.183923828125,0.000912834657356143,-0.000599978375248611,0.0023843813687562943
1783696419267886800,8.193886962890625,0.00041269295616075397,0.0001233362127095461,-0.0007099455688148737
1783696419277849900,8.203849853515624,0.0013821028405800462,0.00262872944585979,-0.0008233028929680586
1783696419287812900,8.213812744140625,0.0003256268100813031,-0.001627800869755447,0.001037447713315487
1783696419297777000,8.22377685546875,-0.00024922433658502996,-0.0008507573511451483,-0.0008504712022840977
1783696419307740000,8.233739990234374,0.00008793186862021685,0.0025943077635020018,0.00011838681530207396
1783696419317702700,8.24370263671875,0.0005402524839155376,-0.0014063881244510412,-0.0013542667729780078
1783696419327666000,8.253666015625,-0.0011561810970306396,0.000266076996922493,-0.001795286196283996
1783696419337629000,8.26362890625,0.00028750678757205606,0.0022923783399164677,-0.00018319638911634684
1783696419347592000,8.273592041015625,0.0007431736448779702,-0.0032488610595464706,-0.00008412671741098166
1783696419357555000,8.283554931640625,0.00019364984473213553,0.0007173769408836961,-0.0022750231437385082
1783696419367519000,8.29351904296875,-0.000852173485327512,0.001550413784570992,-0.00022758508566766977
1783696419377482000,8.30348193359375,0.000611489056609571,-0.0008175851544365287,0.0006455648690462112
1783696419387445000,8.313445068359375,-0.000478809088235721,0.001254620379768312,-0.0011592593509703875
1783696419397407700,8.32340771484375,-0.001335621578618884,0.001245847437530756,0.0017831793520599604
1783696419407370800,8.333370849609375,0.0011211445089429617,-0.001642350573092699,-0.00024907884653657675
1783696419417333800,8.343333740234375,-0.000759268063120544,0.0005261292681097984,-0.0012340790126472712
1783696419427296800,8.353296875,0.0001267656043637544,-0.00015563995111733675,-0.001007710350677371
1783696419437260800,8.3632607421875,-0.00032256566919386387,-0.001915526227094233,-0.0010455971350893378
1783696419447223800,8.373223876953125,-0.00038328574737533927,-0.00022921257186681032,-0.0001515739131718874
1783696419457186800,8.383186767578126,0.0006845325697213411,-0.0003148871473968029,0.0030059998389333487
1783696419467150000,8.393150146484375,0.0006416556425392628,-0.0010243530850857496,0.0008509699255228043
1783696419477112800,8.40311279296875,-0.00010206065780948848,0.0013013235293328762,-0.0009396364912390709
1783696419487075800,8.413075927734376,0.00019115334725938737,-0.0008750115521252155,0.0009378920658491552
1783696419497038800,8.423038818359375,0.0003124736831523478,-0.0029761537443846464,-0.0012520723976194859
1783696419507003000,8.4330029296875,-0.00014345950330607593,0.002309155650436878,-0.0021405029110610485
1783696419516966000,8.4429658203125,-0.00006925831257831305,-0.0003715483471751213,0.0017828071722760797
1783696419526929000,8.452928955078125,-0.0000820414861664176,-0.0014666400384157896,-0.000619896687567234
1783696419536892000,8.462891845703124,-0.0003765024885069579,0.002936075208708644,-0.0006828084588050842
1783696419546855000,8.47285498046875,-0.0006143227801658213,-0.0005508015165105462,0.0006442446610890329
1783696419556817700,8.482817626953125,0.0000677521456964314,-0.0013967604609206319,-0.00041645910823717713
1783696419566781000,8.492781005859374,-0.0003032261738553643,-0.00003402086440473795,-0.0011890421155840158
1783696419576744700,8.50274462890625,-0.00011778603948187083,-0.00047455623280256987,0.001903424970805645
1783696419586707700,8.512707763671875,-0.0012464337050914764,-0.0007888093823567033,-0.0013592137256637216
1783696419596671000,8.5226708984375,0.0013635950163006783,0.001953535946086049,-0.0009987838566303253
1783696419606634000,8.532634033203125,-0.00008196877024602145,-0.0008425170090049505,0.0004542368114925921
1783696419616597000,8.542596923828125,0.0012313977349549532,0.0007714156527072191,-0.0012464767787605524
1783696419626560000,8.55256005859375,0.0003110092948190868,0.00329635851085186,0.00023637141566723585
1783696419636522800,8.562522705078125,0.00024481542641296983,-0.0015087005449458957,-0.0009343430865556002
1783696419646487000,8.572487060546875,-0.0006715782801620662,0.00014725304208695889,-0.0013580520171672106
1783696419656449800,8.58244970703125,0.0008090861374512315,0.0009995615109801292,0.0009699860238470137
1783696419666412800,8.592412841796875,-0.00017255496641155332,-0.0007288301130756736,0.000013112265150994062
1783696419676375800,8.602375732421875,0.0006061274325475097,0.000034460448659956455,-0.0010619814274832606
1783696419686338800,8.6123388671875,0.0004719040880445391,0.00034578400664031506,-0.0010609162272885442
1783696419696301800,8.6223017578125,0.0006654508179053664,-0.0019456367008388042,0.00036555982660502195
1783696419706265000,8.63226513671875,0.0006843593437224627,0.0024983801413327456,-0.0017034499906003475
1783696419716228900,8.642228759765626,0.0001761757885105908,0.0013798706931993365,0.0013476648600772023
1783696419726191900,8.65219189453125,0.0010241263080388308,-0.0003791471244767308,0.0005396617925725877
1783696419736155000,8.66215478515625,0.0009020203724503517,0.0029702293686568737,-0.0011889087036252022
1783696419746118000,8.672117919921876,-0.0005581908626481891,0.0011968305334448814,0.0006883535534143448
1783696419756081000,8.682080810546875,-0.001626958604902029,-0.0024223581422120333,-0.00025076756719499826
1783696419766044000,8.6920439453125,0.00007959498907439411,0.0017010142328217626,-0.0010092358570545912
1783696419776007000,8.7020068359375,-0.00024058987037278712,0.0012650429271161556,0.0004371938994154334
1783696419785971000,8.711970947265625,0.00016394429258070886,-0.002054321113973856,-0.0021388817112892866
1783696419795934000,8.721933837890624,0.0008114161901175976,0.001346484525129199,-0.00027366913855075836
1783696419805897000,8.73189697265625,0.00002551727811805904,0.0010985442204400897,0.000631805625744164
1783696419815859700,8.741859619140625,0.000335624732542783,-0.001640305737964809,-0.00027464667800813913
1783696419825822700,8.75182275390625,-0.00035093817859888077,0.0013874419964849949,-0.00010260648559778929
1783696419835786000,8.761785888671875,0.0007239091210067272,0.0009943563491106033,-0.00014752394054085016
1783696419845749000,8.7717490234375,-0.000029765506042167544,0.00071099610067904,-0.0013659201795235276
1783696419855712000,8.7817119140625,-0.0004896193277090788,0.0029444049578160048,-0.0004975666524842381
1783696419865676000,8.791676025390625,0.00000812544021755457,-0.0012857600813731551,-0.0000762545969337225
1783696419875639000,8.80163916015625,-0.00003900230512954295,0.0016161348903551698,0.0001706240582279861
1783696419885602000,8.81160205078125,0.001361021539196372,0.002413218840956688,-0.0005396410124376416
1783696419895564800,8.821564697265625,-0.0008568378398194909,0.00009084225166589022,-0.0004246904281899333
1783696419905527800,8.83152783203125,-0.0010339380241930485,-0.0013091814471408725,-0.0006020568544045091
1783696419915490800,8.84149072265625,0.0015400630654767156,0.0006575194420292974,-0.000026279245503246784
1783696419925453800,8.851453857421875,-0.0008948650793172419,-0.0027214991860091686,0.0003785212174989283
1783696419935417900,8.86141796875,-0.0005656169960275292,-0.0009414682863280177,-0.0007754008984193206
1783696419945380900,8.871380859375,0.00021761865355074406,0.00319335563108325,0.00024192669661715627
1783696419955344000,8.88134375,0.002182719763368368,-0.0011568653862923384,0.0022443365305662155
1783696419965307000,8.891306884765624,-0.00011505560541991144,-0.0004069192800670862,-0.0007615735521540046
1783696419975270000,8.901269775390626,0.0011763479560613632,0.0015809483593329787,-0.0011052328627556562
1783696419985233000,8.91123291015625,-0.0012295518536120653,-0.0004153571790084243,0.0007595124188810587
1783696419995196000,8.92119580078125,-0.0005793562741018832,0.0006271629827097058,0.0006360125262290239
1783696420005160000,8.931159912109376,0.0010342530440539122,0.0015640630153939128,0.0015593304997310042
1783696420015123000,8.941123046875,-0.0012671900913119316,-0.0009487534407526255,-0.000788692501373589
1783696420025086000,8.9510859375,0.00025693693896755576,-0.00008216081187129021,-0.0010219855466857553
1783696420035049000,8.961049072265626,-0.0009473520913161337,0.0010726130567491055,0.0008516365778632462
1783696420045012000,8.971011962890625,0.0012995568104088306,-0.0012701698578894138,-0.00046156812459230423
1783696420054974700,8.980974609375,0.00014784510130994022,0.002811390208080411,-0.0009847808396443725
1783696420064937700,8.990937744140625,-0.0007642875425517559,0.00014263647608458996,0.0003992638667114079
1783696420074901800,9.00090185546875,0.0010336573468521237,-0.0021317487116903067,0.0009886347688734531
1783696420084864800,9.01086474609375,-0.0012289644218981266,0.0015031998045742512,-0.0008478810777887702
1783696420094827800,9.020827880859375,-0.001954952720552683,-0.0014611979713663459,0.0012552001280710101
1783696420104791000,9.030791015625,0.0011287215165793896,-0.00004306458868086338,-0.002163499593734741
1783696420114754000,9.040754150390624,-0.0012755224015563726,0.003404022892937064,0.001030322047881782
1783696420124717000,9.050717041015625,-0.0011985570890828967,0.00028998858761042356,-0.0006514640990644693
1783696420134679800,9.0606796875,0.0008490938926115632,-0.0011327920947223902,-0.000916460994631052
1783696420144643800,9.070643798828126,-0.0006662447704002261,0.002294962527230382,0.00013495504390448332
1783696420154606800,9.08060693359375,-0.0005854274495504797,-0.0009443395538255572,-0.0006733040791004896
1783696420164569900,9.09056982421875,0.0003637231420725584,-0.0016679203836247325,0.0010284559102728963
1783696420174532900,9.100532958984376,0.001052799983881414,0.0012729356531053782,-0.0011014388874173164
1783696420184495900,9.110495849609375,-0.0007224631262943149,-0.002937788376584649,0.001953206956386566
1783696420194459000,9.120458984375,0.0008087851456366479,-0.000005207839421927929,-0.00047690607607364655
1783696420204422000,9.130421875,-0.0014892565086483955,0.0031080273911356926,-0.0007765116170048714
1783696420214385000,9.140385009765625,-0.0007225775625556707,-0.0015526838833466172,0.00027661072090268135
1783696420224348700,9.1503486328125,0.0002987446787301451,-0.0013841058826074004,-0.00005015917122364044
1783696420234312000,9.16031201171875,-0.001377518754452467,0.0017935087671503425,0.0006121033802628517
1783696420244275000,9.17027490234375,-0.00048322934890165925,-0.0008568692719563842,0.00021981977624818683
1783696420254238000,9.180238037109374,-0.0006582930218428373,-0.0005853547481819987,-0.0012789999600499868
1783696420264201000,9.190200927734375,0.00028073752764612436,-0.000502530368976295,-0.00016260286793112755
1783696420274164000,9.2001640625,0.0008438434451818466,-0.001262362697161734,-0.00049984036013484
1783696420284127000,9.210126953125,0.00034956083982251585,0.0019424853380769491,-0.00115471170283854
1783696420294091000,9.220091064453126,-0.00016502178914379328,0.00046112341806292534,0.0009449521894566715
1783696420304053800,9.2300537109375,0.0004925127141177654,-0.0018563593039289117,0.0004469410632736981
1783696420314016800,9.240016845703124,0.00004031852586194873,0.0004797701258212328,-0.0008098777616396546
1783696420323979800,9.249979736328125,-0.0005439789965748787,-0.0004720435244962573,0.0015233175363391638
1783696420333942800,9.25994287109375,-0.0009227135451510549,-0.0014616036787629128,-0.0009967813966795802
1783696420343906000,9.269906005859376,0.0007351042004302144,0.0018606898374855518,0.00006155890878289938
1783696420353869000,9.279869140625,-0.0018213381990790367,0.00045723095536231995,-0.00048386771231889725
1783696420363832800,9.289832763671875,0.00019893579883500934,-0.0020469394512474537,-0.0012101117754355073
1783696420373796000,9.299796142578124,0.0011207906063646078,0.0009865548927336931,-0.0008126713801175356
1783696420383758800,9.3097587890625,-0.0007061378564685583,-0.00046273740008473396,0.00034180894726887345
1783696420394344700,9.3203447265625,-0.0013626071158796549,-0.0011956393718719482,-0.0002603317843750119
1783696420404308000,9.330307861328125,0.0008490988984704018,0.00009697326458990574,0.0011944574071094394
1783696420414271000,9.34027099609375,0.001441636006347835,0.0011910580797120929,0.0008327409741468728
1783696420424234000,9.35023388671875,0.0006988804088905454,-0.0010803519980981946,-0.0015071124071255326
1783696420434197000,9.360197021484375,-0.0005145245813764632,0.002589799463748932,-0.0008254057029262185
1783696420444160000,9.370159912109376,-0.0009584735380485654,-0.0021346481516957283,0.0006137666059657931
1783696420454122800,9.380122802734375,-0.0011673618573695421,0.0007401813054457307,-0.0012425435706973076
1783696420464086800,9.390086669921875,0.0006079013692215085,0.0031604620162397623,0.00124351738486439
1783696420474049800,9.4000498046875,-0.0010622956324368715,-0.0026962857227772474,0.00032358698081225157
1783696420484012800,9.4100126953125,-0.0002050241455435753,0.0017213656101375818,0.0001419594045728445
1783696420493975800,9.419975830078124,-0.0003211319271940738,0.002477851463481784,-0.000020000035874545574
1783696420503938800,9.429938720703126,0.002000079257413745,-0.002749401144683361,-0.0010799382580444217
1783696420513901800,9.43990185546875,0.000026605906896293163,0.0001273221569135785,-0.0010671417694538832
1783696420523865000,9.449864990234374,0.00022367978817783296,0.0028916834853589535,-0.001423739129677415
1783696420533827800,9.459827880859375,-0.0004885024391114712,-0.0018910252256318927,0.00046152248978614807
1783696420543791900,9.4697919921875,-0.000401683384552598,-0.00017461786046624184,-0.0007523463573306799
1783696420553755000,9.4797548828125,0.00037780217826366425,0.0014980076812207699,-0.0005516302771866322
1783696420563718000,9.4897177734375,-0.0008946561720222235,-0.0009121530456468463,-0.0008533664513379335
1783696420573681000,9.499680908203125,-0.0006672508898191154,0.00021695427130907774,-0.0015156163135543466
1783696420583644000,9.509643798828124,0.0009570110705681145,-0.0004147475119680166,0.0005312893190421164
1783696420593607000,9.51960693359375,0.0008217488648369908,-0.0007423938950523734,-0.000837171683087945
1783696420603570000,9.52956982421875,-0.00045070942724123597,0.002135684248059988,-0.0007871042471379042
1783696420613534000,9.539533935546874,-0.0013463106006383896,-0.0011369038838893175,-0.0010997903300449252
1783696420623496700,9.54949658203125,0.00044626311864703894,-0.002588592702522874,-0.0007913962472230196
1783696420633459700,9.559459716796875,-0.00017069181194528937,0.002853189595043659,-0.0013813987607136369
1783696420643422700,9.569422607421876,-0.0006971987895667553,0.0002808423014357686,0.0004540519439615309
1783696420653385700,9.5793857421875,-0.0004470772109925747,-0.0012081958120688796,0.000021008774638175964
1783696420663348700,9.5893486328125,-0.0015980954049155116,0.002479749731719494,-0.0024594594724476337
1783696420673311700,9.599311767578126,-0.0005803651292808354,-0.001302593038417399,0.0017495809588581324
1783696420683275800,9.60927587890625,0.0004686540341936052,-0.0015233691083267331,-0.00047362595796585083
1783696420693238800,9.61923876953125,0.0011600020807236433,0.002018084516748786,0.00024005386512726545
1783696420703824000,9.629823974609375,-0.0004200513940304518,-0.0005606543272733688,-0.000977276940830052
1783696420713787000,9.639786865234376,0.00041791718103922904,-0.00001818174496293068,0.0005541260470636189
1783696420723751000,9.6497509765625,-0.0013102081138640642,0.0012284439289942384,-0.00036013720091432333
1783696420733713700,9.659713623046875,-0.0012024084571748972,-0.0011777165345847607,0.000018630060367286205
1783696420743676700,9.6696767578125,0.00044848513789474964,-0.0007358982693403959,-0.00008869532030075788
1783696420753639700,9.6796396484375,0.0002517042448744178,0.0014628848293796182,0.00013534660683944821
1783696420763602700,9.689602783203124,0.0010298799024894834,-0.0028668823651969433,-0.000439629890024662
1783696420773565700,9.699565673828126,-0.0000024807231966406107,0.0011902141850441694,-0.0007964421529322863
1783696420783528700,9.70952880859375,-0.00018304305558558553,0.002866940340027213,-0.002144001657143235
1783696420793492700,9.71949267578125,-0.00046312727499753237,-0.0018962417962029576,-0.0001053874148055911
1783696420803455700,9.729455810546876,0.0003225052496418357,-0.0006530781975015998,-0.0007642534328624606
1783696420813418800,9.739418701171875,-0.0006720218225382268,0.0027100727893412113,0.0008335743914358318
1783696420823381800,9.7493818359375,-0.000678413431160152,-0.0024029305204749107,-0.0011068047024309635
1783696420833344800,9.7593447265625,-0.00015635656018275768,0.0005649172235280275,-0.0009412126382812858
1783696420843307800,9.769307861328125,-0.00011720809561666101,0.003187331836670637,0.0014194133691489697
1783696420853270800,9.779270751953124,-0.00014145337627269328,-0.004318014718592167,0.00001168111339211464
1783696420863234800,9.78923486328125,0.00035069879959337413,0.0000684778206050396,0.0007656220113858581
1783696420873197800,9.79919775390625,-0.0009589912369847298,0.0016466773813590407,-0.000493788393214345
1783696420883160800,9.809160888671874,-0.000956860720179975,-0.002209580037742853,-0.0010115070035681129
1783696420893123600,9.81912353515625,-0.00037425762275233865,-0.0006139792967587709,-0.001046070596203208
1783696420903086600,9.829086669921875,-0.00036440390977077186,0.0008065507863648236,0.001146776252426207
1783696420913049600,9.839049560546876,-0.0008657079306431115,-0.0026151209603995085,-0.000594376353546977
1783696420923012600,9.8490126953125,-0.0004068452981300652,0.0010166318388655782,0.00029298890149220824
1783696420932976600,9.8589765625,-0.0005907109007239342,0.00004677858669310808,0.0008433291222900152
1783696420942939600,9.868939697265626,-0.00004343132604844868,-0.0020677712745964527,-0.00045655982103198767
1783696420952903000,9.87890283203125,-0.0005584441241808236,0.0014685244532302022,0.0009648006525821984
1783696420962866000,9.888865966796875,-0.00041143762064166367,0.009599154815077782,0.00925894919782877
1783696420972828700,9.89882861328125,-0.002869643270969391,0.08764450252056122,0.10086628794670105
1783696420982791700,9.908791748046875,-0.00543772941455245,0.06617169827222824,0.09079340845346451
1783696420992754700,9.918754638671874,-0.00004565875860862434,-0.017266152426600456,0.005888546817004681
1783696421002718700,9.92871875,0.0012001680443063378,-0.030905265361070633,-0.04167976975440979
1783696421012681700,9.938681640625,0.00028401752933859825,0.01072667632251978,-0.020068034529685974
1783696421022644700,9.948644775390624,0.0012848335318267345,-0.0033832844346761703,-0.02287500724196434
1783696421032607700,9.958607666015626,0.0010595845524221659,-0.05053414776921272,-0.0488039031624794
1783696421042570800,9.96857080078125,0.0017807686235755682,-0.04907340556383133,-0.03960561007261276
1783696421052533500,9.978533447265624,0.0009655664907768369,-0.012857628986239433,-0.017432140186429024
1783696421062496800,9.988496826171875,-0.00022326860926114023,0.011805905029177666,-0.007010126486420631
1783696421072459800,9.998459716796875,-0.0010165823623538017,0.006023103836923838,-0.0002620997838675976
