time,seconds_elapsed,z,y,x
1783696358477082400,0.069082275390625,0.0007942107622511685,-0.008479390293359756,-0.010325734503567219
1783696358487045600,0.079045654296875,0.0013516858452931046,0.02116120047867298,-0.011758295819163322
1783696358497009400,0.089009521484375,-0.0004621931875590235,0.0060304501093924046,0.0010640264954417944
1783696358506972700,0.09897265625,0.0002523537550587207,-0.014799254015088081,0.008002959191799164
1783696358516935700,0.108935791015625,-0.0010102508822456002,-0.006761299911886454,0.003106204327195883
1783696358526898400,0.1188984375,-0.001339066307991743,0.006636355072259903,-0.0018142616609111428
1783696358536862500,0.128862548828125,-0.000835728831589222,0.00737405102699995,-0.002728525083512068
1783696358546825500,0.138825439453125,0.0004583974077831954,-0.0011554368538782,-0.004776476416736841
1783696358556788000,0.1487880859375,-0.0012920984299853444,-0.004471604712307453,0.00098207697737962
1783696358566751000,0.1587509765625,0.0011623671744018793,0.0004614535719156265,0.005852751433849335
1783696358576715000,0.168715087890625,-0.002227304270491004,0.0014484210405498743,0.0035206214524805546
1783696358586678000,0.178677978515625,-0.00039755384204909205,-0.0028750337660312653,-0.007216759957373142
1783696358596641000,0.18864111328125,0.0001545194536447525,0.0020390308927744627,-0.0052683912217617035
1783696358606604000,0.19860400390625,-0.0018098697764798999,0.000035644276067614555,0.006287997588515282
1783696358616568000,0.208568115234375,0.00018217467004433274,-0.0013329541543498635,0.005343373864889145
1783696358626531000,0.218531005859375,-0.0016128169372677803,0.000021851039491593838,-0.004039009101688862
1783696358636493800,0.228493896484375,-0.0008905677241273224,-0.0011922840494662523,-0.001568660605698824
1783696358646456800,0.238456787109375,0.00046470400411635637,-0.000984019716270268,0.0012990027898922563
1783696358656420900,0.2484208984375,-0.0012658180203288794,-0.0054855612106621265,0.005032754503190517
1783696358666384000,0.2583837890625,-0.0017591430805623531,-0.006108553148806095,0.004434293136000633
1783696358676347100,0.26834716796875,-0.0008219766896218061,-0.0027122236788272858,-0.0001868237741291523
1783696358686310100,0.27831005859375,-0.0006440020515583456,-0.0015240483917295933,0.0020805452950298786
1783696358696274000,0.28827392578125,-0.0007039231713861227,-0.003947258926928043,0.0014938509557396173
1783696358706237200,0.2982373046875,-0.002494663465768099,-0.004415602423250675,0.002839174121618271
1783696358716200200,0.3082001953125,-0.0008035562350414693,-0.0019694888032972813,0.003081521950662136
1783696358726164200,0.318164306640625,-0.0030952924862504005,-0.004865813069045544,0.00237154308706522
1783696358736127200,0.328127197265625,-0.0012627714313566685,-0.0006463007302954793,-0.0023337295278906822
1783696358746090000,0.338090087890625,0.0010998358484357595,0.0004658654797822237,0.0006056866841390729
1783696358756053000,0.348052978515625,0.0009749336168169975,-0.0002657049335539341,-0.0010068572591990232
1783696358766016000,0.35801611328125,0.0022502043284475803,0.002805422293022275,-0.0030847410671412945
1783696358775980000,0.36797998046875,0.002418782562017441,0.004324489273130894,-0.0038160448893904686
1783696358785943000,0.377943115234375,0.0007198669482022524,0.0034205219708383083,-0.003318024566397071
1783696358795906000,0.387906005859375,0.0006138731259852648,0.0037126708775758743,-0.003226678119972348
1783696358805870000,0.3978701171875,0.0016007553786039352,0.002849982352927327,-0.004108174704015255
1783696358815833000,0.4078330078125,0.0009639934869483113,-0.0017580852145329118,-0.002491103485226631
1783696358825796000,0.417796142578125,0.002075276104733348,0.005254356190562248,-0.0019077584147453308
1783696358835758800,0.4277587890625,0.0009389054030179977,0.0021203483920544386,-0.001580722164362669
1783696358845723000,0.437722900390625,0.0020399412605911493,0.00008072424679994583,-0.001402566907927394
1783696358855686000,0.447685791015625,0.0032383636571466923,0.0041396478191018105,-0.0019136276096105576
1783696358865649000,0.45764892578125,0.00014659413136541843,0.004107919987291098,-0.002023405395448208
1783696358875612000,0.46761181640625,0.0003577828174456954,0.001174714183434844,-0.0023435172624886036
1783696358885576000,0.477575927734375,0.0007676848326809704,0.006149390712380409,-0.0015630802372470498
1783696358895539000,0.4875390625,0.0016678334213793278,0.004596501588821411,-0.0004107304848730564
1783696358905502200,0.497502197265625,0.00041499888175167143,0.0011553829535841942,-0.0025551049038767815
1783696358915465200,0.50746533203125,0.0010440375190228224,0.0011079786345362663,-0.0002559978747740388
1783696358925429000,0.517428955078125,-0.00007892269059084356,0.0005506204906851053,-0.00019791361410170794
1783696358935392000,0.52739208984375,0.0016872857231646776,0.0016276028472930193,-0.0009041838347911835
1783696358945355000,0.53735498046875,0.0017791871214285493,0.0020275982096791267,0.0004234600346535444
1783696358955318000,0.547318115234375,0.0006052657263353467,0.0012707278365269303,-0.0011017322540283203
1783696358965282000,0.557281982421875,0.0017414342146366835,0.002036266028881073,-0.0012035411782562733
1783696358975245000,0.5672451171875,0.0019241271074861288,0.003827241947874427,-0.002951639937236905
1783696358985208000,0.5772080078125,0.0009558532619848847,0.0017966900486499071,-0.0025671774055808783
1783696358995171000,0.587171142578125,0.003146303351968527,0.0011641893070191145,-0.0034356340765953064
1783696359005135000,0.597135009765625,0.0026763405185192823,0.003002394223585725,-0.003456683363765478
1783696359015098000,0.60709814453125,0.0014773854054510593,0.0031707058660686016,-0.001263570273295045
1783696359025061000,0.61706103515625,0.0023328792303800583,0.004425985738635063,-0.00294324173592031
1783696359035024000,0.62702392578125,0.00045348663115873933,0.0009710671729408205,-0.0031581588555127382
1783696359044988000,0.63698779296875,0.00017283245688304305,0.0002173271495848894,0.0009773214114829898
1783696359054951000,0.646950927734375,0.002252761274576187,0.0013126851990818977,-0.0034419281873852015
1783696359064914000,0.656913818359375,-0.0005677714943885803,0.0015379334799945354,-0.0007062624208629131
1783696359074877000,0.666876953125,-0.0009864203166216612,0.0013041079510003328,-0.0014703231863677502
1783696359084841000,0.676841064453125,-0.000018552556866779923,0.00566437654197216,-0.0008485232247039676
1783696359094804000,0.686803955078125,-0.0005898006493225694,-0.003039100207388401,-0.000005366397090256214
1783696359104767000,0.69676708984375,-0.0023096599616110325,-0.004006677307188511,-0.001066864118911326
1783696359114730200,0.706730224609375,-0.0006209496641531587,0.0025036861188709736,-0.0025627617724239826
1783696359124694000,0.716694091796875,-0.0007364666671492159,-0.00011139234993606806,0.001242553349584341
1783696359134657000,0.726656982421875,-0.0005947864847257733,-0.0006450898945331573,0.0018140677129849792
1783696359144620000,0.7366201171875,-0.000404519698349759,0.0014593701343983412,-0.0016404993366450071
1783696359154583000,0.7465830078125,0.000555017264559865,0.0004068888956680894,-0.0007944130338728428
1783696359164547000,0.756547119140625,-0.0001580280950292945,0.0008609277429059148,-0.00024215900339186192
1783696359174510000,0.766510009765625,0.00045023788698017597,0.0017277866136282682,-0.0010347157949581742
1783696359184473000,0.77647314453125,-0.0006903089815750718,-0.00005351135041564703,-0.0023876111954450607
1783696359194436000,0.78643603515625,0.0005648388178087771,0.001514557865448296,-0.002084277104586363
1783696359204400000,0.796400146484375,-0.000985344173386693,0.0015813378849998116,0.000038119382224977016
1783696359214363100,0.806363037109375,0.001796593889594078,-0.0026379083283245564,0.0009920636657625437
1783696359224326100,0.816326171875,0.00023833528393879533,0.000208543729968369,-0.0009250029688701034
1783696359234289000,0.826288818359375,0.0004908029804937541,0.0006351821357384324,-0.0008621524320915341
1783696359244253000,0.8362529296875,-0.00035425013629719615,-0.0022233943454921246,0.0012262032832950354
1783696359254216000,0.8462158203125,-0.0002788826823234558,0.0003007495542988181,0.0002413662732578814
1783696359264179000,0.856178955078125,0.0009608939872123301,0.0035321032628417015,-0.001627421472221613
1783696359274142000,0.866141845703125,-0.0008452619076706469,-0.0033780005760490894,0.0005419894587248564
1783696359284106000,0.87610595703125,-0.0006301524117588997,0.0009444818715564907,0.0003630617866292596
1783696359294069000,0.886069091796875,0.00016879593022167683,0.0012938885483890772,0.0012781239347532392
1783696359304032000,0.896031982421875,0.0006726980209350586,-0.002137920819222927,0.0011162984883412719
1783696359313995000,0.9059951171875,0.0018157268641516566,0.0014000886585563421,-0.00022939685732126236
1783696359323959000,0.915958984375,0.0021718223579227924,0.0038655363023281097,0.0009736596257425845
1783696359333921800,0.925921875,-0.00021836473024450243,-0.001045865355990827,-0.0013238494284451008
1783696359343885000,0.935885009765625,-0.0005361218936741352,-0.00007157027721405029,-0.0001974661136046052
1783696359353848000,0.94584814453125,0.001499332138337195,0.0010640015825629234,0.0022470494732260704
1783696359363812000,0.95581201171875,-0.00036449855542741716,-0.001604766584932804,0.00039678008761256933
1783696359373775000,0.965775146484375,-0.0004718239651992917,-0.00006705743726342916,0.0004401896148920059
1783696359383738000,0.975738037109375,0.0012791306944563985,-0.0014029954327270389,0.0007092077285051346
1783696359393701000,0.985701171875,0.00007964298129081726,-0.002097015269100666,0.0003843020531348884
1783696359403665200,0.9956650390625,0.001036943169310689,0.0006646477850154042,-0.0007766273338347673
1783696359413628200,1.005628173828125,-0.0005654807901009917,-0.0009705331176519394,0.001089982339181006
1783696359423591200,1.015591064453125,0.0006888780044391751,-0.0028097620233893394,-0.00033556960988789797
1783696359433554000,1.025553955078125,-0.00010501037468202412,0.0021194827277213335,0.00013021728955209255
1783696359443518000,1.03551806640625,0.0007583430269733071,0.0004220504779368639,-0.0013410376850515604
1783696359453481000,1.04548095703125,-0.00048029315075837076,0.0004915590398013592,0.00033515581162646413
1783696359463444000,1.05544384765625,0.001054530031979084,0.000031830742955207825,0.0012894913088530302
1783696359473407000,1.065406982421875,-0.00028477373416535556,0.0006305093411356211,-0.00026073481421917677
1783696359483371000,1.07537109375,-0.00004869923577643931,0.0001485531684011221,-0.0005344325909391046
1783696359493334000,1.085333984375,0.001125488430261612,0.001418614643625915,-0.00009634264279156923
1783696359503297000,1.095297119140625,0.001356842927634716,-0.0021133627742528915,0.0006099634920246899
1783696359513260000,1.105260009765625,-0.0006178910261951387,0.0017436932539567351,-0.001344530493952334
1783696359523224000,1.11522412109375,0.0004976210184395313,0.0012292981846258044,0.0001684336457401514
1783696359533186800,1.125186767578125,-0.000008379574865102768,-0.0023523871786892414,-0.00036366586573421955
1783696359543149800,1.13514990234375,0.000032612180802971125,0.0008392008021473885,-0.0004220561822876334
1783696359553113000,1.145113037109375,0.00008401120430789888,0.002313260454684496,-0.00005374103784561157
1783696359563076600,1.15507666015625,-0.0009861111175268888,-0.0035125501453876495,0.0002091894275508821
1783696359573039900,1.165039794921875,0.0015923616010695696,0.00010721816215664148,0.001553286798298359
1783696359583003000,1.1750029296875,-0.00122536881826818,0.002802036702632904,0.0012962333858013153
1783696359592966000,1.1849658203125,-0.0007044546073302627,-0.0011671384563669562,0.0015313905896618962
1783696359602928600,1.1949287109375,-0.0016575581394135952,-0.0006668423302471638,0.000023377127945423126
1783696359612892700,1.204892578125,0.000011711235856637359,0.0008692689589224756,0.001415145001374185
1783696359622855700,1.214855712890625,-0.0014038648223504424,-0.0010865910444408655,-0.000995339942164719
1783696359632818700,1.224818603515625,-0.000012363132555037737,0.0012633822625502944,-0.0010973390890285373
1783696359642781700,1.23478173828125,0.0011800191132351756,0.00025626481510698795,0.0014486337313428521
1783696359652745700,1.244745849609375,-0.0030003448482602835,-0.0005956804379820824,-0.0025197425857186317
1783696359662708700,1.254708740234375,0.0002996422117576003,0.0015855948440730572,-0.001401557819917798
1783696359672671700,1.264671630859375,-0.001736078062094748,-0.0005356130423024297,0.0028033070266246796
1783696359682634800,1.274634765625,-0.0008703806670382619,-0.00037670822348445654,0.0009702351526357234
1783696359692598800,1.284598876953125,0.0005506821325980127,0.0017705984646454453,-0.0006124814972281456
1783696359702561500,1.2945615234375,-0.0007683949079364538,0.000497738947160542,0.00003365939483046532
1783696359712524500,1.304524658203125,0.0008084627334028482,-0.000915867043659091,-0.0003527653170749545
1783696359722487800,1.31448779296875,0.0000017579004634171724,0.0014403467066586018,-0.000679965945892036
1783696359732451600,1.32445166015625,-0.00015164018259383738,0.001337016117759049,-0.00013907789252698421
1783696359742414600,1.33441455078125,0.0004865317023359239,-0.0014431143645197153,0.0006616233731620014
1783696359752377900,1.3443779296875,-0.0010378616861999035,0.0018978210864588618,-0.00009524705819785595
1783696359762340900,1.3543408203125,0.0020801995415240526,0.0003171749413013458,0.0008366879774257541
1783696359772305000,1.364304931640625,0.0002759077469818294,-0.001214941730722785,0.001705677481368184
1783696359782268000,1.374267822265625,-0.00029413209995254874,0.0014092308701947331,0.00040496053406968713
1783696359792231000,1.38423095703125,-0.00005870868335478008,-0.0020406281109899282,-0.00048373627942055464
1783696359802193700,1.394193603515625,-0.002334030345082283,-0.0007426243973895907,-0.00018461840227246284
1783696359812157700,1.40415771484375,0.0012324749259278178,0.002079793717712164,0.001412479323334992
1783696359822120700,1.41412060546875,0.0002869917079806328,-0.001781224156729877,-0.00016726588364690542
1783696359832083700,1.424083740234375,0.00015969265950843692,-0.0012994584394618869,0.0012655147584155202
1783696359842046700,1.434046630859375,-0.000044547137804329395,0.0018131930846720934,0.00036568765062838793
1783696359852009700,1.444009765625,-0.00048263714415952563,-0.0002233261475339532,0.002001933753490448
1783696359861973800,1.453973876953125,6.083864718675613e-7,-0.0010674326913431287,-0.0001183878630399704
1783696359871936800,1.463936767578125,-0.00041511107701808214,0.0024045302998274565,0.0002254262799397111
1783696359881899800,1.473899658203125,0.0018994365818798542,-0.0015871995128691196,0.0004965285770595074
1783696359891862500,1.483862548828125,0.001711151096969843,0.0008043192210607231,-0.0012555650901049376
1783696359901826600,1.49382666015625,0.0007759726140648127,0.0011627699714154005,-0.002106666099280119
1783696359911789600,1.50378955078125,0.0005634524277411401,0.0003651533043012023,-0.0014251632383093238
1783696359921752600,1.513752685546875,0.0008537707617506385,0.0006710242014378309,-0.00018089462537318468
1783696359931715800,1.5237158203125,-0.00018273148452863097,0.0000944498460739851,0.0012409670744091272
1783696359941679600,1.5336796875,-0.00022806538618169725,-0.00368806766346097,-0.001620990689843893
1783696359951642600,1.543642578125,0.00014983717119321227,0.0005892353365197778,-0.00019673211500048637
1783696359961606000,1.55360595703125,-0.0003145394439343363,-0.0005248859524726868,0.0007078483467921615
1783696359971569000,1.56356884765625,0.0004463256918825209,-0.0022562069352716208,-0.00044423516374081373
1783696359981533000,1.573532958984375,-0.0012108321534469724,0.0018541098106652498,-0.00157061405479908
1783696359991496000,1.583495849609375,0.0006744196871295571,0.0007012273999862373,0.00012901530135422945
1783696360001458700,1.593458740234375,-0.00016479703481309116,-0.0009872374357655644,0.0020412744488567114
1783696360011421700,1.603421630859375,-0.0004918331978842616,0.00030785787384957075,0.0018665711395442486
1783696360021385700,1.6133857421875,0.00010628125164657831,-0.003091464750468731,0.002815117361024022
1783696360031348700,1.6233486328125,-0.002672993578016758,-0.004678442142903805,0.002579693915322423
1783696360041311700,1.633311767578125,-0.0027832607738673687,-0.0018247051630169153,0.0027903271839022636
1783696360051274800,1.643274658203125,-0.001769395312294364,-0.0026947599835693836,0.0019117502961307764
1783696360061237800,1.65323779296875,-0.0009793764911592007,-0.0028515253216028214,0.00003886513877660036
1783696360071201800,1.663201904296875,-0.0004997412906959653,0.0007812926778569818,-0.0001536813797429204
1783696360081164800,1.673164794921875,-0.0014807232655584812,0.00023638387210667133,-0.00011820753570646048
1783696360091127600,1.68312744140625,0.0020527588203549385,-0.00017400924116373062,-0.0007842640625312924
1783696360101090600,1.693090576171875,-0.0005249935784377158,0.0016687221359461546,-0.0002838354557752609
1783696360111054600,1.7030546875,-0.0007284590974450111,0.0005230301758274436,0.00021550722885876894
1783696360121017600,1.713017578125,-0.0015630485722795129,0.0012505232589319348,-0.00007892621215432882
1783696360130980600,1.722980712890625,-0.0006029789801687002,0.002551211044192314,0.0003889911458827555
1783696360140944000,1.73294384765625,-0.00030809821328148246,-0.0010825797216966748,0.0015704997349530458
1783696360150907600,1.74290771484375,0.0008820684743113816,0.00027616508305072784,-0.0004156857030466199
1783696360160871000,1.752870849609375,-0.0007372087566182017,-0.001541664358228445,0.0014268939848989248
1783696360170834000,1.762833984375,0.0011347271502017975,-0.00235312944278121,0.00028146832482889295
1783696360180796700,1.772796630859375,-0.0005078285466879606,0.0010782491881400347,-0.0005303388461470604
1783696360190760700,1.7827607421875,0.0007742171874269843,0.0019693428184837103,-0.0002403206890448928
1783696360200723700,1.7927236328125,-0.0008698218734934926,-0.0022297780960798264,-0.001450721058063209
1783696360210686700,1.802686767578125,0.0014535197988152504,0.002993213478475809,-0.00008798146154731512
1783696360220649700,1.812649658203125,0.0003244057879783213,0.0015382727142423391,-0.0005410995800048113
1783696360230612700,1.82261279296875,0.0010850046528503299,-0.0006601667264476418,-0.0013248678296804428
1783696360240576800,1.83257666015625,-0.00023532139312010258,0.002634861972182989,0.0002956355456262827
1783696360250539800,1.842539794921875,0.000021939980797469616,0.0001493337331339717,-0.00034991465508937836
1783696360260502800,1.852502685546875,-0.0005784161039628088,-0.001604176010005176,-0.0006590068805962801
1783696360270465500,1.862465576171875,-0.001390680205076933,0.0026393048465251923,-0.00048110762145370245
1783696360280429800,1.872429931640625,-0.0005532404175028205,0.00043551158159971237,0.0006405190797522664
1783696360290392600,1.882392578125,-0.0007069048006087542,-0.002591437194496393,-0.000250041950494051
1783696360300355600,1.89235546875,0.0005714069702662528,0.0022303424775600433,-0.001731076743453741
1783696360310318600,1.902318603515625,-0.00023233506362885237,-0.0003297544317319989,0.00008280214387923479
1783696360320282600,1.91228271484375,-0.0016003554919734597,-0.0010741346050053835,-0.000594992539845407
1783696360330245600,1.92224560546875,0.0013221973786130548,0.0008390803704969585,0.00005188933573663235
1783696360340209000,1.932208984375,0.0008677151636220515,-0.0008677404839545488,0.0013356748968362808
1783696360350172000,1.942171875,0.0008786341059021652,-0.0003454945981502533,-0.000555702019482851
1783696360360135000,1.952135009765625,-0.00019074685405939817,0.003153958823531866,-0.00012920808512717485
1783696360370099000,1.962098876953125,-0.00032816597376950085,-0.0005334541201591492,0.001000771182589233
1783696360380061700,1.972061767578125,-0.00023074488854035735,-0.0005103984149172902,-0.0008810205617919564
1783696360390024700,1.982024658203125,0.0001404997892677784,0.00008348654955625534,-0.00012361747212707996
1783696360399987700,1.99198779296875,0.0006542538176290691,-0.0002604768378660083,0.0004937240737490356
1783696360409951700,2.00195166015625,-0.00044722959864884615,0.0012386165326461196,-0.0005457076476886868
1783696360419914800,2.011914794921875,-0.0008900355314835906,0.0003776279045268893,-0.00011522334534674883
1783696360429877800,2.021877685546875,0.0014010819140821695,-0.00043037510477006435,0.0013678909745067358
1783696360439840800,2.0318408203125,-0.0006282160757109523,0.0008432217873632908,-0.0010215358342975378
1783696360449804800,2.0418046875,0.0006410464993678033,0.0011039453092962503,0.0016184557462111115
1783696360459767800,2.051767822265625,-0.0011148828780278563,-0.0016599794616922736,0.0002931447816081345
1783696360469730600,2.06173046875,-0.0009279290097765625,0.0017267625080421567,-0.002823818940669298
1783696360479693600,2.071693603515625,0.000528820906765759,0.0021500277798622847,0.00046398950507864356
1783696360489656600,2.081656494140625,0.000319230166496709,-0.001312081585638225,-0.0013831789838150144
1783696360499620600,2.09162060546875,-0.0010129940928891301,0.0041435337625443935,0.00023658736608922482
1783696360509583600,2.10158349609375,-0.0011331026908010244,0.0006012630183249712,0.0016944017261266708
1783696360519546600,2.111546630859375,0.00031514326110482216,-0.0022274134680628777,-0.0004827231168746948
1783696360529510000,2.121510009765625,0.00014629884390160441,0.0008602553280070424,0.0002837345818988979
1783696360539473700,2.1314736328125,0.00041459774365648627,0.0005387621931731701,-0.00009360129479318857
1783696360549437000,2.14143701171875,-0.0012125936336815357,-0.0014173295348882675,-0.0012651258148252964
1783696360559400000,2.15139990234375,0.00006664788816124201,0.0026725190691649914,0.00026142882416024804
1783696360569363000,2.161363037109375,0.000750813982449472,-0.0006974451243877411,-0.00044217833783477545
1783696360579327000,2.171326904296875,0.000043526728404685855,-0.0019395854324102402,0.0005830404115840793
1783696360589290000,2.1812900390625,-0.00044143490958958864,0.0022391804959625006,0.00021126307547092438
1783696360599253000,2.1912529296875,0.0010006023803725839,0.0010097158374264836,0.002235039137303829
1783696360609215700,2.2012158203125,-0.00016240004333667457,-0.0016486516688019037,-0.0020664986222982407
1783696360619180000,2.211179931640625,0.0007697995170019567,-0.00004943809472024441,0.0015108706429600716
1783696360629142800,2.221142822265625,-0.00128775869961828,-0.0005652923136949539,0.0012094008270651102
1783696360639105800,2.231105712890625,-0.00111953669693321,-0.00017252296674996614,-0.00038784416392445564
1783696360649068800,2.24106884765625,-0.0006785172736272216,-0.001210356829687953,0.0011887471191585064
1783696360659031800,2.25103173828125,0.00043143401853740215,-0.0024940622970461845,0.002078079618513584
1783696360668995800,2.260995849609375,-0.0014913682825863361,-0.0003928277874365449,0.0008602159796282649
1783696360678958800,2.270958740234375,-0.0010837711161002517,0.000999589217826724,-0.000021112733520567417
1783696360688921900,2.280921875,-0.0018076184205710888,-0.00369529752060771,0.0007618566742166877
1783696360698884900,2.290884765625,0.0004809186211787164,0.0011579764541238546,0.000488489808049053
1783696360708849000,2.300848876953125,0.0013019712641835213,0.004104497842490673,-0.0017403096426278353
1783696360718811600,2.310811767578125,0.0005665989592671394,0.00016792095266282558,-0.001525732222944498
1783696360728775000,2.32077490234375,0.0009567519882693887,0.0011522253043949604,-0.0033137784339487553
1783696360738738000,2.330738037109375,0.0006713952752761543,0.0031453589908778667,-0.000677694333717227
1783696360748701700,2.34070166015625,-0.00017948469030670822,-0.0034206644631922245,0.0008837170316837728
1783696360758665000,2.3506650390625,-0.0006441768491640687,-0.00004558346699923277,-0.0006376546807587147
1783696360768628000,2.3606279296875,-0.0005887830629944801,0.0001906389370560646,-0.0010568363359197974
1783696360778591000,2.370591064453125,-0.00009807446622289717,-0.0013875466538593173,0.0006272101891227067
1783696360788555000,2.380554931640625,-0.0009401660063304007,0.0002598847495391965,0.00042294571176171303
1783696360798518000,2.39051806640625,0.0001616135996300727,-0.0019440907053649426,0.0020381950307637453
1783696360808480800,2.400480712890625,-0.0007944612298160791,-0.001802943181246519,0.0011638791766017675
1783696360818443800,2.41044384765625,0.0009454269893467426,0.0031183864921331406,0.0016380675369873643
1783696360828406800,2.42040673828125,0.000011722702765837312,0.001920496579259634,0.00035602180287241936
1783696360838370800,2.430370849609375,0.000774598156567663,-0.000046781147830188274,-0.000912016723304987
1783696360848333800,2.440333740234375,-0.00012155549484305084,0.001409169053658843,-0.0006811205530539155
1783696360858296800,2.450296875,0.00021793984342366457,-0.0008335856255143881,0.001030979910865426
1783696360868259800,2.460259765625,-0.0008265519281849265,-0.0021622367203235626,-0.0006934168050065637
1783696360878224000,2.470223876953125,-0.0008065506117418408,0.0021358104422688484,0.001771884853951633
1783696360888187000,2.480186767578125,-0.00011652553803287446,-0.0008549194317311049,-0.00031816388946026564
1783696360898150000,2.49014990234375,0.0001109093427658081,-0.0007874296279624104,-0.0012942858738824725
1783696360908112600,2.500112548828125,0.0006448731874115765,0.003259509801864624,-0.0007547294953837991
1783696360918076700,2.51007666015625,0.00047806487418711185,0.0007953991298563778,-0.000814004335552454
1783696360928039700,2.520039794921875,0.000797111599240452,0.0022524145897477865,-0.001341043971478939
1783696360938003000,2.5300029296875,-0.00029800712945871055,0.0007981972303241491,0.00017178268171846867
1783696360947966000,2.539966064453125,-0.0006913560209795833,0.0004948631394654512,-0.0001826840452849865
1783696360957929700,2.5499296875,-0.0012911923695355654,-0.001130233402363956,0.0010754137765616179
1783696360967893000,2.55989306640625,-0.0009337961673736572,-0.00023248186334967613,0.0014674310805276036
1783696360977856000,2.56985595703125,-0.00022469257237389684,-0.0017154159722849727,0.0009986965451389551
1783696360987819000,2.579819091796875,-0.0006790278712287545,-0.0006389663321897388,-0.0008178456919267774
1783696360997783000,2.589782958984375,0.0010941815562546253,0.002866425085812807,0.00019510812126100063
1783696361007745800,2.599745849609375,-0.0006935984129086137,-0.002193580847233534,0.000731735082808882
1783696361017708800,2.609708740234375,-0.00040418727439828217,-0.0005584441823884845,-0.00031129817944020033
1783696361027671800,2.619671875,0.00009062804747372866,0.0022357443813234568,0.0012298731599003077
1783696361037634800,2.629634765625,0.0007597675430588424,-0.0016978592611849308,0.0023417978081852198
1783696361047598800,2.639598876953125,-0.001722564920783043,-0.0008962478023022413,0.000750559032894671
1783696361057561900,2.649561767578125,0.00008401783998124301,0.000763158081099391,0.0003549288376234472
1783696361067524900,2.65952490234375,-0.0007783137261867523,-0.0003758759703487158,-0.0004331005038693547
1783696361077487900,2.66948779296875,-0.0011249727103859186,0.00015547708608210087,0.00047910865396261215
1783696361087452000,2.679451904296875,0.0006249904981814325,-0.0015177868772298098,0.0007355710840784013
1783696361097415000,2.689414794921875,0.0005314940353855491,-0.0008972497889772058,-0.0004635428776964545
1783696361107377700,2.699377685546875,0.0008252406842075288,0.0028847050853073597,-0.001134393154643476
1783696361117341000,2.7093408203125,-0.00082993577234447,-0.00037916284054517746,0.00043945363722741604
1783696361127304700,2.7193046875,0.0003349308390170336,-0.0017959645483642817,-0.000474010594189167
1783696361137267700,2.729267822265625,0.0022330894134938717,0.002539245644584298,-0.0017705931095406413
1783696361147231000,2.73923095703125,-0.0021826981101185083,-0.0005127368494868279,-0.0014374317834153771
1783696361157194000,2.749194091796875,0.0011458882363513112,-0.0015630524139851332,-0.0011453194310888648
1783696361167158000,2.759157958984375,-0.0008349709096364677,0.0033590018283575773,-0.0006276009371504188
1783696361177121000,2.76912109375,0.0006615761085413396,-0.0009595665615051985,0.00011337327305227518
1783696361187084000,2.779083984375,-0.00043245041160844266,-0.0024035326205193996,-0.00015560595784336329
1783696361197046800,2.789046875,0.00038503645919263363,0.0013538890052586794,0.0005305118975229561
1783696361207010800,2.7990107421875,-0.0005883488920517266,-0.0021939740981906652,-0.00035978283267468214
1783696361216973800,2.808973876953125,0.0000036238343454897404,-0.0007756247650831938,0.00017080525867640972
1783696361226936800,2.818936767578125,-0.0003271407913416624,0.0033125937916338444,-0.000699782045558095
1783696361236899800,2.82889990234375,0.0005494705401360989,-0.0009870609501376748,0.0007673680083826184
1783696361246864000,2.83886376953125,0.0005239042220637202,-0.00017825886607170105,0.0010382115142419934
1783696361256827000,2.848826904296875,-0.0016000044997781515,0.0010479165939614177,0.0005243658670224249
1783696361266790000,2.858789794921875,-0.0005999875138513744,-0.003952434752136469,0.0020602107979357243
1783696361276753000,2.8687529296875,-0.0018008810002356768,-0.0005447466392070055,0.00021946936612948775
1783696361286715600,2.878715576171875,0.001152031822130084,-0.0007034710142761469,0.0028581293299794197
1783696361296679700,2.8886796875,0.00021926377667114139,-0.003146728500723839,0.0015642651123926044
1783696361306642700,2.898642578125,-0.0010079208295792341,0.0012714554322883487,-0.00021898758132010698
1783696361316605700,2.908605712890625,-0.0007305577164515853,0.0013247436145320535,0.0007680939161218703
1783696361326569000,2.91856884765625,0.00010221273987554014,-0.0014598576817661524,-0.0002700062468647957
1783696361336532700,2.92853271484375,-0.00016851312830112875,0.000659350655041635,-0.0018276810878887773
1783696361346495700,2.938495849609375,-0.00009367830352857709,0.0017730846302583814,-0.0004668058827519417
1783696361356459000,2.948458984375,0.0009303611586801708,-0.001449222443625331,-0.0007872141432017088
1783696361366422000,2.958422119140625,-0.0006355775403790176,0.0016200706595554948,-0.0027233322616666555
1783696361376386000,2.968385986328125,0.0035664187744259834,0.0014364061644300818,-0.0018902261508628726
1783696361386349000,2.97834912109375,-0.0001739910658216104,-0.0006294078193604946,-0.0015320308739319444
1783696361396311800,2.988311767578125,0.0016288142651319504,0.0020478595979511738,-0.0019531692378222942
1783696361406274800,2.99827490234375,0.0002013598568737507,0.0009722087415866554,0.000003987806849181652
1783696361416238800,3.00823876953125,-0.0018079634755849838,-0.0029513039626181126,-0.0017656241543591022
1783696361426201900,3.018201904296875,-0.0003413607191760093,0.00118698226287961,0.0008029947057366371
1783696361436164900,3.028164794921875,0.00027673045406118035,-0.0019499490736052394,0.0025238897651433945
1783696361446127900,3.0381279296875,-0.0003600313502829522,-0.002944639418274164,0.0002572732628323138
1783696361456092000,3.048091796875,-0.0014148521004244685,-0.0000508816447108984,0.000712525041308254
1783696361466055000,3.058054931640625,-0.0015927512431517243,-0.003621115116402507,0.0024891197681427
1783696361476018000,3.068017822265625,-0.0011547040194272995,-0.002359371166676283,0.0010794654954224825
1783696361485980700,3.077980712890625,-0.0002833176404237747,0.0009583947248756886,0.0007513641030527651
1783696361495943700,3.087943603515625,-0.00048475139192305505,-0.000978111638687551,0.001461209263652563
1783696361505907700,3.09790771484375,-0.0009207108523696661,0.0004173846682533622,0.0007147251162678003
1783696361515870700,3.10787060546875,-0.00007721959264017642,0.001796636264771223,-0.0006680176593363285
1783696361525833700,3.117833740234375,0.0007275877287611365,0.0010549458675086498,-0.0015500567387789488
1783696361535797000,3.127796875,0.000923805870115757,0.0010189141612499952,-0.0017769590485841036
1783696361545760800,3.1377607421875,0.0003996957966592163,0.0014032082399353385,0.0002470432664267719
1783696361555724000,3.14772412109375,0.0003799682599492371,0.00031008082441985607,-0.0016768453642725945
1783696361565687000,3.15768701171875,-0.0004333610995672643,0.0008530993363820016,-0.001524246297776699
1783696361575650000,3.167650146484375,0.0003775298537220806,0.0023467137943953276,-0.0004701170837506652
1783696361585614000,3.177614013671875,-0.00047228485345840454,-0.000659995130263269,-0.000392086454667151
1783696361595577000,3.1875771484375,-0.0014934464124962687,0.001330263214185834,-0.000012728036381304264
1783696361605539800,3.197539794921875,0.00029193676891736686,0.001288984320126474,0.0009984743082895875
1783696361615502800,3.2075029296875,0.0005225495551712811,-0.0011987348552793264,-0.0004984361585229635
1783696361625465900,3.2174658203125,0.00079632259439677,0.000716078036930412,-0.0011370622087270021
1783696361635430000,3.227429931640625,0.0003556277079042047,-0.00040513731073588133,-0.0001905200770124793
1783696361645393000,3.237392822265625,-0.0006023113382980227,-0.003053118009120226,-0.0006509806262329221
1783696361655356000,3.24735595703125,-0.0004024133668281138,0.001988921547308564,0.00011387304402887821
1783696361665319000,3.25731884765625,0.0006511332467198372,0.00047651235945522785,-0.0022688573226332664
1783696361675283000,3.267282958984375,-0.001562599092721939,-0.0005150113720446825,-0.0007552440511062741
1783696361685246000,3.277245849609375,0.0000808375480119139,0.0007161680259741843,-0.000329404603689909
1783696361695208700,3.287208740234375,0.0013320015277713537,0.00045364629477262497,0.00017442088574171066
1783696361705171700,3.297171630859375,-0.002093888819217682,-0.0010321313748136163,0.001285225385800004
1783696361715135700,3.3071357421875,0.00006351730553433299,0.0015759665984660387,0.0013691382482647896
1783696361725098800,3.3170986328125,-0.0001527313725091517,-0.0007556307828053832,0.001647704979404807
1783696361735061800,3.327061767578125,0.00007484585512429476,-0.0010258099064230919,-0.0013763544848188758
1783696361745025000,3.33702490234375,0.0010788575746119022,0.0016610531602054834,-0.00038565858267247677
1783696361754988800,3.34698876953125,-0.000548028212506324,0.0002633584663271904,0.0004762483877129853
1783696361764952000,3.3569521484375,0.00026263800100423396,-0.00055875931866467,0.0006397664546966553
1783696361774915000,3.3669150390625,0.00014055415522307158,0.0028619354125112295,-0.0006447017658501863
1783696361784877800,3.3768779296875,-0.0003974043938796967,-0.00029071466997265816,0.001054927590303123
1783696361794842000,3.386842041015625,0.000460833398392424,-0.0000024887267500162125,0.0008297928143292665
1783696361804804900,3.396804931640625,0.0007364705670624971,0.0016715743113309145,0.00036587018985301256
1783696361814767900,3.406767822265625,-0.0009912782115861773,-0.0010764326434582472,0.000734751985874027
1783696361824731000,3.41673095703125,-0.0006834167870692909,0.00002798018977046013,-0.00023597024846822023
1783696361834694000,3.42669384765625,-0.0018956786952912807,0.0015182520728558302,-0.0017504808492958546
1783696361844658000,3.436657958984375,-0.0011007250286638737,-0.0014985769521445036,0.000753423199057579
1783696361854621000,3.446620849609375,-0.0006679578218609095,0.0002682035556063056,-0.0002385067055001855
1783696361864584000,3.456583984375,0.0010700211860239506,0.0013784754555672407,-0.0005769944982603192
1783696361874547000,3.466546875,0.00046945648500695825,-0.001262660720385611,0.0007730869692750275
1783696361884511000,3.476510986328125,-0.0005390826263464987,0.002468428108841181,-0.001587006263434887
1783696361894473700,3.4864736328125,-0.0007251997012645006,0.0013635058421641588,0.0005108008626848459
1783696361904436700,3.496436767578125,-0.00003304416895844042,-0.002310591284185648,0.0013771271333098412
1783696361914399700,3.506399658203125,-0.0009467690251767635,0.0015036455588415265,-0.0021474314853549004
1783696361924363800,3.51636376953125,-0.000659147568512708,0.000374731607735157,0.0009575478034093976
1783696361934326800,3.526326904296875,0.00046803720761090517,-0.0014727517263963819,-0.0010862670606002212
1783696361944290000,3.5362900390625,-0.0012201406061649323,0.0018692491576075554,0.00006475113332271576
1783696361954253000,3.546253173828125,-0.0001281136937905103,0.0001419667387381196,0.00013234856305643916
1783696361964216000,3.556216064453125,0.0007240978302434087,-0.0004061119398102164,-0.0014455743366852403
1783696361974180000,3.56618017578125,0.00020846110419370234,-0.0014141430146992207,-0.0017532585188746452
1783696361984142800,3.576142822265625,-0.00013375507842283696,-0.0010476920288056135,0.000579936895519495
1783696361994105900,3.58610595703125,-0.0010786575730890036,-0.0034049893729388714,-0.000055522541515529156
1783696362004068900,3.59606884765625,0.0006984699284657836,0.0021823225542902946,0.00023556093219667673
1783696362014033000,3.606032958984375,0.000031773000955581665,-0.0019012487027794123,0.0011610956862568855
1783696362023996000,3.615995849609375,0.0010182078694924712,-0.00033291324507445097,0.001310765277594328
1783696362033959000,3.625958984375,-0.00012353660713415593,0.0029857612680643797,0.0010006674565374851
1783696362043922000,3.635921875,-0.002407729858532548,-0.0017996729584410787,-0.0013221416156738997
1783696362053886000,3.645885986328125,-0.0006203246884979308,-0.0009103619959205389,-0.00122928898781538
1783696362063849000,3.655848876953125,-0.00013722728181164712,0.0009253548923879862,-0.00046043447218835354
1783696362073812000,3.66581201171875,0.00015768135199323297,-0.0007777001010254025,0.0004812755505554378
1783696362083774700,3.675774658203125,-0.0006252879975363612,-0.0019521542126312852,0.0004807429504580796
1783696362093738800,3.68573876953125,-0.00024034139642026275,0.0018766045104712248,-0.0009444495663046837
1783696362103701800,3.69570166015625,-0.00002622324973344803,-0.002026790753006935,0.001154653960838914
1783696362113664800,3.705664794921875,-0.000255834951531142,-0.00024872610811144114,0.0005625572521239519
1783696362123627800,3.715627685546875,-0.0009471915545873344,0.002159037860110402,-0.00016155617777258158
1783696362133591000,3.725591064453125,0.0017587760230526328,-0.003143323352560401,0.0011101625859737396
1783696362143554800,3.735554931640625,0.0006224053213372827,0.00155981897842139,-0.0006126363296061754
1783696362153518000,3.74551806640625,0.0020410045981407166,0.0018617063760757446,-0.001141298096626997
1783696362163481000,3.755481201171875,0.0020386073738336563,-0.00164434511680156,0.0010190581670030951
1783696362173443800,3.76544384765625,0.00030711584258824587,0.0005430398741737008,-0.0011874479241669178
1783696362183407900,3.775407958984375,0.0002796853077597916,0.0016360011650249362,-0.0006130039691925049
1783696362193371000,3.785370849609375,0.0011671334505081177,-0.0014729623217135668,-0.0004438909236341715
1783696362203334000,3.795333984375,0.0006890961085446179,0.00022160704247653484,0.0011899584205821157
1783696362213297000,3.805296875,0.00036751668085344136,0.0007243658183142543,0.0019826742354780436
1783696362223261000,3.815260986328125,0.0017060214886441827,-0.0025856769643723965,-0.00007941143121570349
1783696362233224000,3.825223876953125,-0.00020621868316084146,0.0016190093010663986,-0.000984146841801703
1783696362243187000,3.83518701171875,0.00014132383512333035,0.0005588048370555043,0.0015959235606715083
1783696362253150000,3.84514990234375,0.0009755046339705586,-0.0008263916242867708,-0.000203771167434752
1783696362263112700,3.85511279296875,-0.0012761980760842562,0.0017315746517851949,-0.0009710278827697039
1783696362273077000,3.865076904296875,0.0006771498010493815,-0.001658651977777481,0.0003418917767703533
1783696362283039700,3.875039794921875,0.001002588076516986,-0.0007427907548844814,-0.00069754000287503
1783696362293002800,3.885002685546875,-0.0004955105250701308,0.0018004958983510733,-0.0017675865674391389
1783696362302965800,3.8949658203125,0.0006472518434748054,-0.0008996829856187105,0.001526211155578494
1783696362312929800,3.9049296875,-0.001103733666241169,-0.0023193873930722475,-0.00113257288467139
1783696362322892800,3.914892822265625,0.001449172617867589,0.0007096920744515955,0.0004669217742048204
1783696362332856000,3.92485595703125,-0.00032209703931584954,-0.0014003869146108627,0.0003035130794160068
1783696362342819000,3.934819091796875,0.0007974959444254637,0.00030590046662837267,-0.0013332656817510724
1783696362352782800,3.944782958984375,0.0008110229391604662,0.0024147904478013515,-0.0016555016627535224
1783696362362746000,3.95474609375,0.0018166325753554702,-0.0010129640577360988,-0.0003505527274683118
1783696362372708900,3.964708984375,0.0014709114329889417,-0.001486180815845728,-0.001580273499712348
1783696362382672000,3.974671875,0.00021043725428171456,0.0010331696830689907,0.000008834758773446083
1783696362392635000,3.984634765625,-0.00016600775416009128,-0.0024760907981544733,-0.0012655816972255707
1783696362402599000,3.994598876953125,-0.0003178079205099493,-0.0006856473628431559,-0.0010341531597077847
1783696362412562000,4.00456201171875,-0.00011978685506619513,0.0007280998397618532,0.0003281474346294999
1783696362422525000,4.01452490234375,0.0003862137673422694,-0.0012383783468976617,0.0009926061611622572
1783696362432488000,4.024488037109375,-0.0019012632546946406,0.00007761211600154638,-0.0009814685909077525
1783696362442452000,4.034451904296875,-0.00045143841998651624,0.0029921755194664,0.00023692764807492495
1783696362452415000,4.0444150390625,0.001221966464072466,-0.0015037043485790491,-0.0004318630089983344
1783696362462377700,4.054377685546875,0.00020011159358546138,-0.00015268276911228895,-0.00046355463564395905
1783696362472340700,4.0643408203125,0.0006626988761126995,0.001471713767386973,-0.0005901763215661049
1783696362482303700,4.0743037109375,-0.00033625285141170025,-0.0021323421970009804,0.0005589775973930955
1783696362492267800,4.084267822265625,0.0014042389811947942,0.002083370927721262,0.0015653481241315603
1783696362502230800,4.094230712890625,0.0014098315732553601,0.0003395330859348178,0.0015810607001185417
1783696362512193800,4.10419384765625,-0.0006658894708380103,-0.0033435651566833258,-0.00030020170379430056
1783696362522157000,4.114156982421875,-0.000680004246532917,0.0010423948988318443,-0.002107955515384674
1783696362532120800,4.124120849609375,-0.0005641811294481158,0.00006423424929380417,0.0005775570753030479
1783696362542084000,4.134083984375,0.0006377034587785602,-0.0014433810720220208,0.00040365266613662243
1783696362552047000,4.144047119140625,-0.0010273481020703912,0.0020601649302989244,-0.0017144458834081888
1783696362562009600,4.154009521484375,-0.000056892167776823044,-0.0004506633849814534,-0.0000776670640334487
1783696362571973600,4.1639736328125,0.0005817444762215018,-0.0006975063588470221,-0.0002223333576694131
1783696362581936600,4.1739365234375,-0.00004942473606206477,0.0025366363115608692,-0.0004076893674209714
1783696362591899400,4.1838994140625,-0.0002460398245602846,-0.0025046109221875668,-0.0009831772185862064
1783696362601862400,4.1938623046875,-0.00025722512509673834,-0.00045637355651706457,0.0008850302547216415
1783696362611825400,4.203825439453125,-0.0011596970725804567,0.002490776591002941,0.0010860550682991743
1783696362621789400,4.21378955078125,-0.0017772840801626444,-0.002250981517136097,0.0012138868914917111
1783696362631752400,4.22375244140625,-0.000237642481806688,-0.000123180216178298,0.00032374198781326413
1783696362641715500,4.233715576171875,0.00088195048738271,0.003184998407959938,-0.0025221118703484535
1783696362651678500,4.243678466796875,-0.000605435692705214,-0.0009705416159704328,0.000010553631000220776
1783696362661642500,4.253642578125,0.000029195594834163785,-0.0013545694528147578,-0.0024147871881723404
1783696362671605500,4.26360546875,-0.00009998799941968173,0.003082860726863146,0.0018461511936038733
1783696362681568500,4.273568603515625,0.0015466446056962013,-0.0017808704869821668,0.00024266185937449336
1783696362691531500,4.283531494140625,0.0006546564982272685,-0.00035045749973505735,-0.0000018315622583031654
1783696362701494500,4.29349462890625,0.0020738551393151283,0.0015987101942300797,-0.0006425881292670965
1783696362711458600,4.30345849609375,-0.0009797364473342896,-0.0005797460908070207,0.0011039938544854522
1783696362721421600,4.313421630859375,0.0008200277807191014,0.0017585093155503273,-0.0003852458903566003
1783696362731384600,4.323384521484375,-0.00012352914200164378,0.000023315660655498505,-0.00047136854846030474
1783696362741347600,4.33334765625,0.0007260192651301622,-0.0015865651657804847,0.0000444857869297266
1783696362751311600,4.3433115234375,0.0008474279893562198,-0.0003229902358725667,-0.0014597143745049834
1783696362761274600,4.353274658203125,0.0004064084787387401,-0.000585844274610281,0.000995720038190484
1783696362771237400,4.3632373046875,0.00016091321595013142,-0.0020896396599709988,-0.00033201684709638357
1783696362781200400,4.373200439453125,-0.00008516285743098706,-0.00027309730648994446,0.0010163416154682636
1783696362791164400,4.383164306640625,-0.00036745358374901116,0.0011037876829504967,0.0005691354162991047
1783696362801127400,4.39312744140625,0.0002266976225655526,-0.0010235452791675925,-0.0014322302304208279
1783696362811090400,4.40309033203125,0.0006389052723534405,0.0020975167863070965,-0.0012337295338511467
1783696362821053400,4.413053466796875,-0.00018694097525440156,-0.00010491732973605394,-0.000621735118329525
1783696362831016400,4.423016357421875,-0.00034996328759007156,-0.0023902796674519777,-0.0006783732678741217
1783696362840980500,4.43298046875,0.0014479367528110743,0.002020980464294553,-0.0009012798545882106
1783696362850943500,4.442943603515625,-0.00036219373578205705,0.00016608857549726963,0.00003095285501331091
1783696362860906200,4.45290625,-0.00005619654257316142,-0.0017676326679065824,-0.0010124735999852419
1783696362870869500,4.462869384765625,-0.0024615179281681776,0.002627117093652487,-0.0007332063978537917
1783696362880833300,4.472833251953125,-0.0012423228472471237,-0.0020081147085875273,0.001928356708958745
1783696362890796500,4.482796630859375,0.0004952267045155168,-0.00028029829263687134,-0.0013332079397514462
1783696362900759600,4.492759521484375,-0.00009706034325063229,0.001957555999979377,-0.000354230054654181
1783696362910722600,4.50272265625,-0.0004426838713698089,-0.0032916220370680094,0.001464585424400866
1783696362920685600,4.512685546875,-0.0016618790104985237,0.00013187143485993147,0.00031463243067264557
1783696362930649600,4.522649658203125,-0.0010248229373246431,0.0017195953987538815,-0.0006798488320782781
1783696362940612600,4.532612548828125,-0.00006848180782981217,-0.0012303880648687482,0.0007766339695081115
1783696362950575600,4.54257568359375,0.0006158096948638558,0.0001811730908229947,-0.0007827903609722853
1783696362960538400,4.552538330078125,-0.0000792753417044878,0.0033580579329282045,-0.000668807071633637
1783696362970502400,4.56250244140625,0.00011719786562025547,-0.0015480397269129753,0.0005528689362108707
1783696362980465400,4.57246533203125,0.0003278538933955133,-0.00013363489415496588,-0.0007648632163181901
1783696362990428400,4.582428466796875,0.00048222410259768367,-0.0000852005323395133,-0.00023416371550410986
1783696363000391400,4.592391357421875,0.00007902152719907463,-0.0023811119608581066,0.00045399711234495044
1783696363010354400,4.6023544921875,-0.001667494303546846,0.001328490674495697,-0.0013015841832384467
1783696363020318500,4.612318359375,-0.0006499005248770118,0.0013415401335805655,0.0010497206822037697
1783696363030281500,4.622281494140625,0.0008476465009152889,-0.00267593702301383,0.0014336046297103167
1783696363040244500,4.632244384765625,0.0005352577427402139,0.000024508568458259106,-0.0007208925671875477
1783696363050207500,4.64220751953125,-0.0011771173449233174,-0.00019969011191278696,0.0012609530240297318
1783696363060171300,4.652171142578125,0.0011009506415575743,-0.0016143613029271364,0.0011064896825700998
1783696363070134500,4.662134521484375,-0.00012863836309406906,0.001130315475165844,-0.0011284418869763613
1783696363080097500,4.67209765625,-0.0004748493083752692,0.0005436211358755827,-0.0007779699517413974
1783696363090060500,4.682060546875,0.0008316322928294539,-0.0005761852953583002,-0.0003425055183470249
1783696363100024600,4.692024658203125,0.00120687170419842,0.0014395613688975573,0.0006939967861399055
1783696363109987600,4.701987548828125,0.000624953187070787,-0.000029051792807877064,-0.00023697130382061005
1783696363119950600,4.71195068359375,0.0002534422092139721,-0.0007462410721927881,-0.0008050235919654369
1783696363129913600,4.72191357421875,0.001039060764014721,0.0008875058847479522,-0.000494397827424109
1783696363139876400,4.73187646484375,-0.0013854808639734983,-0.0018789859022945166,0.0003924348275177181
1783696363149840600,4.741840576171875,-0.0006914332043379545,-0.0022519207559525967,-0.0008771374705247581
1783696363159803400,4.751803466796875,-0.00047971191816031933,0.001608597463928163,-0.0012467843480408192
1783696363169766400,4.761766357421875,-0.0012273008469492197,-0.0017755395965650678,-0.0010725486790761352
1783696363179729400,4.7717294921875,-0.0002374038886046037,-0.0009683353127911687,-0.0004674785304814577
1783696363189692400,4.7816923828125,0.0013319223653525114,0.002213386818766594,-0.0006435911636799574
1783696363199656400,4.791656494140625,-0.000807927455753088,-0.0008460526587441564,-0.0011884740088135004
1783696363209619500,4.801619384765625,0.0000335376535076648,-0.0010097987251356244,-0.00024817371740937233
1783696363219582500,4.81158251953125,-0.00019762474403250962,0.0017383171943947673,-0.0002321947831660509
1783696363229545500,4.82154541015625,-0.001549102715216577,-0.002774500520899892,-0.00044100184459239244
1783696363239509500,4.831509521484375,-0.0001346979261143133,0.0006186328828334808,0.0004825823998544365
1783696363249472300,4.84147216796875,-0.0010516131296753883,0.000222662347368896,-0.0003315476351417601
1783696363259435500,4.851435546875,0.00044002331560477614,-0.0012026614276692271,0.0008016274077817798
1783696363269398500,4.8613984375,-0.000849371193908155,0.0013954814057797194,-0.0005249863024801016
1783696363279361500,4.871361572265625,-0.0008951775962486863,0.002900167368352413,0.0013887613313272595
1783696363289325600,4.88132568359375,-0.0006196611793711782,-0.0018000599229708314,0.0012543986085802317
1783696363299288600,4.89128857421875,0.0008155163377523422,0.0019360886653885245,-0.0013789349468424916
1783696363309251600,4.90125146484375,0.0002731406129896641,0.00009569909889250994,-0.0008763119112700224
1783696363319214600,4.911214599609375,0.0001519668148830533,-0.000591396470554173,-0.001615871791727841
1783696363329178600,4.9211787109375,-0.0007611075416207314,0.0005841169040650129,-0.0008976041572168469
1783696363339141400,4.931141357421875,-0.0003112996055278927,0.0018581731710582972,0.000595630262978375
1783696363349104400,4.9411044921875,-0.000009256415069103241,-0.0006931970128789544,0.0005092477076686919
1783696363359067400,4.9510673828125,-0.000803144765086472,0.0013004452921450138,0.0007095173932611942
1783696363369030400,4.961030517578125,-0.0023507820442318916,0.0003575000446289778,0.0013544117100536823
1783696363378994400,4.970994384765625,-0.0005310441483743489,-0.0005149514181539416,-0.0011843795655295253
1783696363388957400,4.98095751953125,-0.00008543464355170727,0.0007046959945000708,-0.0010612844489514828
1783696363398920400,4.99092041015625,-0.001036449451930821,-0.0010247607715427876,0.00022369064390659332
1783696363408883500,5.000883544921875,0.00021111941896378994,-0.00015933113172650337,0.0004695132956840098
1783696363418847500,5.010847412109375,0.00007316769915632904,0.0024321910459548235,0.00001890643034130335
1783696363428810500,5.020810546875,0.0009502494940534234,-0.0007624493446201086,0.0012256057234480977
1783696363438773500,5.0307734375,-0.0012287488207221031,-0.0025635450147092342,0.00147620914503932
1783696363448736500,5.040736572265625,-0.0003246911510359496,0.001726232934743166,-0.0004525603726506233
1783696363458699500,5.050699462890625,-0.0017574718222022057,-0.00011347874533385038,0.00045371332089416683
1783696363468663600,5.06066357421875,0.0005005360580980778,-0.0005506767192855477,-0.0019512881990522146
1783696363478626600,5.07062646484375,0.0004661812272388488,0.002027263166382909,-0.0010705809108912945
1783696363488589600,5.080589599609375,-0.00027944069006480277,-0.000030079972930252552,0.000039565900806337595
1783696363498552600,5.090552490234375,0.0000036533456295728683,0.0003771174233406782,-0.0008515277877449989
1783696363508516600,5.1005166015625,0.0001609799510333687,0.0017746544908732176,-0.000023631087969988585
1783696363518479600,5.110479736328125,0.0017932313494384289,-0.0005124683957546949,-0.0000302889384329319
1783696363528442400,5.1204423828125,-0.0007485819514840841,0.0009208216797560453,-0.0006559728062711656
1783696363538405400,5.1304052734375,-0.0001150159805547446,0.0009953901171684265,-0.0005209504743106663
1783696363548368400,5.140368408203125,0.00009059204603545368,-0.0036575805861502886,-0.0013913853326812387
1783696363558333200,5.150333251953125,0.0003236186457797885,0.0013414390850812197,0.00023846927797421813
1783696363568296200,5.160296142578125,0.0006372091011144221,0.0016536121256649494,0.00008468976011499763
1783696363578259200,5.17025927734375,0.0002116359828505665,-0.00367590575478971,0.0009792455239221454
1783696363588222200,5.18022216796875,0.0007352647371590137,-0.001284305239096284,-0.00013409426901489496
1783696363598185200,5.190185302734375,-0.000293514400254935,0.0011897714575752616,-0.0001828301465138793
1783696363608149200,5.200149169921875,-0.0011576625984162092,-0.0019278384279459715,0.0003051268286071718
1783696363618112300,5.2101123046875,0.0007238607504405081,0.0010873924475163221,-0.000988370506092906
1783696363628075000,5.220074951171875,-0.0005180658190511167,0.001118521555326879,0.0010267398320138454
1783696363638038300,5.230038330078125,0.00046650480362586677,0.0001978668151423335,-0.0010673037031665444
1783696363648002000,5.240001953125,-0.0012128137750551105,0.0038214344531297684,-0.001594993518665433
1783696363657965000,5.249965087890625,0.00010598351946100593,0.0006040696753188968,-0.0004727375344373286
1783696363667928300,5.25992822265625,-0.0012552805710583925,-0.0006974679417908192,-0.00134470802731812
1783696363677891300,5.269891357421875,0.00011891056783497334,0.0014823294477537274,0.0007306932238861918
1783696363687854300,5.279854248046875,0.0014385321410372853,-0.0003035155823454261,0.0003338439855724573
1783696363697818400,5.289818359375,0.0008608924690634012,0.0013822652399539948,-0.001699745887890458
1783696363707781400,5.299781494140625,0.0014324721414595842,0.0040451171807944775,-0.0017996258102357388
1783696363717744000,5.309744140625,0.0014409944415092468,0.0022091339342296124,-0.002487786579877138
1783696363732066000,5.324066162109375,0.00005554547533392906,0.00002330821007490158,-0.0021043317392468452
1783696363742030000,5.334030029296875,0.001407983130775392,0.0024286170955747366,-0.000013308657798916101
1783696363751993000,5.3439931640625,0.0014279568567872047,-0.0019144660327583551,-0.0008956139208748937
1783696363761956000,5.3539560546875,0.0016551632434129715,0.0020164328161627054,-0.00032822659704834223
1783696363771919400,5.36391943359375,0.0024687591940164566,0.000735984998755157,-0.0005503342254087329
1783696363781882400,5.37388232421875,0.0018620719201862812,-0.00006922043394297361,-0.0012107702204957604
1783696363791846400,5.383846435546875,0.0006250336300581694,0.0018328091828152537,-0.000534327351488173
1783696363801809400,5.393809326171875,0.0013793157413601875,0.0004305382026359439,0.0011660358868539333
1783696363811772400,5.4037724609375,-0.0005847655702382326,-0.001525819767266512,-0.0013149649603292346
1783696363821735200,5.413735107421875,0.0012032943777740002,0.00033346889540553093,0.00046008307253941894
1783696363831699200,5.42369921875,-0.00032749061938375235,0.00015983078628778458,0.001730677206069231
1783696363841662200,5.433662109375,-0.000033883959986269474,-0.0011959944386035204,0.00020234426483511925
1783696363851625200,5.443625244140625,-0.0008288375101983547,0.0003965758951380849,-0.0013888945104554296
1783696363861588200,5.453588134765625,-0.00044077273923903704,-0.0018872024957090616,0.0015853358199819922
1783696363871551200,5.46355126953125,0.0010988006833940744,-0.003252339083701372,0.0007179442909546196
1783696363881515300,5.473515380859375,-0.0002665248466655612,0.004837777931243181,-0.0015991927357390523
1783696363891478300,5.483478271484375,-0.00034455544664524496,-0.0015759130474179983,0.000972355657722801
1783696363901441300,5.493441162109375,-0.00024642350035719573,0.00020224612671881914,-0.00008950498886406422
1783696363911404000,5.503404052734375,-0.00009488964860793203,0.0032611528877168894,-0.0013273422373458743
1783696363921367300,5.5133671875,0.0016395853599533439,0.0005022292025387287,-0.0027475571259856224
1783696363931331000,5.5233310546875,-0.0008667155634611845,-0.0012940730666741729,-0.0007437949534505606
1783696363941294000,5.533294189453125,-0.00021646966342814267,0.00037396932020783424,-0.00004503398668020964
1783696363951257300,5.54325732421875,-0.0004843836650252342,-0.001976802945137024,0.00005483452696353197
1783696363961220400,5.553220458984375,-0.001395711093209684,0.00009893777314573526,0.0006625667447224259
1783696363971184000,5.56318408203125,-0.00010940425272565335,0.000043810345232486725,-0.0023944759741425514
1783696363981147400,5.5731474609375,-0.0006224180106073618,-0.0014660080196335912,0.0002486134762875736
1783696363991110400,5.5831103515625,-0.0004093651659786701,0.0018893085652962327,-0.003186598187312484
1783696364001073200,5.5930732421875,-0.00018907652702182531,0.0021593705751001835,-0.0009768735617399216
1783696364011036200,5.6030361328125,-0.0005688433302566409,-0.0013967483537271619,0.0002263426431454718
1783696364021000200,5.613000244140625,-0.0010580677771940827,0.0010408898815512657,0.0009185021044686437
1783696364030963200,5.622963134765625,-0.0014575420645996928,0.0005013335030525923,0.0017030693124979734
1783696364040926200,5.63292626953125,0.0012879353016614914,-0.0039055701345205307,0.0002788013662211597
1783696364050889200,5.64288916015625,-0.0007251481292769313,0.0006220700452104211,0.00037946889642626047
1783696364060853200,5.652853271484375,-0.0011155769461765885,-0.00024097284767776728,0.0016195073258131742
1783696364070816300,5.662816162109375,-0.002268725773319602,-0.0015440576244145632,0.00017926987493410707
1783696364081402400,5.67340234375,-0.0006466001505032182,0.000419753254391253,0.00023471633903682232
1783696364091365400,5.683365478515625,-0.00043621042277663946,0.0015334871131926775,0.0004317903076298535
1783696364101328100,5.693328125,0.0006015296094119549,-0.00005482533015310764,-0.00011407188139855862
1783696364111291100,5.703291015625,0.0008292298298329115,0.00363977812230587,-0.0010533689055591822
1783696364121254100,5.713254150390625,0.0022983744274824858,0.001780984690412879,-0.002138456329703331
1783696364131218200,5.72321826171875,0.0013095426838845015,0.0010262448340654373,-0.0007818421581760049
1783696364141181200,5.73318115234375,0.0011529187904670835,0.004393538925796747,-0.0017171928193420172
1783696364151144200,5.743144287109375,0.0009055112022906542,-0.00011119793634861708,-0.00021516985725611448
1783696364161107200,5.753107177734375,0.00031293180654756725,0.0013706296449527144,-0.0007944232784211636
1783696364171071200,5.7630712890625,0.0016815302660688758,0.0031845085322856903,-0.00038829119876027107
1783696364181034200,5.7730341796875,-0.0025441155303269625,-0.001664387877099216,0.0016109845601022243
1783696364190997200,5.782997314453125,0.0011227910872548819,-0.001551203546114266,0.0005917927483096719
1783696364200960300,5.792960205078125,-0.0005815498298034072,0.0010955422185361385,-0.00041126925498247147
1783696364210923300,5.80292333984375,-0.0018255123868584633,-0.0023516532965004444,0.0009133871062658727
1783696364220887300,5.81288720703125,-0.000027368194423615932,0.000479905866086483,-0.0016690072370693088
1783696364230850300,5.822850341796875,0.000014709745300933719,0.0008388999849557877,0.0011520793195813894
1783696364240813300,5.832813232421875,-0.001549169304780662,-0.0006919462466612458,-0.001623478950932622
1783696364250776300,5.8427763671875,-0.0004700564022641629,0.0016873219283297658,-0.0024152365513145924
1783696364260740400,5.852740234375,0.0007254198426380754,0.0000566279049962759,0.00039860617835074663
1783696364270703400,5.862703369140625,0.0007933303713798523,-0.0007945182733237743,-0.0003446821356192231
1783696364280666000,5.872666015625,0.0008264589123427868,-0.00021336995996534824,-0.001543249236419797
1783696364290629000,5.882629150390625,0.0004879711486864835,-0.00021310360170900822,0.0009689106373116374
1783696364300592000,5.892592041015625,-0.0004838934983126819,-0.0005370472790673375,0.00037996144965291023
1783696364310556200,5.90255615234375,0.00016724938177503645,0.0014786992687731981,-0.00032843940425664186
1783696364320519200,5.912519287109375,0.00001479143975302577,-0.0012945412890985608,0.00021363224368542433
1783696364330482200,5.922482177734375,-0.00031490789842791855,-0.0051918113604187965,0.0016115254256874323
1783696364340445200,5.932445068359375,-0.0015950255328789353,0.0007933335145935416,-0.0005225591594353318
1783696364350408200,5.942408203125,0.00032484729308634996,0.0012284941039979458,-0.0004053800366818905
1783696364360372200,5.952372314453125,0.000513443083036691,-0.004724927246570587,0.000229730736464262
1783696364370335200,5.962335205078125,-0.0006575488368980587,-0.0017440507654100657,-0.0013745573814958334
1783696364380298200,5.97229833984375,-0.0009077344438992441,0.0005151558434590697,0.00046744575956836343
1783696364390261200,5.98226123046875,0.0007010811823420227,-0.0016617120709270239,-0.00015253806486725807
1783696364400225300,5.992225341796875,-0.000535069964826107,-0.0009456845000386238,-0.0017665477935224771
1783696364410188300,6.002188232421875,0.0013493828009814024,-0.00027376902289688587,0.0003426758339628577
1783696364420151300,6.0121513671875,0.00034978060284629464,0.00004698603879660368,-0.000561169465072453
1783696364430114300,6.0221142578125,-0.0005016319919377565,-0.0004052188014611602,-0.00006475625559687614
1783696364440078300,6.032078369140625,0.000535398256033659,-0.0016434731660410762,0.0001301522715948522
1783696364450041300,6.042041259765625,-0.0006033694371581078,-0.0009353385539725423,-0.0010243281722068787
1783696364460004400,6.05200439453125,0.000051486509619280696,0.0015051999362185597,-0.0005781998625025153
1783696364469967000,6.061967041015625,0.00012072871322743595,-0.0021731581073254347,-0.00016913830768316984
1783696364479930000,6.07193017578125,0.0005350458086468279,-0.0032018544152379036,-0.0001432711724191904
1783696364489894100,6.08189404296875,-0.00017681716417428106,0.0009105987846851349,-0.000654065515846014
1783696364499857200,6.091857177734375,0.0010657673701643944,-0.0007971674203872681,0.0014835362089797854
1783696364509820200,6.101820068359375,-0.00009031094668898731,-0.0018131632823497057,0.00010108930291607976
1783696364519783200,6.111783203125,-0.0006850212812423706,-0.000870312680490315,0.0003775811637751758
1783696364529746200,6.12174609375,0.0002699882898014039,-0.0008633885299786925,0.0005144676542840898
1783696364539710200,6.131710205078125,-0.0007943522650748491,0.0008965602610260248,0.0015629876870661974
1783696364549673200,6.141673095703125,-0.0017349807312712073,-0.0016326437471434474,0.002531313104555011
1783696364559636200,6.15163623046875,-0.0008451328612864017,-0.0017739749746397138,0.0015721000963822007
1783696364569599200,6.16159912109375,-0.0011428742436692119,0.0013533751480281353,0.0009473225218243897
1783696364579563300,6.171563232421875,-0.0016207953449338675,-0.0014790273271501064,0.00031965377274900675
1783696364589526300,6.1815263671875,0.0001933499879669398,-0.0030537545680999756,0.0009598777396604419
1783696364599489300,6.1914892578125,-0.000047664419980719686,-0.0005095910746604204,-0.0012569823302328587
1783696364609452000,6.2014521484375,-0.001032501459121704,0.0016939084744080901,0.0013995207846164703
1783696364619415000,6.2114150390625,-0.0005070041515864432,-0.004356797784566879,-0.00002137699630111456
1783696364629379000,6.221379150390625,0.0007675847737118602,0.0009905633050948381,0.0001650442718528211
1783696364639342000,6.231342041015625,-0.0006529123056679964,0.00019777275156229734,-0.00002357864286750555
1783696364649305000,6.24130517578125,-0.0002808687277138233,-0.0009668275015428662,0.00022303004516288638
1783696364659268000,6.25126806640625,-0.00021243703668005764,0.0010210471227765083,0.0000720206880941987
1783696364669232000,6.261232177734375,-0.0018042083829641342,0.0001019901828840375,0.001566586783155799
1783696364679195100,6.271195068359375,-0.00020151794888079166,-0.00137850153259933,-0.0002827791031450033
1783696364689158100,6.281158203125,0.0004546849522739649,0.0006071514217182994,0.0002501194830983877
1783696364699121000,6.291120849609375,-0.0019973311573266983,-0.0008492064662277699,0.0022686831653118134
1783696364709084200,6.301084228515625,-0.0013935924507677555,-0.0007634526118636131,-0.000004324945621192455
1783696364719048000,6.3110478515625,-0.0011096408125013113,0.00009311141911894083,0.00028815638506785035
1783696364729011000,6.321010986328125,0.0011119680711999536,-0.001352452440187335,0.00025646481662988663
1783696364738974200,6.33097412109375,0.0006908082286827266,-0.0029165465384721756,0.0000420472351834178
1783696364748937200,6.340937255859375,-0.0007318524294532835,0.0009655433823354542,0.0007344690966419876
1783696364758901000,6.35090087890625,-0.0017214625841006637,0.00010146503336727619,-0.0004993160255253315
1783696364768864300,6.3608642578125,-0.0014780496712774038,-0.00048043555580079556,-0.000060959719121456146
1783696364778827300,6.3708271484375,-0.001569485990330577,0.00020701915491372347,-0.0009527099318802357
1783696364788790000,6.3807900390625,-0.00030528343631885946,-0.0018326959107071161,0.001782889012247324
1783696364798753000,6.3907529296875,0.0005904698045924306,0.0007739161374047399,-0.0005955197848379612
1783696364808717000,6.400717041015625,-0.0004891757271252573,0.0019489028491079807,-0.0005891281180083752
1783696364818680000,6.41068017578125,0.00016914523439481854,-0.001201571780256927,-0.0018813624046742916
1783696364828643000,6.42064306640625,0.0009276135242544115,0.0021268469281494617,-0.0009921328164637089
1783696364838606000,6.430606201171875,0.00024725840194150805,-0.0006325488211587071,-0.00024051417130976915
1783696364848570000,6.440570068359375,-0.00015541152970399708,-0.0011521315900608897,0.0010207588784396648
1783696364858533000,6.450533203125,0.00048291392158716917,0.0009112099069170654,0.0009178205509670079
1783696364868496100,6.46049609375,-0.0015179190086200833,-0.00011890078894793987,0.0002469702740199864
1783696364878459100,6.470459228515625,0.0007063819793984294,-0.0033814972266554832,0.0002538869739510119
1783696364888422000,6.480421875,0.0001085023395717144,0.0005551872309297323,-0.0003186926478520036
1783696364898386000,6.490385986328125,-0.000994567759335041,0.002300475724041462,0.001593310385942459
1783696364908349000,6.500348876953125,-0.0010156066855415702,-0.0008202163735404611,0.0005826408741995692
1783696364918312200,6.510312255859375,0.001153762685135007,0.0015033826930448413,0.0008572437800467014
1783696364928275200,6.520275146484375,0.00006559505709446967,0.00008791254367679358,0.00012593972496688366
1783696364938238200,6.53023828125,-0.00038967159343883395,-0.0002359121572226286,0.0005986348260194063
1783696364948202200,6.5402021484375,0.00017891332390718162,0.001265578088350594,-0.0005619707517325878
1783696364958165200,6.550165283203125,0.0005283950595185161,0.0010332822566851974,0.0005510856281034648
1783696364968128300,6.560128173828125,-0.0007640370167791843,-0.00094012008048594,-0.0008489381289109588
1783696364978091000,6.570091064453125,0.0009019802091643214,0.002020676387473941,-0.0020265281200408936
1783696364988055000,6.580054931640625,-0.0002953769580926746,-0.000855271122418344,0.00014368206029757857
1783696364998018000,6.59001806640625,-0.000697238661814481,-0.001163060194812715,0.00007969344733282924
1783696365007981000,6.59998095703125,0.0003991847625002265,0.00262395478785038,-0.00040287128649652004
1783696365017944000,6.609944091796875,-0.001769103342667222,-0.0003671095473691821,0.0007921995129436255
1783696365027907000,6.619906982421875,-0.0007200841791927814,0.0002499447437003255,0.00008113554213196039
1783696365037871000,6.62987109375,0.00035543733974918723,0.0026742597110569477,-0.0009932698449119925
1783696365047834000,6.639834228515625,-0.0011271443217992783,-0.0020456607453525066,-0.0008798191556707025
1783696365057797000,6.649797119140625,-0.001230192487128079,-0.00021570920944213867,0.0014926723670214415
1783696365067759900,6.659759765625,-0.0003460230363998562,0.0029936661012470722,-0.00037127407267689705
1783696365077724200,6.66972412109375,-0.00043061806354671717,-0.0010994309559464455,0.0008919062092900276
1783696365087687000,6.67968701171875,-0.0010215735528618097,-0.0011502974666655064,0.00009029475040733814
1783696365097650200,6.689650146484375,0.0006825418095104396,-0.0004202568670734763,0.00011975306551903486
1783696365107613200,6.69961328125,-0.00042586581548675895,-0.00333348847925663,0.0004406640073284507
1783696365117576200,6.709576171875,-0.0007629440515302122,-0.0013216708321124315,-0.0011941884877160192
1783696365127540200,6.719540283203125,-0.0012662814697250724,0.0007675791275687516,-0.00044237810652703047
1783696365137503200,6.729503173828125,0.0010258499532938004,-0.0020105952862650156,0.002183876931667328
1783696365147466200,6.73946630859375,-0.0007470163982361555,-0.00025157746858894825,-0.0010217699455097318
1783696365157429200,6.74942919921875,-0.0003743572160601616,-0.00035961694084107876,0.0006310341414064169
1783696365167393300,6.759393310546875,-0.00032109400490298867,-0.002454459434375167,0.0016134742181748152
1783696365177356000,6.76935595703125,0.000504118565004319,-0.0010205433936789632,-0.0011535434750840068
1783696365187319000,6.779319091796875,-0.0005582164158113301,0.0008471315377391875,0.00015912874368950725
1783696365197282000,6.789281982421875,-0.000029202972655184567,-0.002854835707694292,0.00215092021971941
1783696365207245000,6.7992451171875,0.000026190769858658314,0.0000149864936247468,-0.0004406019579619169
1783696365217209000,6.809208984375,0.0006343766581267118,0.001102452166378498,0.00039374094922095537
1783696365227172000,6.819172119140625,0.00038164269062690437,-0.000057088094763457775,0.0002523270668461919
1783696365237135000,6.829135009765625,-0.00019812112441286445,0.0005798550555482507,-0.0016430472023785114
1783696365247098000,6.83909814453125,-0.0007509933784604073,-0.00021216901950538158,0.0003135771839879453
1783696365257062100,6.849062255859375,0.0012830574996769428,-0.0025944046210497618,0.0016091379802674055
1783696365267025000,6.85902490234375,-0.0005209678784012794,0.00008180586155503988,-0.000105671351775527
1783696365276988000,6.86898779296875,-0.0007100715301930904,0.00032929028384387493,0.0009521226747892797
1783696365286951200,6.878951171875,-0.0004634627839550376,-0.00028217153158038855,-0.0009232752490788698
1783696365296915000,6.8889150390625,0.0011963319266214967,0.001177766127511859,-0.0002944034058600664
1783696365306878200,6.898878173828125,0.00005889585008844733,-0.0007037571631371975,-0.00008161680307239294
1783696365316841200,6.90884130859375,0.0009044894250109792,0.0007271451177075505,-0.0004962518578395247
1783696365326804200,6.91880419921875,0.0012083561159670353,0.0032739259768277407,-0.0005045076832175255
1783696365336767200,6.928767333984375,-0.0023853147868067026,-0.0011577409459277987,0.0004196137888357043
1783696365346731300,6.938731201171875,-0.000640944461338222,-0.00043016544077545404,-0.0009029119974002242
1783696365356694300,6.9486943359375,-0.0006779860705137253,0.002537166466936469,-0.0006603158544749022
1783696365366657000,6.958656982421875,0.0005630470113828778,-0.0007627563318237662,-0.0006411410868167877
1783696365376620000,6.9686201171875,-0.001404561335220933,-0.0005417901556938887,-0.0002780044451355934
1783696365386584000,6.978583984375,-0.0007672668434679508,0.003408210352063179,-0.0009118368616327643
1783696365396547000,6.988547119140625,0.00011765628005377948,-0.002350323600694537,0.0009696563938632607
1783696365406510000,6.998510009765625,0.00032165442826226354,0.00045505037996917963,-0.0008050741162151098
1783696365416473000,7.00847314453125,0.0001585814170539379,-0.0006012363592162728,0.0006882804445922375
1783696365426436000,7.01843603515625,-0.0003801760612986982,-0.001863042009063065,0.00010531448060646653
1783696365436400000,7.028400146484375,-0.0011890721507370472,-0.00016764795873314142,-0.000853033154271543
1783696365446363100,7.038363037109375,0.0007728785276412964,0.0011548778275027871,0.0012423419393599033
1783696365456326000,7.048325927734375,-0.000004574045306071639,-0.002546729054301977,-0.0012206444516777992
1783696365466289200,7.0582890625,0.0006497646099887788,0.00006609840784221888,0.0013173480983823538
1783696365476253000,7.0682529296875,-0.0016490970738232136,0.0015238000778481364,-0.0012313929619267583
1783696365486216200,7.07821630859375,0.00007769657531753182,-0.00018674833700060844,-0.0007419040193781257
1783696365496179200,7.08817919921875,-0.00005051908374298364,0.0014119264669716358,-0.00004298973362892866
1783696365506142200,7.09814208984375,0.0014307311503216624,-0.00019369344227015972,0.0007402459159493446
1783696365516105200,7.108105224609375,-0.0000770904152886942,-0.0024205974768847227,-0.0008098193211480975
1783696365526069200,7.1180693359375,0.000684573664329946,0.001938198460265994,-0.0014582989970222116
1783696365536032300,7.1280322265625,-0.00038597488310188055,-0.00027147517539560795,-0.0009432851802557707
1783696365545995000,7.1379951171875,-0.0005918372189626098,-0.0015521892346441746,0.0006335725774988532
1783696365555958000,7.1479580078125,-0.001716393860988319,0.001873101107776165,-0.0013416376896202564
1783696365565922300,7.15792236328125,0.0003797801909968257,0.0007444535149261355,-0.000016182544641196728
1783696365575885300,7.16788525390625,0.0004729953361675143,-0.0011203878093510866,-0.0016913922736421227
1783696365585848300,7.177848388671875,-0.0003523182822391391,0.002775816712528467,-0.001491921371780336
1783696365595811300,7.187811279296875,0.0006119958125054836,-0.0006024504546076059,0.0014942468842491508
1783696365605774300,7.1977744140625,-0.0013819128507748246,-0.000456775538623333,-0.00021710037253797054
1783696365615738400,7.20773828125,-0.0002440195530653,0.002731706015765667,-0.0003380099078640342
1783696365625701400,7.217701416015625,0.00014586723409593105,-0.002132557798177004,-0.0013425543438643217
1783696365635664400,7.227664306640625,-0.0005661884206347167,-0.0006229347782209516,-0.0014224719488993287
1783696365645627100,7.237627197265625,-0.0004809672827832401,0.0016271700151264668,-0.00014308933168649673
1783696365655591200,7.247591064453125,-0.000132214481709525,-0.002056118566542864,-0.0009487767238169909
1783696365665554200,7.25755419921875,-0.00019453244749456644,0.00039532140363007784,0.001374032348394394
1783696365675517400,7.267517333984375,-0.0006381720304489136,0.001980389002710581,0.0011703319614753127
1783696365685480400,7.27748046875,-0.0007159363594837487,-0.0011887727305293083,0.000778581015765667
1783696365695444200,7.2874443359375,-0.0000904714543139562,0.0015498409047722816,-0.00041097006760537624
1783696365705407500,7.297407470703125,-0.000012174525181762874,0.001074466621503234,0.0005517626996152103
1783696365715370500,7.30737060546875,0.000015416357200592756,-0.0037230304442346096,0.00022121163783594966
1783696365725333500,7.31733349609375,0.00037014938425272703,-0.0004132537869736552,0.0007844702340662479
1783696365735296300,7.327296142578125,-0.00022287681349553168,0.0008284892537631094,0.0021736116614192724
1783696365745260300,7.33726025390625,-0.0005099655827507377,-0.001930279191583395,-0.00020645535551011562
1783696365755223300,7.347223388671875,-0.000044815882574766874,0.0012220959179103374,-0.0007512185256928205
1783696365765186300,7.357186279296875,-0.0007377704023383558,-0.0003654144238680601,0.0015401651617139578
1783696365775149300,7.3671494140625,-0.0004992426838725805,-0.0008026908617466688,-0.001691156649030745
1783696365785113300,7.37711328125,0.00017933076014742255,0.0010948115959763527,-0.0006075165001675487
1783696365795076400,7.387076416015625,0.0026299485471099615,0.0001954378094524145,0.0007374798879027367
1783696365805039400,7.397039306640625,0.0003026121703442186,-0.002430705353617668,-0.0016076996689662337
1783696365815002400,7.40700244140625,0.000010542353265918791,0.0029152436181902885,-0.0016695468220859766
1783696365824965000,7.416965087890625,0.000006547619705088437,-0.0009721727110445499,0.00011423852993175387
1783696365834929400,7.426929443359375,-0.0010218523675575852,-0.0015751301543787122,-0.00138347246684134
1783696365844892200,7.43689208984375,0.001260743010789156,0.002694183262065053,0.0004357328871265054
1783696365854855400,7.44685546875,-0.0010607558069750667,0.0006217658519744873,0.001490280730649829
1783696365864818400,7.456818359375,0.0012154480209574103,-0.0004038176266476512,0.0000873274402692914
1783696365874782200,7.4667822265625,-0.0013977133203297853,0.0007647750899195671,0.0005464321584440768
1783696365884745500,7.476745361328125,-0.0002610761730466038,-0.00044589792378246784,0.0012250056024640799
1783696365894708500,7.48670849609375,0.0001649454061407596,-0.0011617483105510473,-0.0009569447720423341
1783696365904671500,7.49667138671875,0.0002533623483031988,0.0013783747563138604,0.0003008661442436278
1783696365914634500,7.506634521484375,0.0014555188827216625,0.0004513795720413327,0.000824883405584842
1783696365924598500,7.5165986328125,0.0017625812906771898,0.0007962589152157307,-0.0011003157123923302
1783696365934561300,7.526561279296875,-0.0002763837401289493,0.003007610095664859,-0.000563740381039679
1783696365944524300,7.536524169921875,0.0007273616502061486,-0.00053545949049294,0.0002032499760389328
1783696365954487300,7.5464873046875,-0.0015771405305713415,-0.0007595327915623784,-0.0008003877010196447
1783696365964451300,7.556451416015625,0.00041756717837415636,0.0023161519784480333,-0.0006203580414876342
1783696365974414300,7.566414306640625,0.0008808247512206435,0.00053755147382617,0.00029859610367566347
1783696365984377300,7.57637744140625,0.00128136423882097,0.0019586142152547836,0.0004932731972075999
1783696365994340400,7.58634033203125,-0.0001428605755791068,0.0018948273500427604,0.00010544213000684977
1783696366004304400,7.596304443359375,0.0004773896362166852,-0.0005036154761910439,0.00120080029591918
1783696366014267400,7.606267333984375,-0.00017524775466881692,0.000916734104976058,-0.0009954917477443814
1783696366024230100,7.616230224609375,-0.00031612897873856127,0.00206588814035058,0.000007454771548509598
1783696366034193200,7.626193115234375,0.0008441468235105276,-0.0002899711253121495,0.001008221646770835
1783696366044156400,7.636156494140625,0.00008168385829776525,0.0009918082505464554,-0.000553456018678844
1783696366054120200,7.6461201171875,0.00041172653436660767,0.0016656789230182767,0.0011742881033569574
1783696366064083500,7.65608349609375,0.0004293033853173256,-0.0011540759587660432,-0.0001639502588659525
1783696366074046500,7.66604638671875,0.00003248808206990361,0.0009130850085057318,-0.0010450887493789196
1783696366084009500,7.676009521484375,0.0007025393424555659,0.00035888119600713253,-0.0008783750236034393
1783696366093973500,7.685973388671875,0.0010942879598587751,-0.0016212586779147387,-0.000023691332899034023
1783696366103936500,7.6959365234375,0.0006636547623202205,0.0017769348341971636,-0.001107065356336534
1783696366113899500,7.7058994140625,-0.0011578951962292194,-0.0010280207497999072,-0.0014112468343228102
1783696366123862300,7.7158623046875,-0.0013637575320899487,-0.0017579930135980248,-0.0006354679353535175
1783696366133825300,7.7258251953125,-0.00027118183788843453,0.0027573592960834503,0.00017568323528394103
1783696366143789300,7.735789306640625,-0.00010340268636355177,0.00043348490726202726,0.001982105430215597
1783696366153752300,7.74575244140625,-0.0008290516561828554,-0.000684303930029273,0.00007214839570224285
1783696366163715300,7.75571533203125,-0.0004969554720446467,0.0020100162364542484,0.0006324774585664272
1783696366173678300,7.76567822265625,0.000021049476345069706,-0.0006019164575263858,0.0011611308436840773
1783696366183642400,7.775642333984375,0.0008543525473214686,-0.001899674884043634,-0.0004988175351172686
1783696366193605400,7.78560546875,-0.0008963866857811809,0.0024827609304338694,0.0008407417917624116
1783696366203568400,7.795568359375,0.0008969859918579459,-0.0015071870293468237,0.0016383584588766098
1783696366213531100,7.80553125,0.0008061772678047419,-0.000627020956017077,0.0001264472957700491
1783696366223494400,7.815494384765625,0.0017755678854882717,0.002095262287184596,0.0010923758381977677
1783696366233458200,7.825458251953125,0.0005686066579073668,-0.0012832514476031065,0.0015946143539622426
1783696366243421400,7.83542138671875,-0.00047348826774396,0.00003501330502331257,-0.0009247360285371542
1783696366253384400,7.845384521484375,-0.0011137183755636215,0.0007037903415039182,0.0019489708356559277
1783696366263347500,7.855347412109375,-0.0006516599096357822,0.00006649596616625786,0.0006743820267729461
1783696366273311500,7.8653115234375,-0.0011444821720942855,-0.00017649726942181587,-0.0007261291611939669
1783696366283274500,7.8752744140625,-0.0003647085977718234,-0.0003453416284173727,0.000032605486921966076
1783696366293237500,7.885237548828125,0.0007511138683184981,-0.0008512522326782346,-0.0015065140323713422
1783696366303200300,7.8952001953125,-0.0005964456358924508,-0.0004073031013831496,-0.0006393889198079705
1783696366313163300,7.905163330078125,0.001393892103806138,0.00028740824200212955,-0.0004420855548232794
1783696366323127300,7.915127197265625,-0.001772073796018958,-0.0018335332861170173,-0.00006285146810114384
1783696366333090300,7.92509033203125,-0.00009037448762683198,0.0009121540351770818,0.0008839154615998268
1783696366343053300,7.93505322265625,-0.00237616547383368,0.0008138833800330758,0.0010032251011580229
1783696366353016300,7.945016357421875,-0.001761406078003347,-0.003588607534766197,0.000002434360794723034
1783696366362980400,7.95498046875,-0.00039174227276816964,0.0010548799764364958,0.0014160402351990342
1783696366372943400,7.964943359375,0.0008854776388034225,0.00016344909090548754,0.0017453993204981089
1783696366382906400,7.97490625,0.00021862215362489223,-0.002613961463794112,-0.00016355456318706274
1783696366392869400,7.984869384765625,-0.00010972857853630558,0.0018111232202500105,-0.00043749797623604536
1783696366402832400,7.994832275390625,0.0003278288058936596,-0.00016707275062799454,-0.0018399186665192246
1783696366412796200,8.004796142578124,-0.0010448988759890199,-0.0012403069995343685,0.0003287378931418061
1783696366422759200,8.01475927734375,0.00046351549099199474,0.0008153870003297925,0.0003316673683002591
1783696366432722400,8.024722412109375,-0.0008821387309581041,0.0004011720884591341,0.0005094804801046848
1783696366442685400,8.034685546875,-0.0001577589282533154,-0.00044331629760563374,0.00037445820635184646
1783696366452649500,8.0446494140625,0.000014204022591002285,0.0024605775251984596,-0.000019601662643253803
1783696366462612500,8.054612548828125,-0.0009248265414498746,-0.0020380341447889805,0.00041289569344371557
1783696366472575500,8.064575439453124,0.0004247994511388242,-0.0006615922320634127,-0.00039164326153695583
1783696366482538500,8.07453857421875,0.00034889933886006474,0.0028316760435700417,0.00012367847375571728
1783696366492501200,8.084501220703125,-0.0010819000890478492,-0.0014137241523712873,0.00029512483160942793
1783696366502465300,8.09446533203125,0.00038923005922697484,-0.0008030612953007221,0.0000346676679328084
1783696366512428300,8.10442822265625,0.00020757527090609074,-0.0004906769609078765,-0.001195320044644177
1783696366522391300,8.114391357421875,-0.0010867209639400244,-0.0021263905800879,0.00032960588578134775
1783696366532354300,8.124354248046876,-0.001346380217000842,-0.000560842570848763,-0.0011912239715456963
1783696366542318300,8.134318359375,-0.0013186833821237087,0.0005837840726599097,-0.0005973390070721507
1783696366552281300,8.14428125,-0.0012952190591022372,-0.001470291754230857,-0.00006542971823364496
1783696366562244000,8.154244140625,-0.0003122462658211589,0.00024025654420256615,-0.002211138606071472
1783696366572207000,8.16420703125,-0.00003595468297135085,0.001829853979870677,0.0009483752073720098
1783696366582171100,8.174171142578125,0.0008796401089057326,-0.0019619546364992857,0.0004676746902987361
1783696366592134100,8.184134033203126,-0.0008252540719695389,0.00127182318829,-0.0014643404865637422
1783696366602097200,8.19409716796875,0.00033774838084354997,0.0008947196183726192,0.0011143983574584126
1783696366612060200,8.20406005859375,0.0004947372945025563,-0.0029142957646399736,-0.0005052424967288971
1783696366622023200,8.214023193359376,0.0008779661729931831,0.000892692944034934,-0.0005787457339465618
1783696366631987200,8.2239873046875,-0.00007049160922178999,-0.00030007376335561275,-0.0006469616200774908
1783696366641950200,8.2339501953125,0.00013776757987216115,-0.0018998347222805023,-0.0004472245927900076
1783696366651913200,8.243913330078126,-0.0003966039512306452,0.00025875598657876253,0.00038745818892493844
1783696366661876200,8.253876220703125,-0.0007350917439907789,0.0005495732184499502,-0.00037234160117805004
1783696366671840300,8.26384033203125,-0.00041270366637036204,-0.0027365866117179394,0.0005245617358013988
1783696366681803300,8.27380322265625,0.0005202016909606755,0.0019210157915949821,0.00043587852269411087
1783696366691766300,8.283766357421875,-0.00045509179471991956,-0.0006215994944795966,0.00042421737452968955
1783696366701729000,8.29372900390625,-0.000009012321243062615,-0.0001869716215878725,-0.0015904640313237906
1783696366711693000,8.303693115234376,-0.0001029144405038096,0.00224485551007092,-0.0011766606476157904
1783696366721656000,8.313656005859375,-0.0005487275775521994,0.0004056765465065837,-0.0002775774337351322
1783696366731619000,8.323619140625,-0.00007814005221007392,0.000549307675100863,0.000058342586271464825
1783696366741582000,8.33358203125,0.0016598388319835067,0.002713392488658428,-0.0007914720335975289
1783696366751545000,8.343545166015625,0.0012352142948657274,-0.0016904432559385896,0.001548964180983603
1783696366761509000,8.353509033203125,-0.00044630561023950577,-0.0010563445976004004,-0.0012377676321193576
1783696366771472100,8.36347216796875,-0.0005193480756133795,0.0016338510904461145,-0.000021861749701201916
1783696366781435100,8.37343505859375,-0.0001497013436164707,-0.0018200024496763945,0.002110531320795417
1783696366791398100,8.383398193359374,-0.00004942851956002414,0.001280573196709156,0.00039568316424265504
1783696366801362000,8.39336181640625,0.00008266427903436124,0.0014869681326672435,0.0012092789402231574
1783696366811325200,8.4033251953125,-0.0008060312829911709,-0.0015594931319355965,-0.0006348552415147424
1783696366821288200,8.4132880859375,-0.0002462348493281752,0.00028900697361677885,-0.0012995803263038397
1783696366831251200,8.423251220703126,-0.00007619877578690648,0.0019074133597314358,-0.00033752445597201586
1783696366841215200,8.43321533203125,0.00007666667806915939,-0.0005877023795619607,0.000007354887202382088
1783696366851178200,8.44317822265625,0.001775449374690652,-0.0010410576360300183,0.00010629324242472649
1783696366861141200,8.453141357421876,0.0013125920668244362,0.001084411283954978,-0.0006316686049103737
1783696366871104300,8.463104248046875,0.00000623136293143034,-0.00047183665446937084,-0.001533428905531764
1783696366881067000,8.47306689453125,-0.0006241388618946075,0.0004240507259964943,-0.0015028025954961777
1783696366891031000,8.483031005859376,0.0006471137166954577,0.0020599383860826492,-0.00003603461664170027
1783696366900994000,8.492994140625,-0.0005411887541413307,-0.001411758246831596,0.0002220256719738245
1783696366910957000,8.50295703125,-0.0002119775308528915,0.002044829772785306,-0.001400100882165134
1783696366920920000,8.512920166015626,-0.00039759985520504415,0.00003653997555375099,0.0021392402704805136
1783696366930884000,8.522884033203125,0.000702511053532362,-0.002737807109951973,0.000722672208212316
1783696366940847000,8.53284716796875,0.000483865529531613,0.001986640738323331,-0.00027654587756842375
1783696366950810000,8.54281005859375,0.0002350410504732281,-0.0004171743057668209,0.0007359707378782332
1783696366960773000,8.552773193359375,0.00029762531630694866,-0.0010536699555814266,0.00025234068743884563
1783696366970737200,8.562737060546874,0.0005287799285724759,0.00285504967905581,-0.0007125930860638618
1783696366980700200,8.5727001953125,-0.00036897166864946485,0.0008249219972640276,0.000729774939827621
1783696366990663200,8.5826630859375,-0.000722323777154088,-0.001219464815221727,-0.0006535826250910759
1783696367000626200,8.592626220703124,-0.000224845323828049,0.002091909758746624,-0.0019321662839502096
1783696367010589200,8.602589111328125,0.00024956691777333617,0.0005386625416576862,0.0005722136702388525
1783696367020553200,8.61255322265625,-0.0004399254685267806,-0.0014270166866481304,0.0007636949885636568
1783696367030516200,8.62251611328125,-0.0004856362647842616,0.0013602892868220806,0.0006867895717732608
1783696367040479200,8.632479248046875,-0.00045394463813863695,-0.000536413979716599,0.0002801248920150101
1783696367050442200,8.642442138671875,-0.0001375447609461844,-0.00228312355466187,0.00017713336274027824
1783696367060406300,8.65240625,-0.00012609316036105156,0.0015558230224996805,-0.0007349993102252483
1783696367070369300,8.662369384765626,0.0006685240077786148,-0.002604228910058737,0.0015882968436926603
1783696367080332000,8.67233203125,0.0010120718507096171,-0.0020652050152420998,0.0008418128127232194
1783696367090295000,8.682294921875,-0.00008012461330508813,0.0028617498464882374,0.00027258042246103287
1783696367100259000,8.692259033203126,-0.0007997107459232211,-0.0010978379286825657,0.0013969669817015529
1783696367110222000,8.70222216796875,0.0009789371397346258,-0.0014119514962658286,-0.0010604962008073926
1783696367120185000,8.71218505859375,0.0006156821036711335,0.00047116971109062433,0.0002955853706225753
1783696367130148000,8.722148193359375,-0.0004129615263082087,-0.0027084127068519592,0.0009612091816961765
1783696367140111000,8.732111083984375,-0.0005740827182307839,-0.0013241017004474998,-0.0022215344943106174
1783696367150075100,8.7420751953125,-0.0013611048925668001,0.0018999085295945406,0.00008057511877268553
1783696367160038100,8.7520380859375,-0.0002686763182282448,-0.0011757762404158711,0.0010212035849690437
1783696367170001200,8.762001220703125,-0.0003801703278440982,0.0004035345045849681,-0.0007985285483300686
1783696367179964200,8.771964111328124,0.0006920183077454567,0.001346559845842421,-0.00010637310333549976
1783696367189928000,8.781927978515625,0.0007322960300371051,-0.002264788607135415,-0.0020362529903650284
1783696367199891200,8.79189111328125,-0.001332719111815095,0.0020577881950885057,0.0001994706690311432
1783696367209854200,8.801854248046874,-0.001163447741419077,0.001832311856560409,0.001213866751641035
1783696367219817200,8.811817138671875,-0.0012385487789288163,-0.0016867893282324076,0.0008167894557118416
1783696367229780200,8.8217802734375,-0.00011287243250990286,0.00045093451626598835,-0.0008654266130179167
1783696367239744300,8.831744140625,-0.0013373938854783773,-0.0004308380885049701,0.0021130526438355446
1783696367249707300,8.841707275390625,-0.002008144510909915,0.0002740772906690836,-0.0002154418034479022
1783696367259670300,8.851670166015625,0.0014342574868351221,0.001962254988029599,0.0016333246603608131
1783696367269633000,8.861633056640626,-0.0005557991098612547,0.0006132606649771333,0.0008468899177387357
1783696367279597000,8.87159716796875,0.0011427650460973382,-0.000621913350187242,-0.0005382201634347439
1783696367289560000,8.88156005859375,-0.00013386330101639032,0.0024618152529001236,-0.0003009630599990487
1783696367299523000,8.891523193359374,-0.0005788775160908699,-0.0011411752784624696,0.001051390077918768
1783696367309486000,8.901486083984375,0.00033953384263440967,0.000003536464646458626,-0.0012212885776534677
1783696367319450000,8.9114501953125,0.0006252910243347287,0.00281024188734591,0.0004983144463039935
1783696367329413000,8.9214130859375,-0.000621176790446043,0.00015269091818481684,0.0019037597812712193
1783696367339376000,8.931376220703125,0.0007002836791798472,-0.0017533334903419018,-0.0012017524568364024
1783696367349339100,8.941339111328125,0.000283392786514014,0.0016944134840741754,0.001268083113245666
1783696367359302100,8.95130224609375,-0.0010662972927093506,-0.0008057620143517852,0.0003503577900119126
1783696367369266000,8.961265869140625,0.0009836922399699688,-0.0007401261245831847,-0.00015887164045125246
1783696367379229200,8.971229248046875,-0.0009074185509234667,0.002260990208014846,-0.00021586334332823753
1783696367389192200,8.981192138671876,0.0007993546314537525,-0.0007014862494543195,0.0018888944759964943
1783696367399155200,8.9911552734375,0.0007745872717350721,-0.00033423618879169226,-0.0011036995565518737
1783696367409119200,9.001119140625,0.00039249108522199094,0.00034726352896541357,-0.0007110940059646964
1783696367419082200,9.011082275390624,0.00008276544394902885,-0.0005022849654778838,0.0009930627420544624
1783696367429045200,9.021045166015625,0.0011176606640219688,0.0010304725728929043,-0.00008571892976760864
1783696367439008300,9.03100830078125,-0.0007774447440169752,0.0008922544657252729,0.00040749850450083613
1783696367448971000,9.040970947265626,-0.002110641449689865,-0.001980624394491315,0.00014406151603907347
1783696367458935300,9.050935302734375,0.0011605194304138422,0.0020269001834094524,-0.00021706311963498592
1783696367468898000,9.06089794921875,0.0001978549116756767,0.001429290627129376,-0.0003607119433581829
1783696367478861000,9.070861083984376,-0.00041041107033379376,-0.003332441672682762,0.0004161320975981653
1783696367488824000,9.080823974609375,0.0006590206176042557,0.0010519163915887475,-0.0015329093439504504
1783696367498788000,9.0907880859375,0.00016021059127524495,0.00008039525710046291,-0.00017682777252048254
1783696367508751000,9.100751220703126,0.000711785804014653,-0.0004153571790084243,0.0005105254240334034
1783696367518714000,9.110714111328125,-0.0011518943356350064,0.0028052034322172403,-0.0005664569325745106
1783696367528677000,9.120677001953124,0.0012146998196840286,0.0010916696628555655,-0.0007735575782135129
1783696367538641200,9.13064111328125,-0.00023619031708221883,-0.0019027887610718608,-0.0008265544893220067
1783696367548604200,9.140604248046875,0.001840431708842516,0.0010937529150396585,-0.000796253327280283
1783696367558567200,9.150567138671875,-0.0004605393623933196,-0.0004745826590806246,0.0018264278769493103
1783696367568530200,9.1605302734375,-0.0006845020689070225,0.0004989660810679197,-0.00012953754048794508
1783696367578493200,9.1704931640625,-0.0009678624337539077,0.00019696366507560015,-0.001971113495528698
1783696367588457200,9.180457275390625,-0.0005296466406434774,-0.0004935518372803926,-0.0006833117222413421
1783696367598420000,9.190419921875,-0.002456710208207369,-0.000023503904230892658,-0.00041832716669887304
1783696367608383000,9.200383056640625,-0.0010407783556729555,0.003498221281915903,-0.0008070809999480844
1783696367618346000,9.210345947265624,0.0005957342218607664,-0.0017210418591275811,0.0006438092095777392
1783696367628310000,9.22031005859375,-0.0020628853235393763,-0.0013857641024515033,-0.0017090141773223877
1783696367638273000,9.23027294921875,0.00015179955516941845,0.0009223974775522947,0.0002662524930201471
1783696367648236000,9.240236083984374,-0.00029579646070487797,-0.001245530671440065,0.0013997462810948491
1783696367658199000,9.250198974609376,0.0008277911692857742,-0.0011600431753322482,0.0012255755718797445
1783696367668163000,9.2601630859375,0.0007733952952548862,0.001858345465734601,0.00014905829448252916
1783696367678126000,9.2701259765625,0.0009390439372509718,-0.0012282582465559244,0.0006060567684471607
1783696367688089000,9.280089111328126,0.0020343277137726545,-0.0002862531691789627,-0.00006330548785626888
1783696367698051800,9.2900517578125,0.00021006242604926229,0.0008905977592803538,0.0010035568848252296
1783696367708014800,9.300014892578124,0.00038092469912953675,-0.0012556493747979403,-0.0006921027088537812
1783696367717979000,9.309978759765626,0.0008842620300129056,0.0015473277308046818,-0.0010092853335663676
1783696367732301000,9.324301025390625,0.0002372457820456475,-0.001267018960788846,0.000649607740342617
1783696367742264000,9.33426416015625,0.00018504782929085195,-0.00208833790384233,-0.0011259218445047736
1783696367752227000,9.34422705078125,-0.0016630481695756316,0.0029302379116415977,-0.0011110934428870678
1783696367762191000,9.354191162109375,0.0016853442648425698,-0.0002879258245229721,0.0010508607374504209
1783696367772154000,9.364154052734374,-0.0009399344562552869,-0.0007078055059537292,-0.0010763605823740363
1783696367782117000,9.3741171875,0.00005528885230887681,0.0013705253368243575,0.00003284600097686052
1783696367792080000,9.384079833984375,-0.0010194923961535096,-0.0005121027352288365,0.0023891390301287174
1783696367802044000,9.3940439453125,0.0003983745991718024,0.0006538291927427053,-0.00038454344030469656
1783696367812007000,9.4040068359375,-0.00010980596562149003,0.002971686888486147,0.00018295599147677422
1783696367821970000,9.413969970703125,-0.0014773390721529722,-0.003939216490834951,-0.0000335590448230505
1783696367831933000,9.423932861328124,-0.0014833249151706696,-0.00015267264097929,-0.001984365750104189
1783696367841896000,9.43389599609375,-0.00017677803407423198,0.0027823972050100565,0.0009192785946652293
1783696367851860000,9.44385986328125,-0.0012652319855988026,-0.0004979482619091868,0.00004916032776236534
1783696367861823000,9.453822998046874,-0.0008295387960970402,0.0005422823596745729,-0.0008587113115936518
1783696367871786200,9.4637861328125,-0.0009482091409154236,-0.00001862074714154005,0.0009077576105482876
1783696367881749000,9.4737490234375,0.0005610042717307806,-0.0017845628317445517,0.0014329329133033752
1783696367891713000,9.483713134765624,-0.0008550642523914576,0.0010765257757157087,-0.001309273298829794
1783696367901676000,9.493676025390625,-0.000603661872446537,-0.001493158284574747,0.0012939665466547012
1783696367911639000,9.50363916015625,0.002997232601046562,-0.0012544565834105015,0.0001936955377459526
1783696367921602000,9.51360205078125,0.0007884070510044694,0.002245203359052539,0.0004501580260694027
1783696367931566000,9.523566162109375,-0.0010535207111388445,0.0018156442092731595,0.0014910318423062563
1783696367941529000,9.533529052734375,-0.001311048399657011,-0.00301426462829113,0.00009207334369421005
1783696367951492000,9.5434921875,-0.0012497726129367948,0.0023989160545170307,0.0003182290820404887
1783696367961455000,9.553455078125,0.0009971364634111524,-0.00020405766554176807,-0.0004048191476613283
1783696367971417900,9.56341796875,0.0008173134992830455,-0.0010794581612572074,-0.0009583696955814958
1783696367981382100,9.573382080078124,0.0012452835217118263,0.0022364435717463493,-0.0007434525759890676
1783696367991345000,9.583344970703125,0.00037032479303888977,-0.00044985045678913593,0.0005395469488576055
1783696368001308000,9.593307861328125,0.0019037729362025857,0.00007372687105089426,0.00036644149804487824
1783696368011271000,9.60327099609375,-0.0011845602421090007,0.002122442238032818,0.00019079376943409443
1783696368021235000,9.61323486328125,0.00047219221596606076,-0.0004110230365768075,-0.00040389003697782755
1783696368031198000,9.623197998046875,-0.003213426098227501,-0.0016974258469417691,-0.0003375755622982979
1783696368041161000,9.633160888671876,-0.0013553387252613902,0.0019777363631874323,-0.0003903062315657735
1783696368051747000,9.6437470703125,0.0002836223575286567,-0.0012272086460143328,0.0008442705147899687
1783696368061710000,9.6537099609375,0.0003131834091618657,-0.0001550199231132865,-0.001353370025753975
1783696368071674000,9.663674072265625,-0.006171485409140587,0.08626852184534073,0.06702034920454025
1783696368081636900,9.673636962890624,-0.0064580412581563,0.18152554333209991,0.19330532848834991
1783696368091600000,9.683599853515625,-0.0017947088927030563,0.05999508127570152,0.10043787956237793
1783696368101563000,9.69356298828125,0.0017539532855153084,-0.1231774091720581,-0.06629331409931183
1783696368111527000,9.70352685546875,0.006220819428563118,-0.12913402915000916,-0.15663667023181915
1783696368121490000,9.713489990234375,0.004970465321093798,-0.06243063509464264,-0.1296364814043045
1783696368131453000,9.723452880859375,0.0022752610966563225,-0.012685004621744156,-0.056797418743371964
1783696368141416200,9.733416259765624,0.0009743069531396031,0.018350942060351372,0.0228329636156559
