time,seconds_elapsed,z,y,x
1783696400338041600,0.06004150390625,0.0007382923504337668,0.006014612969011068,0.0011639641597867012
1783696400348004600,0.070004638671875,-0.0012299104128032923,0.0038166679441928864,-0.0013323200400918722
1783696400357967600,0.079967529296875,-0.0016570815350860357,-0.004834078252315521,-0.0018186133820563555
1783696400367931600,0.089931640625,-0.0016678930260241032,-0.0037221875973045826,0.0030928580090403557
1783696400377894700,0.099894775390625,-0.0013115620240569115,0.0023647332563996315,0.004384757485240698
1783696400387857400,0.109857421875,-0.001532093738205731,0.0021086023189127445,-0.003099332796409726
1783696400397820400,0.1198203125,0.00009642925579100847,-0.0008863885886967182,-0.003999747335910797
1783696400407783400,0.129783447265625,-0.0018272798042744398,-0.003538117278367281,0.002381914760917425
1783696400417747500,0.13974755859375,-0.0007574879564344883,0.003690234385430813,0.0030431775376200676
1783696400427710500,0.14971044921875,-0.00027936496189795434,0.0028682020492851734,0.0002881320542655885
1783696400437673500,0.159673583984375,0.0001440776395611465,-0.004322865046560764,-0.0014684890629723668
1783696400447636500,0.169636474609375,0.0010495965834707022,-0.0004973659524694085,-0.00018682482186704874
1783696400457599700,0.179599853515625,0.000578483275603503,0.007057223003357649,0.001008135499432683
1783696400467562500,0.1895625,0.0009956392459571362,0.00013869989197701216,-0.00033433560747653246
1783696400477526500,0.199526611328125,0.0013248058967292309,-0.002944708103314042,-0.004674755502492189
1783696400487489500,0.209489501953125,0.0004108630819246173,0.0035825762897729874,-0.0002811703598126769
1783696400497452500,0.21945263671875,0.001744840294122696,0.0038630072958767414,0.0010847649537026882
1783696400507415600,0.22941552734375,0.002382923848927021,-0.0002225564094260335,-0.0030372929759323597
1783696400517378600,0.239378662109375,-0.00011192528472747654,-0.001099535496905446,-0.002332886680960655
1783696400527341600,0.249341552734375,0.0010744592873379588,0.0005325725069269538,-0.0011106637539342046
1783696400537305600,0.2593056640625,-0.0009002746664918959,0.0034852190874516964,-0.0022672745399177074
1783696400547268600,0.2692685546875,0.00007023493526503444,-0.0009488004725426435,-0.0011592317605391145
1783696400557231400,0.2792314453125,0.0011051392648369074,-0.004355249926447868,-0.0010915874736383557
1783696400567194400,0.2891943359375,0.0010362905450165272,0.0018267828272655606,-0.000807057716883719
1783696400577157400,0.299157470703125,0.0014528089668601751,0.0018571428954601288,0.00013223919086158276
1783696400587121400,0.309121337890625,-0.0008961751591414213,-0.0028466079384088516,-0.00015482783783227205
1783696400597085200,0.319085205078125,-0.0009465088951401412,0.0006671665469184518,-0.0008781423093751073
1783696400607048200,0.329048095703125,-0.002155178226530552,0.00168232514988631,0.00261422386392951
1783696400617011200,0.33901123046875,-0.0013447784585878253,-0.002382191363722086,-0.00028942059725522995
1783696400626974500,0.348974365234375,-0.0008795119356364012,0.0005658542504534125,-0.0011109478073194623
1783696400636937200,0.358937255859375,0.0006952151888981462,-0.0013673342764377594,-0.0004984206752851605
1783696400646901200,0.3689013671875,-0.0017837942577898502,0.0003637491026893258,0.0012713366886600852
1783696400656864300,0.3788642578125,0.0010900229681283236,0.0029901585076004267,-0.00024773040786385536
1783696400666827300,0.3888271484375,-0.0016969363205134869,-0.0016663405112922192,-0.001724920468404889
1783696400676790300,0.398790283203125,0.001494329422712326,-0.0006926888599991798,-0.0027169478125870228
1783696400686753300,0.408753173828125,0.000783363648224622,0.004358002915978432,0.00044454651651903987
1783696400696717300,0.41871728515625,-0.0010683322325348854,-0.0011467508738860488,-0.000277702696621418
1783696400706680300,0.428680419921875,0.001217960030771792,-0.00190303148701787,0.0009006536565721035
1783696400716643300,0.438643310546875,0.0006829309859313071,0.0006304337293840945,-0.00031907414086163044
1783696400726606000,0.448606201171875,-0.001273470465093851,-0.0003522236365824938,0.0012307757278904319
1783696400736569000,0.458569091796875,-0.0008423047256655991,-0.0013671544147655368,0.0002858862280845642
1783696400746532000,0.468531982421875,0.00018743303371593356,0.00012978794984519482,0.0007489402778446674
1783696400756496100,0.47849609375,-0.0005654426058754325,-0.0015338888624683022,0.0014216548297554255
1783696400766459100,0.488459228515625,-0.0005048278253525496,-0.0005273156566545367,-0.00036695331800729036
1783696400776422100,0.498422119140625,0.0009271538583561778,-0.000858879298903048,0.0005619572475552559
1783696400786385400,0.508385498046875,-0.0002061384147964418,-0.0026253829710185528,-0.0006831572391092777
1783696400796348400,0.518348388671875,-0.00019122470985166728,0.0005078261019662023,-0.00005385233089327812
1783696400806312400,0.5283125,-0.00023139781842473894,0.000761769711971283,-0.0013258770341053605
1783696400816275200,0.538275146484375,0.0008130939677357674,-0.0003700737142935395,0.0006499220617115498
1783696400826238200,0.54823828125,-0.0002957357792183757,0.00027426506858319044,-0.0004400472389534116
1783696400836201200,0.558201171875,0.0013162755640223622,0.0007509709103032947,0.00038899481296539307
1783696400846164200,0.568164306640625,-0.0002963992883451283,-0.002288571558892727,0.0012676115147769451
1783696400856127200,0.578127197265625,0.00047698267735540867,0.0017136267852038145,-0.0005934054497629404
1783696400866091300,0.58809130859375,-0.00032819368061609566,0.0008552371291443706,-0.0007728640921413898
1783696400876054300,0.59805419921875,0.0007115044281817973,0.0005122219445183873,0.00006203691009432077
1783696400886017300,0.608017333984375,0.0013254431542009115,0.001495675533078611,-0.0006327738519757986
1783696400895980000,0.61797998046875,0.0007006655796431005,0.00013879500329494476,0.001546757179312408
1783696400905943000,0.627943115234375,0.002043928951025009,-0.0018899851711466908,-0.00012049090582877398
1783696400915907000,0.637906982421875,0.0009152814745903015,0.0007593273767270148,0.0009751336183398962
1783696400925870000,0.6478701171875,-0.000909467926248908,0.0005312877474352717,0.001535959541797638
1783696400935833000,0.6578330078125,-0.0001824249920900911,-0.0021465206518769264,-0.00004249601624906063
1783696400945796400,0.66779638671875,0.0002673782000783831,0.0010462942300364375,-0.0003510178066790104
1783696400955759400,0.67775927734375,-0.00023516025976277888,0.0012255250476300716,0.0016476844903081656
1783696400965722400,0.687722412109375,-0.0009061509044840932,-0.0015429118648171425,-0.0018658533226698637
1783696400975686400,0.697686279296875,0.0019279851112514734,0.00010292150545865297,-0.0010405397042632103
1783696400985649400,0.7076494140625,0.0003833402006421238,0.00009508372750133276,0.0013107096310704947
1783696400995612200,0.717612060546875,-0.000780993839725852,-0.0010490103159099817,0.0009202903020195663
1783696401005575200,0.7275751953125,0.000536374282091856,0.0007958257338032126,0.0001709115458652377
1783696401015538200,0.7375380859375,0.00023357284953817725,-0.0017602763837203383,-0.0007659884868189692
1783696401025502200,0.747502197265625,0.0016995822079479694,0.0006765685393474996,-0.0010000354377552867
1783696401035465200,0.75746533203125,-0.0006711638998240232,0.0012885630130767822,0.0030530293006449938
1783696401045428200,0.76742822265625,-0.000859301071614027,-0.001655117841437459,-0.0006247911369428039
1783696401055391200,0.77739111328125,0.001145792892202735,0.0008743525831960142,-0.0006692659808322787
1783696401065354200,0.787354248046875,-0.0010664085857570171,0.0004742392338812351,0.0022033134009689093
1783696401075318300,0.797318359375,-0.00037691614124923944,-0.0025753462687134743,0.00042964814929291606
1783696401085281000,0.807281005859375,0.0009530949173495173,0.0005416724598035216,-0.00009260047227144241
1783696401095244300,0.817244384765625,-0.0017987493192777038,0.0004010575357824564,0.000016855541616678238
1783696401105207300,0.827207275390625,0.0011119958944618702,-0.002476809546351433,0.0002683555940166116
1783696401115170300,0.83717041015625,0.001298150746151805,0.0017642745515331626,-0.00020062702242285013
1783696401125133300,0.84713330078125,-0.0007438382599502802,0.00042002787813544273,-0.0005540394922718406
1783696401135097300,0.857097412109375,-0.001138785039074719,-0.0021813479252159595,-0.0001809305977076292
1783696401145060400,0.867060302734375,-0.00013891553680878133,0.0005974846426397562,-0.00026922940742224455
1783696401155023400,0.8770234375,-0.00019803771283477545,-0.00012103619519621134,-0.0001126355491578579
1783696401164986000,0.886986083984375,0.0006965533830225468,-0.0013590892776846886,-0.000697110895998776
1783696401174949000,0.89694921875,-0.00040013628313317895,0.0007831574184820056,-0.0002931093331426382
1783696401184913200,0.9069130859375,0.0006734142662025988,-0.00044960109516978264,0.00028749421471729875
1783696401194876200,0.916876220703125,-0.0003809311892837286,-0.002947380067780614,0.001549566281028092
1783696401204839200,0.926839111328125,-0.0004453067376744002,0.001446702517569065,-0.00033556262496858835
1783696401214802200,0.93680224609375,-0.0004229361657053232,0.0004626645240932703,0.0003502013860270381
1783696401224765200,0.94676513671875,0.0013105266261845827,-0.0016658853273838758,0.000030746450647711754
1783696401234729200,0.956729248046875,0.0017568723997101188,0.0005751646240241826,0.00046643958194181323
1783696401244692200,0.966692138671875,0.0006559221656061709,0.0016945871757343411,0.0005692314589396119
1783696401254655200,0.9766552734375,-0.0019300072453916073,-0.0012607225216925144,-0.00007898197509348392
1783696401264618200,0.9866181640625,0.002428800566121936,0.002527781529352069,-0.0009436553809791803
1783696401274581200,0.996581298828125,-0.00012144248466938734,0.00023027241695672274,0.0009501184686087072
1783696401284544300,1.006544189453125,0.0006776110967621207,-0.001071473932825029,-0.0002618747530505061
1783696401294508300,1.01650830078125,0.0004315350379329175,0.001451072283089161,0.001538422075100243
1783696401304471300,1.02647119140625,-0.00004141085082665086,-0.001023860415443778,0.0012753942282870412
1783696401314434300,1.036434326171875,-0.0024028357584029436,-0.0019948489498347044,-0.0015225228853523731
1783696401324397300,1.046397216796875,0.0005949260666966438,0.002462237374857068,-0.0007370865205302835
1783696401334360000,1.056360107421875,0.000878020073287189,-0.0011474111815914512,-0.0011062006233260036
1783696401344324400,1.066324462890625,-0.0017246458446606994,0.00031355046667158604,-0.0010315228719264269
1783696401354287000,1.076287109375,-0.001298540155403316,-0.0006427905755117536,-0.00009861739818006754
1783696401364250000,1.08625,-0.0012356553925201297,-0.00009298662189394236,0.0017172587104141712
1783696401374213000,1.096213134765625,0.0006469330983236432,0.0032556720543652773,-0.0009277929784730077
1783696401384176000,1.106176025390625,-0.00038939836667850614,0.000671780202537775,-0.00041354901622980833
1783696401394139400,1.116139404296875,-0.0006692965980619192,-0.0011921661207452416,0.0005755490274168551
1783696401404103200,1.126103271484375,0.00028649019077420235,-0.0002498757094144821,-0.0005369274877011776
1783696401414066400,1.13606640625,-0.0003822295693680644,0.0005599915748462081,0.001154712401330471
1783696401424029400,1.146029541015625,0.0006647008704021573,-0.0025346516631543636,0.0007665342418476939
1783696401433992200,1.1559921875,0.0006298134685494006,0.0003799116238951683,-0.0004835536237806082
1783696401443955200,1.165955078125,-0.001526177627965808,0.002107173204421997,-0.0011613061651587486
1783696401453919200,1.175919189453125,-0.0008342883083969355,-0.0030979749280959368,-0.00018232816364616156
1783696401463882200,1.18588232421875,-0.00029909147997386754,0.0015251274453476071,0.0004910427378490567
1783696401473845200,1.19584521484375,-0.00009775650687515736,0.0003291018074378371,0.0019342097220942378
1783696401483808300,1.205808349609375,-0.0005645576165989041,-0.0018749691080302,0.0011713396525010467
1783696401493771300,1.215771240234375,-0.0008977190591394901,-0.0007015801966190338,-0.000017229118384420872
1783696401503734300,1.225734375,-0.0013787334319204092,-0.0005562636069953442,0.002145401667803526
1783696401513698300,1.2356982421875,0.00033660855842754245,-0.0008918219245970249,0.0008598938584327698
1783696401523661000,1.2456611328125,0.0019755756948143244,0.0012338957749307156,-0.0010251158382743597
1783696401533624000,1.2556240234375,-0.00032779230969026685,-0.0019405923085287213,0.000848151626996696
1783696401543587300,1.26558740234375,-0.000807096716016531,0.0006297670770436525,-0.002605380257591605
1783696401553550300,1.27555029296875,-0.0003879151772707701,0.0019541571382433176,-0.0014735367149114609
1783696401563514000,1.28551416015625,-0.000005432171747088432,-0.0009599364129826427,0.0010738014243543148
1783696401573477400,1.295477294921875,-0.0009452616795897484,-0.001531450659967959,-0.000058308360166847706
1783696401583440400,1.3054404296875,-0.00022447932860814035,0.0012195426970720291,0.0011393689783290029
1783696401593403400,1.3154033203125,0.00012040004367008805,-0.00023747270461171865,0.0004101954400539398
1783696401603366100,1.3253662109375,-0.0008725853404030204,-0.0017842140514403582,-0.0017418370116502047
1783696401613330200,1.335330078125,0.000532498408574611,0.000985739752650261,0.0001229083281941712
1783696401623293200,1.345293212890625,-0.000515882798936218,-0.0006687822751700878,-0.0004829299869015813
1783696401633256200,1.355256103515625,0.0006782786222174764,-0.00042883167043328285,-0.0015308838337659836
1783696401643219200,1.36521923828125,0.0011164461029693484,0.002461523748934269,-0.0007094660541042686
1783696401653182200,1.37518212890625,-0.0008758647600188851,-0.0008959234692156315,0.0013632721966132522
1783696401663145000,1.38514501953125,0.00023571407655254006,-0.0009089874802157283,0.0009571659029461443
1783696401673109000,1.39510888671875,-0.0002774770837277174,0.001129928627051413,0.001126010320149362
1783696401683072000,1.405072021484375,0.0002074400836136192,-0.00222445884719491,0.0006303036352619529
1783696401693035000,1.415034912109375,-0.00021546988864429295,-0.0006737002404406667,-0.00095507618971169
1783696401702998300,1.424998291015625,0.00026380259077996016,0.0017537190578877926,0.0011070272885262966
1783696401712961300,1.434961181640625,0.0002677973825484514,-0.002966201165691018,-0.0001329404767602682
1783696401722924300,1.44492431640625,-0.0014267342630773783,0.0013736413093283772,-0.0018665953539311886
1783696401732888300,1.454888427734375,-0.00016333059465978295,0.0013954791938886046,-0.00031024403870105743
1783696401742851300,1.464851318359375,-0.0002938412071671337,-0.0012305201962590218,0.00022506789537146688
1783696401752814000,1.47481396484375,0.0017983380239456892,0.0011647269129753113,-0.0006103657651692629
1783696401762777000,1.484777099609375,-0.0000159120827447623,0.00267055444419384,0.0008379220962524414
1783696401772740000,1.494739990234375,0.0009612016147002578,-0.0020190058276057243,0.0007351240492425859
1783696401782704000,1.5047041015625,0.0003882825549226254,0.0004914023447781801,-0.0011177092092111707
1783696401792667100,1.514667236328125,0.0008351609576493502,0.0005854119663126767,0.002379820216447115
1783696401802630100,1.524630126953125,0.0004098772769793868,-0.0038133501075208187,-0.0006838602712377906
1783696401812593200,1.53459326171875,0.0002511529019102454,0.000808832177426666,0.0004277431289665401
1783696401822556200,1.54455615234375,0.0010158373042941093,-0.0004448180552572012,-0.00022415653802454472
1783696401832519200,1.554519287109375,0.0004933250602334738,-0.000488760182633996,-0.00006117112934589386
1783696401842483000,1.56448291015625,-0.0002542263246141374,0.003493610769510269,-0.0006793106440454721
1783696401852446000,1.574446044921875,-0.00020335993031039834,-0.0011315010488033295,0.0005313623696565628
1783696401862409200,1.5844091796875,0.00042150463559664786,-0.002413532231003046,0.0003852624213322997
1783696401872372200,1.594372314453125,-0.00035640469286590815,0.003200411330908537,-0.0013274165103212
1783696401882335200,1.604335205078125,0.000001257285475730896,-0.0004277012776583433,-0.00007604982238262892
1783696401892299300,1.61429931640625,0.001013258472084999,-0.0007227794267237186,-0.0013634217903017998
1783696401902262300,1.62426220703125,-0.0009019071003422141,0.0007967609562911093,0.001013859291560948
1783696401912225300,1.634225341796875,-0.001109899953007698,-0.0005867511499673128,0.00007855717558413744
1783696401922188000,1.64418798828125,0.000012197793694213033,-0.0010169018059968948,0.00005845946725457907
1783696401932151000,1.654151123046875,0.000787177705205977,0.0024862203281372786,-0.0006733771879225969
1783696401942114000,1.664114013671875,-0.000741592375561595,-0.0010756405536085367,-0.00019787566270679235
1783696401952078000,1.674078125,-0.0011474580969661474,-0.0007992044556885958,-0.0017925765132531524
1783696401962041000,1.684041015625,-0.0013742437586188316,0.0019240414258092642,0.0009706315468065441
1783696401972004000,1.694004150390625,-0.001149739371612668,-0.0017649693181738257,0.0006851406651549041
1783696401981967000,1.703967041015625,0.0001139350060839206,0.00048473000060766935,-0.0003425802569836378
1783696401991930400,1.713930419921875,-0.0010626495350152254,0.0010541138472035527,-0.00027759920340031385
1783696402001893000,1.72389306640625,0.0006000189459882677,-0.0019218915840610862,0.001210212241858244
1783696402011857200,1.733857177734375,-0.000017834448954090476,0.00030078249983489513,-0.0013554770266637206
1783696402021820200,1.743820068359375,-0.0007161165704019368,0.000400301069021225,-0.0003493957919999957
1783696402031783200,1.753783203125,-0.0018311821622774005,-0.0009882712038233876,0.000476983143016696
1783696402041746200,1.76374609375,-0.000774656655266881,0.00028906750958412886,0.0002960702986456454
1783696402051709200,1.773709228515625,-0.00018263596575707197,-0.0004030880518257618,0.000044934218749403954
1783696402061673200,1.783673095703125,0.00030991528183221817,-0.0009652316803112626,0.00017952790949493647
1783696402071636200,1.79363623046875,0.0013927565887570381,0.0032801134511828423,-0.0016705701127648354
1783696402081599200,1.80359912109375,-0.0009777108207345009,-0.0001568780280649662,0.0004717319388873875
1783696402091562200,1.813562255859375,-0.0011508162133395672,-0.002033873926848173,-0.0007914053276181221
1783696402101525000,1.82352490234375,-0.0004837733577005565,0.0017011122545227408,-0.000019126920960843563
1783696402111488000,1.833488037109375,0.0019764548633247614,-0.0007532569579780102,0.0008655751589685678
1783696402121452000,1.8434521484375,0.0009896843694150448,-0.0027147778309881687,-0.0007177228108048439
1783696402131415000,1.8534150390625,-0.0006401701830327511,0.0015409532934427261,-0.0009108020458370447
1783696402141378000,1.8633779296875,0.00023054765188135207,-0.00028359051793813705,0.000174317741766572
1783696402151341300,1.87334130859375,-0.00016013806452974677,-0.0010156934149563313,-0.0020222575403749943
1783696402161304300,1.88330419921875,-0.0002507931203581393,0.002345298882573843,0.0011856326600536704
1783696402171267300,1.893267333984375,0.00004348615766502917,-0.0013418474700301886,-0.00007031415589153767
1783696402181231400,1.9032314453125,-0.0001830345718190074,-0.0015271019656211138,0.0011232508113607764
1783696402191194000,1.913194091796875,0.0007930139545351267,0.001911837956868112,-0.0009095399873331189
1783696402201157000,1.9231572265625,-0.0000029591028578579426,-0.001186555135063827,-0.0003270742017775774
1783696402211120000,1.9331201171875,-0.0004959101788699627,-0.001584963989444077,-0.00017660553567111492
1783696402221083100,1.943083251953125,-0.00035701459273695946,0.0008821510709822178,0.0010290794307366014
1783696402231047200,1.953047119140625,-0.0006646097172051668,-0.0011658197036013007,0.00019311311189085245
1783696402241010200,1.96301025390625,-0.00033729212009347975,0.0021835635416209698,-0.00031235103961080313
1783696402250973200,1.97297314453125,-0.0001671161298872903,0.0017231031088158488,-0.0004369869129732251
1783696402260936200,1.982936279296875,-0.0000838778360048309,-0.0026511773467063904,0.0002857579383999109
1783696402270899000,1.99289892578125,-0.00003700618981383741,0.0009464867180213332,-0.0002748374827206135
1783696402280863000,2.002863037109375,0.0005205066408962011,0.0010562390089035034,-0.00044694473035633564
1783696402290826000,2.012825927734375,-0.0006089400267228484,-0.003564877901226282,0.0016694692894816399
1783696402300789000,2.0227890625,-0.0009837538236752152,-0.0006622890941798687,-0.0002872139448300004
1783696402310752300,2.032752197265625,0.0009960400639101863,0.000860506494063884,0.0005120006971992552
1783696402320715300,2.04271533203125,-0.0005376599146984518,-0.003277943702414632,-0.0008171822410076857
1783696402330678300,2.05267822265625,0.00014038087101653218,0.0019405202474445105,-0.000413979752920568
1783696402340642300,2.062642333984375,0.0013771119993180037,0.00032058567740023136,0.0004881424247287214
1783696402350605300,2.072605224609375,-0.0018152191769331694,-0.001295953057706356,-0.00046233972534537315
1783696402360568000,2.082568115234375,-0.001712678000330925,0.0008613470708951354,0.000020048930309712887
1783696402370531000,2.092531005859375,-0.001102547743357718,0.0002123346785083413,0.001689318334683776
1783696402380494000,2.102494140625,0.0011189950164407492,-0.001682950067333877,-0.0010467951651662588
1783696402390458000,2.1124580078125,0.00010726004256866872,0.002374642062932253,-0.0013735650572925806
1783696402400421000,2.122421142578125,-0.0007324500475078821,0.0005870494642294943,0.0002013928024098277
1783696402410384100,2.132384033203125,0.00008940146653912961,-0.0016220426186919212,0.000841883011162281
1783696402420347100,2.14234716796875,0.0010983311804011464,0.0013939018826931715,-0.0006305397255346179
1783696402430310100,2.15231005859375,-0.0028743059374392033,0.00030493526719510555,0.001237667864188552
1783696402440273200,2.162273193359375,0.0003518603334669024,-0.00016001646872609854,-0.0017684600315988064
1783696402450237000,2.17223681640625,0.0003116465813945979,0.0021699832286685705,0.00035354658029973507
1783696402460200200,2.1822001953125,0.00021402363199740648,-0.0006499527953565121,0.0005993455415591598
1783696402470163200,2.1921630859375,0.0018449435010552406,-0.0014030947349965572,-0.0009290426969528198
1783696402480126200,2.202126220703125,-0.0006430965149775147,0.002284660469740629,-0.0005182117456570268
1783696402490089200,2.212089111328125,-0.0009019557619467378,-0.001036035013385117,0.0009132373379543424
1783696402500053200,2.22205322265625,0.0006543060881085694,0.0009818794205784798,0.001179258688353002
1783696402510016300,2.232016357421875,0.00004710536450147629,0.002452210523188114,0.000554481172002852
1783696402519979300,2.241979248046875,-0.00048629118828102946,-0.0018571832915768027,0.001213007140904665
1783696402529942000,2.25194189453125,0.000321445579174906,0.00010423490311950445,-0.001205675769597292
1783696402539905000,2.261905029296875,0.0012408934999257326,0.0005519528640434146,-0.001484869746491313
1783696402549868000,2.271867919921875,-0.0021453157532960176,-0.0026976363733410835,0.00083873828407377
1783696402559832000,2.28183203125,0.0006803678697906435,-0.0007069747662171721,-0.0003341306000947952
1783696402569795000,2.291795166015625,-0.000006461370503529906,0.0022145130205899477,-0.00022680521942675114
1783696402579758000,2.301758056640625,-0.0009032021625898778,-0.0021859267726540565,-0.0002980766585096717
1783696402589721000,2.31172119140625,0.00017910651513375342,-0.0002697824966162443,0.00006464589387178421
1783696402599683000,2.32168310546875,0.0013616702053695917,0.0009986077202484012,-0.0016634201165288687
1783696402609647000,2.331647216796875,-0.0005347668193280697,-0.0017854608595371246,-0.0006687295390293002
1783696402619610000,2.341610107421875,0.00025680067483335733,0.0009269217844121158,-0.001179215731099248
1783696402629573000,2.351572998046875,0.0004956862539984286,-0.00032449758145958185,0.000888728944119066
1783696402639536000,2.3615361328125,0.0003169129486195743,-0.0014541756827384233,-0.0029618525877594948
1783696402649499100,2.3714990234375,0.0007249092450365424,0.0017709124367684126,0.0008211677777580917
1783696402659462100,2.381462158203125,0.00025510595878586173,0.0016355619300156832,-0.00069614895619452
1783696402669426200,2.39142626953125,0.00034805026371032,-0.002500860020518303,-0.0010902966605499387
1783696402679389200,2.40138916015625,0.0007664820877835155,0.001593073713593185,0.0005555583047680557
1783696402689352000,2.41135205078125,0.00011933391215279698,0.0010343424510210752,0.0017515840008854866
1783696402699315000,2.42131494140625,-0.0015716803027316928,-0.0007270813221111894,-0.00008068361785262823
1783696402709278200,2.4312783203125,0.000623563420958817,0.002811194397509098,-0.0003312870394438505
1783696402719242000,2.441241943359375,-0.0006646243273280561,0.0008792713633738458,0.000021678744815289974
1783696402729205200,2.451205322265625,-0.0006827338365837932,-0.0011204963084310293,0.0014520626282319427
1783696402739168300,2.461168212890625,-0.00014500695397146046,0.0022535203024744987,-0.0006204664241522551
1783696402749131300,2.47113134765625,-0.00017749753897078335,-0.0007635749643668532,-0.0009757319930940866
1783696402759094300,2.48109423828125,-0.0009915740229189396,-0.0010573688196018338,-0.0001018086913973093
1783696402769057000,2.49105712890625,0.0008036628132686019,0.0023560046683996916,-0.0017636212287470698
1783696402779021300,2.501021240234375,0.0012837725225836039,-0.00134034373331815,-0.0000017209677025675774
1783696402788984000,2.510984130859375,-0.0004107968707103282,-0.00004764529876410961,0.00006485811900347471
1783696402798947000,2.520947021484375,0.0010893290163949132,0.0008388894493691623,0.001697193132713437
1783696402808910000,2.53091015625,0.0005716105806641281,-0.0024352006148546934,-0.0015068559441715479
1783696402818873000,2.540873046875,-0.0010880534537136555,0.0005735030863434076,0.00036166119389235973
1783696402828837000,2.550837158203125,-0.00013251123891677707,0.001529311528429389,0.0010146682616323233
1783696402838800100,2.560800048828125,0.00019437988521531224,-0.002788645215332508,0.0011769788106903434
1783696402848763100,2.57076318359375,-0.001243727165274322,0.00033178040757775307,0.0004358211299404502
1783696402858726100,2.58072607421875,0.0003298042865935713,0.0021680055651813745,-0.000043400563299655914
1783696402868689200,2.590689208984375,-0.0012622334761545062,-0.0024041093420237303,0.0026650342624634504
1783696402878652200,2.600652099609375,0.00048364733811467886,0.0010185064747929573,0.0001581708202138543
1783696402888616200,2.6106162109375,0.0006192022119648755,0.00030184979550540447,0.0014924145070835948
1783696402898579200,2.6205791015625,-0.00027717044577002525,-0.002599261235445738,0.00106780044734478
1783696402908542200,2.630542236328125,0.000011249881936237216,0.001619452377781272,-0.0025477069430053234
1783696402918505200,2.640505126953125,-0.0008290985715575516,0.0010068761184811592,0.0005232206895016134
1783696402928468200,2.65046826171875,-0.000018698643543757498,-0.0014256550930440426,-0.00015774962957948446
1783696402938432300,2.660432373046875,0.00012089006486348808,0.0009969613747671247,-0.0009196990868076682
1783696402948395300,2.670395263671875,0.0007861477206461132,0.0015650136629119515,0.0008739399490877986
1783696402958358000,2.68035791015625,0.0008560290443710983,-0.0019607567228376865,0.0006108561065047979
1783696402968321000,2.690321044921875,-0.00016582586977165192,0.0022672777995467186,-0.0020243418402969837
1783696402978284000,2.700283935546875,-0.00042071222560480237,0.0008220145828090608,0.0009175213053822517
1783696402988247000,2.7102470703125,-0.0003011362859979272,-0.0014728312380611897,-0.0009008850902318954
1783696402998211000,2.720211181640625,0.00023622172011528164,0.0012779879616573453,0.0006373020587489009
1783696403008174000,2.730174072265625,-0.00047138018999248743,-0.0002448075683787465,-0.00040505919605493546
1783696403018137300,2.740137451171875,0.0009253321914002299,0.0003065976779907942,0.00091266178060323
1783696403028100400,2.750100341796875,0.0009684753604233265,0.00018116284627467394,0.000642084633000195
1783696403038063000,2.76006298828125,-0.000619300757534802,-0.0008062304696068168,0.00015689869178459048
1783696403048027100,2.770027099609375,0.0013993752654641867,-0.00043525209184736013,-0.0006519033340737224
1783696403057990100,2.779990234375,-0.000542249355930835,0.001616931869648397,-0.00006572285201400518
1783696403067953200,2.789953125,0.000260960019659251,-0.0016188089502975345,0.0010991437593474984
1783696403077916200,2.799916259765625,-0.0007910462445579469,0.00047690689098089933,0.00010830408427864313
1783696403087879200,2.809879150390625,-0.00021154238493181765,0.0020436446648091078,-0.002465374767780304
1783696403097842200,2.81984228515625,0.001809726352803409,-0.001834307098761201,-0.00007297634147107601
1783696403107806200,2.82980615234375,-0.000996180111542344,-0.0008942112326622009,-0.001400029519572854
1783696403117769200,2.839769287109375,-0.00022284135047812015,0.002684705425053835,-0.0005387209821492434
1783696403127732000,2.84973193359375,0.0010096696205437183,-0.0015236218459904194,0.000046641798689961433
1783696403137695000,2.859695068359375,0.0007008626707829535,-0.00006978260353207588,-0.001114023383706808
1783696403147658000,2.869657958984375,0.00047262973384931684,0.0020769916009157896,0.0004604373825713992
1783696403157622000,2.8796220703125,0.0006901504239067435,-0.0009825588203966618,-0.0004082516534253955
1783696403167585000,2.8895849609375,0.0007649852195754647,0.0008960350533016026,-0.0015504815382882953
1783696403177548300,2.89954833984375,0.00038354319985955954,0.0013520537177100778,-0.00012279173824936152
1783696403187511300,2.90951123046875,0.00037741794949397445,-0.0024307002313435078,0.0015549997333437204
1783696403197474300,2.919474365234375,-0.0002002516994252801,0.0010751246009021997,-0.0008627788629382849
1783696403207437000,2.92943701171875,0.0003688658180180937,0.001858626608736813,0.0004229953046888113
1783696403217401300,2.9394013671875,0.0016616845969110727,-0.001379212480969727,0.0008230856619775295
1783696403227364000,2.949364013671875,-0.0010097321355715394,0.0017673121765255928,-0.0015636392636224627
1783696403237327000,2.9593271484375,-0.00035479848156683147,0.0008994797244668007,-0.001305100042372942
1783696403247290000,2.9692900390625,0.00004813777923118323,-0.0011799163185060024,-0.0005287885433062911
1783696403257253000,2.979253173828125,0.0008324335794895887,0.0018810078036040068,0.0005796085461042821
1783696403267217200,2.989217041015625,-0.000678111391607672,-0.0005371423903852701,0.0007452571881003678
1783696403277180200,2.99918017578125,-0.00013833814591635019,-0.0016643459675833583,-0.0024113869294524193
1783696403287143200,3.00914306640625,-0.00036683736834675074,0.002615087665617466,0.0003609639243222773
1783696403297106200,3.019106201171875,-0.0012709421571344137,-0.001367806689813733,0.0013425105717033148
1783696403307069200,3.029069091796875,0.000014033066690899432,-0.00042052031494677067,-0.00011503754649311304
1783696403317032200,3.0390322265625,0.0010251622879877687,0.0012872765073552728,0.000926522770896554
1783696403326996000,3.048995849609375,-0.0009764696005731821,-0.0015593764837831259,-0.00009080476593226194
1783696403336959200,3.058959228515625,0.000943552004173398,-0.0011269432725384831,-0.0013668170431628823
1783696403346922200,3.068922119140625,0.0006569959223270416,0.0023261113092303276,-0.00048424548003822565
1783696403356885200,3.07888525390625,-0.0011238274164497852,-0.0009106604848057032,0.0009650681167840958
1783696403366848300,3.08884814453125,-0.0017395502654835582,-0.0014076062943786383,0.0002777062472887337
1783696403376811300,3.098811279296875,-0.00016803444304969162,0.0013994050677865744,0.0006550822290591896
1783696403386775300,3.108775390625,0.0004748526553157717,-0.0009204744128510356,0.0007909034611657262
1783696403396738000,3.118738037109375,-0.0014027038123458624,-0.0006452364614233375,-0.0009772266494110227
1783696403406701000,3.128701171875,-0.0009345202124677598,0.001988097093999386,0.0010486399987712502
1783696403416664000,3.1386640625,-0.0010485590901225805,0.00018243328668177128,0.001890035578981042
1783696403426627000,3.148626953125,-0.002103437203913927,-0.0010098638013005257,0.0006958741578273475
1783696403436591000,3.158591064453125,0.0006950768874958158,0.0009998386958613992,-0.0006021765293553472
1783696403446554000,3.16855419921875,-0.00006845140887890011,-0.0014601232251152396,0.00031821196898818016
1783696403456517000,3.17851708984375,-0.00023455367772839963,0.000700267031788826,0.0005297584575600922
1783696403466480000,3.188480224609375,0.0002666532527655363,-0.0002153277164325118,0.0005457373918034136
1783696403476443100,3.198443115234375,-0.0010533648310229182,-0.0020834291353821754,-0.0005215030396357179
1783696403486406100,3.20840625,0.0002782156807370484,0.0012993180425837636,-0.0018882371950894594
1783696403496370200,3.2183701171875,-0.0009941186290234327,0.001341881463304162,0.002150404267013073
1783696403506333200,3.228333251953125,-0.0012335367500782013,-0.0020722909830510616,0.0007951216539368033
1783696403516296200,3.238296142578125,-0.0008098047692328691,0.0017196927219629288,-0.00012560468167066574
1783696403526259200,3.24825927734375,0.00002376461634412408,0.0005873166373930871,0.0000275271013379097
1783696403536222200,3.25822216796875,0.00028191914316266775,-0.0021660812199115753,0.0007925562094897032
1783696403546186200,3.268186279296875,0.0007684787269681692,0.001339704031124711,-0.001677259337157011
1783696403556149200,3.278149169921875,-0.0004760835727211088,-0.0011832586023956537,0.0007688354235142469
1783696403566112000,3.288112060546875,0.001946061383932829,-0.0013550324365496635,-0.0005896430229768157
1783696403576075000,3.298074951171875,0.0007582016987726092,0.001453802571631968,-0.0013988707214593887
1783696403586038000,3.3080380859375,0.0010026799282059073,-0.001703108660876751,0.000560949498321861
1783696403596001000,3.3180009765625,-0.000891961099114269,-0.002992983441799879,-0.00023499794770032167
1783696403605965800,3.3279658203125,0.00038608990143984556,0.0017354593146592379,-0.0001138241495937109
1783696403615928800,3.3379287109375,-0.0008445815183222294,0.0012592115672305226,0.0010600906098261476
1783696403625891800,3.347891845703125,-0.0006299307569861412,-0.0029270113445818424,-0.0006770893232896924
1783696403635854800,3.357854736328125,-0.000033779797377064824,0.0015505905030295253,-0.00031851930543780327
1783696403645817900,3.36781787109375,0.0014426767593249679,-0.0015325510175898671,0.0013321079313755035
1783696403655781600,3.37778173828125,-0.0003296111826784909,-0.002236061729490757,-0.00022913713473826647
1783696403665745000,3.387744873046875,0.0009074271656572819,0.0013464224757626653,-0.0009167654206976295
1783696403675708000,3.3977080078125,-0.0004860169719904661,-0.0012048666831105947,0.000183028110768646
1783696403685671000,3.4076708984375,-0.00026337671442888677,-0.00224403222091496,-0.0009522775653749704
1783696403695634000,3.417634033203125,0.0006607596878893673,0.0022287031169980764,0.0006295976927503943
1783696403705597000,3.427596923828125,-0.0003810689377132803,-0.0002088882029056549,0.0002767288824543357
1783696403715561000,3.43756103515625,-0.0005830738227814436,0.0019068571273237467,-0.000887988368049264
1783696403725524000,3.44752392578125,0.0010835323482751846,0.0008373316959477961,-0.0005737353349104524
1783696403735486700,3.45748681640625,-0.0009525112109258771,-0.0025817526038736105,-0.0018059683497995138
1783696403745449700,3.46744970703125,-0.0004441137134563178,-0.0014064996503293514,0.0001794182462617755
1783696403755412700,3.477412841796875,-0.0004838566528633237,0.0017969550099223852,-0.0001859839539974928
1783696403765376800,3.487376708984375,-0.00034883440821431577,-0.0017016397323459387,-0.0014725569635629654
1783696403775339800,3.49733984375,-0.00014678477600682527,0.0004608535673469305,-0.00008280051406472921
1783696403785302800,3.507302734375,0.00009050287189893425,0.002325332723557949,-0.0007280843565240502
1783696403795265800,3.517265869140625,0.0003480170853435993,-0.0016116815386340022,-0.00036925217136740685
1783696403805229000,3.52722900390625,-0.0008163169259205461,0.0002924785949289799,0.0012371665798127651
1783696403815192800,3.53719287109375,-0.0002642159815877676,0.00020478700753301382,0.0006749192252755165
1783696403825156000,3.547156005859375,-0.00013851476251147687,-0.002862642053514719,-0.0005179106956347823
1783696403835118800,3.557118896484375,0.00046972697600722313,0.0003781724954023957,-0.0007054457673802972
1783696403845081900,3.567081787109375,-0.0009827610338106751,0.00021998072043061256,0.0010162879480049014
1783696403855044900,3.577044921875,-0.000343114894349128,-0.0012268550926819444,0.0000782661372795701
1783696403865007900,3.5870078125,0.0010864699725061655,0.002038979437202215,-0.0011230858508497477
1783696403874972000,3.596971923828125,0.00092915422283113,-0.0008478584932163358,-0.00028869963716715574
1783696403884935000,3.606934814453125,-0.0010676839156076312,-0.002154671587049961,-0.0005779188359156251
1783696403894898000,3.61689794921875,-0.00021718375501222908,0.0031705445144325495,-0.0001989257289096713
1783696403904861000,3.62686083984375,0.001649958430789411,-0.0008726667147129774,0.0006109416135586798
1783696403914823700,3.63682373046875,0.00021624188229907304,-0.001155616482719779,-0.0001398380845785141
1783696403924787700,3.64678759765625,-0.002380073769018054,0.0008995449752546847,0.0002575055696070194
1783696403934750700,3.656750732421875,-0.0008544198935851455,-0.0017537246458232403,0.0013431846164166927
1783696403944713700,3.666713623046875,0.0008276326698251069,0.00009317765943706036,-0.0006115755531936884
1783696403954677000,3.676677001953125,0.0007565077394247055,0.0011068128515034914,-0.00031842361204326153
1783696403964640000,3.686639892578125,0.0002507734461687505,0.0004854974104091525,0.0002112791407853365
1783696403974603000,3.69660302734375,-0.0002489940670784563,-0.0004616661462932825,-0.0007208188762888312
1783696403984567000,3.706567138671875,-0.00025059195468202233,0.001709076459519565,0.00036894669756293297
1783696403994530000,3.716530029296875,0.0005144106689840555,-0.0025047187227755785,-0.00043028267100453377
1783696404004492800,3.726492919921875,0.0008497026283293962,0.0006340827094390988,0.000030177878215909004
1783696404014455800,3.736455810546875,0.0007795538404025137,-0.00010038015898317099,0.0007361083407886326
1783696404024418800,3.746418701171875,-0.0005405751289799809,-0.0030620817560702562,-0.0012570014223456383
1783696404034382800,3.7563828125,0.00041731412056833506,0.0012085090856999159,-0.0002931132912635803
1783696404044345900,3.766345947265625,0.0007225124281831086,0.001953128958120942,0.0009130323305726051
1783696404054308900,3.776308837890625,0.00048028462333604693,-0.0023972364142537117,0.0007459843182004988
1783696404064272000,3.78627197265625,0.000039531427319161594,0.00042491534259170294,-0.0011509853648021817
1783696404074235000,3.79623486328125,0.0012128881644457579,0.0014144383603706956,0.0012965310597792268
1783696404084197600,3.80619775390625,-0.0011991368373855948,-0.001568035688251257,0.0008797463960945606
1783696404094161700,3.81616162109375,0.0018626850796863437,0.00157100148499012,-0.00014693534467369318
1783696404104124700,3.826124755859375,0.0006203204393386841,0.00010226806625723839,-0.0005855580093339086
1783696404114088000,3.836087890625,0.0009128277306444943,-0.0024718400090932846,0.0004951321752741933
1783696404124051000,3.846051025390625,-0.0010552483145147562,0.0005860013770870864,0.00002481788396835327
1783696404134014000,3.856013916015625,0.0006230153376236558,-0.00015988131053745747,-0.0005150145152583718
1783696404143978000,3.86597802734375,-0.0003591584390960634,-0.0031490130349993706,-0.0003448384813964367
1783696404153941000,3.87594091796875,0.0009412291692569852,0.0036917589604854584,-0.00037628947757184505
1783696404163904000,3.885904052734375,0.0009303102269768715,0.0006600163178518414,0.0004751231172122061
1783696404173866800,3.89586669921875,0.0008558802073821425,-0.0025921559426933527,-0.0006929102819412947
1783696404183829800,3.905829833984375,-0.00011643990728771314,0.0005327973049134016,-0.00032858981285244226
1783696404193793800,3.915793701171875,0.0013632051413878798,0.0002040824620053172,0.00013759348075836897
1783696404203756800,3.9257568359375,-0.0009079386363737285,-0.0012803636491298676,-0.0000738614471629262
1783696404213719800,3.9357197265625,0.000444214791059494,0.00036842015106230974,-0.0003946932265534997
1783696404223682800,3.945682861328125,0.00030919251730665565,-0.0006829957710579038,0.00043141935020685196
1783696404233645800,3.955645751953125,-0.0009459576685912907,0.00005273171700537205,0.0009463352034799755
1783696404243608800,3.96560888671875,0.000930239271838218,0.0011073434725403786,-0.0009495691629126668
1783696404253572900,3.97557275390625,0.0005209362716414034,-0.0016322751762345433,-0.0007045331876724958
1783696404263535900,3.985535888671875,-0.0003840058343484998,-0.0019928673282265663,0.002270217752084136
1783696404273499000,3.995498779296875,-0.00007168445154093206,0.0024268447887152433,-0.000050053116865456104
1783696404283462000,4.0054619140625,0.002321432111784816,0.00011894945055246353,-0.0002212943509221077
1783696404293425000,4.0154248046875,0.0018367832526564598,-0.00022487540263682604,0.00011831719893962145
1783696404303388000,4.025387939453125,0.0017667422071099281,0.0013186926953494549,-0.0003229685826227069
1783696404313352000,4.03535205078125,0.0007090427679941058,-0.0019556821789592505,0.0013006029184907675
1783696404323315000,4.04531494140625,-0.0002797889173962176,0.0002856341889128089,-0.0005976982647553086
1783696404333278000,4.05527783203125,0.0008690489921718836,-0.00006387673784047365,-0.0005539125995710492
1783696404343241000,4.065240966796875,0.0006951445830054581,-0.00027240230701863766,-0.0004604356363415718
1783696404353203700,4.07520361328125,0.0013133856700733304,0.0019277576357126236,0.000609407783485949
1783696404363167700,4.085167724609375,0.00021802754781674594,0.001268358901143074,0.0005412308382801712
1783696404373130800,4.095130859375,-0.0009062763419933617,-0.0026389050763100386,-0.00039516680408269167
1783696404383093800,4.10509375,-0.00011531753989402205,-0.00024152768310159445,-0.00003617268521338701
1783696404393056800,4.115056884765625,0.0011378924828022718,-0.0006972776027396321,-0.0002606170019134879
1783696404403020000,4.12502001953125,-0.00020940066315233707,-0.0019239295506849885,0.0005282112979330122
1783696404412983000,4.134983154296875,0.00019923990475945175,0.0007647612364962697,-0.0014294218271970749
1783696404422946800,4.14494677734375,0.0012583790812641382,0.0007623644196428359,0.0017365440726280212
1783696404432910000,4.15491015625,0.00021483967429958284,-0.0025317720137536526,-0.0004823047202080488
1783696404442872800,4.164872802734375,0.0002667712979018688,0.002904005814343691,-0.0000804336741566658
1783696404452835800,4.1748359375,-0.0001475778699386865,0.000027864472940564156,0.0016573923639953136
1783696404462798800,4.184798828125,-0.0011063158744946122,-0.0014017204521223903,-0.0013101680669933558
1783696404472763000,4.194762939453125,-0.00043138593900948763,0.0012201654026284814,0.0007988748839125037
1783696404482726000,4.204725830078125,-0.0006833209772594273,-0.00020063098054379225,0.001325914403423667
1783696404492689000,4.21468896484375,-0.00010733141971286386,-0.0016362422611564398,-0.00039639079477638006
1783696404502652000,4.22465185546875,0.0017941656988114119,0.0032783551141619682,0.00022252782946452498
1783696404512615000,4.234614990234375,0.0003610167186707258,-0.000058629666455090046,0.0009051127126440406
1783696404522577700,4.24457763671875,-0.0007801477913744748,-0.001340941758826375,-0.0004320604493841529
1783696404532541700,4.254541748046875,-0.0005461713299155235,0.0008421205566264689,0.0003584540681913495
1783696404542504700,4.264504638671875,0.0009446662152186036,-0.0024623293429613113,0.0002521939459256828
1783696404552467700,4.2744677734375,0.00043871800880879164,-0.0011593818198889494,0.0004848448443226516
1783696404562431000,4.284430908203125,-0.0003125597140751779,0.001468891859985888,-0.00013114430475980043
1783696404572394000,4.29439404296875,0.00024365281569771469,-0.0002711396664381027,0.00010801409371197224
1783696404582357800,4.304357666015625,0.0015179754700511694,0.00017813558224588633,-0.0007753564277663827
1783696404592321000,4.314321044921875,0.0007484274683520198,0.0018978408770635724,0.00006326858419924974
1783696404602283500,4.324283447265625,-0.0007970049628056586,-0.003262566402554512,0.0001298475544899702
1783696404612246500,4.33424658203125,0.0008675907738506794,0.001109726494178176,-0.0005854062037542462
1783696404622209500,4.34420947265625,0.0002249699755338952,0.0008849556907080114,0.002762986347079277
1783696404632172500,4.354172607421875,0.00043562118662521243,-0.0024286259431391954,0.0014581307768821716
1783696404642136600,4.364136474609375,0.001436969731003046,0.0005381357623264194,-0.00024815648794174194
1783696404652099600,4.374099609375,0.0013294530799612403,0.00136651867069304,0.00042956386459991336
1783696404662062600,4.3840625,-0.00043063005432486534,-0.0008803901728242636,0.0015792504418641329
1783696404672025300,4.394025390625,0.0011510683689266443,-0.001010437961667776,-0.0026346626691520214
1783696404681988400,4.40398828125,-0.0009802593849599361,0.0012591078411787748,-0.000385357066988945
1783696404691951600,4.41395166015625,0.00013175318599678576,-0.002405641134828329,-0.0003317879745736718
1783696404701915400,4.423915283203125,0.0007946139667183161,0.0013587370049208403,0.00025091168936342
1783696404711878700,4.433878662109375,0.0009366455487906933,-0.0003661870723590255,-0.00003068882506340742
1783696404721841700,4.443841552734375,0.000386702740797773,-0.0006130621768534184,0.0006127309170551598
1783696404731804700,4.4538046875,-1.1781230568885803e-7,0.00234205462038517,-0.0004605086287483573
1783696404741767700,4.463767578125,0.00002172013046219945,-0.0001820893958210945,-0.00043494231067597866
1783696404751731700,4.473731689453125,-0.001123560476116836,-0.0007524779066443443,-0.0015320224920287728
1783696404761694500,4.483694580078125,0.0002967033360619098,0.002875812817364931,-0.0008811458246782422
1783696404771657500,4.493657470703125,0.001067641656845808,-0.00006121804472059011,-0.0012407110771164298
1783696404781620500,4.503620361328125,-0.0020567788742482662,-0.002138217445462942,-0.004075912293046713
1783696404791583500,4.51358349609375,-0.0011096283560618758,0.0011884653940796852,0.0017289191018790007
1783696404801546500,4.52354638671875,-0.0000203955132747069,0.00006301351822912693,-0.00020719901658594608
1783696404811510500,4.533510498046875,0.0005917614907957613,-0.0018119753804057837,-0.0003205010434612632
1783696404821473500,4.5434736328125,0.0005837720236741006,0.0015641138888895512,0.0012134796706959605
1783696404831436500,4.5534365234375,0.0006062688771635294,-0.00013524782843887806,0.001519224257208407
1783696404841399600,4.563399658203125,0.00041079288348555565,-0.0004234019434079528,-0.00022701045963913202
1783696404851362600,4.573362548828125,-0.000969468557741493,0.0016037882305681705,-0.00013473595026880503
1783696404861326300,4.583326416015625,-0.001323668984696269,-0.0003693478647619486,0.0002658034209161997
1783696404871289600,4.59328955078125,-0.0005685908836312592,-0.00072051165625453,0.0008973287185654044
1783696404881252600,4.603252685546875,-0.00013742511509917676,0.0015783288981765509,-0.00017113157082349062
1783696404891215600,4.613215576171875,0.00007763999747112393,-0.002111854963004589,-0.0005279744509607553
1783696404901178600,4.6231787109375,0.0007942966185510159,0.0009593023569323123,0.00021957483841106296
1783696404911142700,4.633142578125,0.0012996760196983814,0.0014018449001014233,-0.0004421371268108487
1783696404921105700,4.643105712890625,0.002273593796417117,-0.0011976666282862425,-0.0007891471032053232
1783696404931068400,4.653068359375,-0.00004679734411183745,0.0007450996781699359,-0.001743580331094563
1783696404941031400,4.663031494140625,-0.0016987561248242855,0.0006899722502566874,0.0018277186900377274
1783696404950994400,4.672994384765625,-0.0008311813580803573,-0.0019957046024501324,0.0012526912614703178
1783696404960957400,4.68295751953125,-0.00000826461473479867,0.0005854309420101345,-0.0011356316972523928
1783696404970921500,4.69292138671875,0.0009018671116791666,0.0032613747753202915,-0.00029148708563297987
1783696404980884500,4.702884521484375,-0.00005900139512959868,-0.0012609389377757907,0.0006528698140755296
1783696404990847500,4.712847412109375,-0.00005805675755254924,0.0021954819094389677,0.0012100471649318933
1783696405000810500,4.722810546875,-0.000778441783040762,0.0014564547454938293,0.0011977966642007232
1783696405010773500,4.7327734375,-0.00019511226855684072,-0.0018999087624251842,-0.0001487857662141323
1783696405020737500,4.742737548828125,0.0004445789963938296,0.00019173789769411087,-0.0010931426659226418
1783696405030700500,4.752700439453125,-0.0005578738055191934,0.0011467812582850456,0.0011151146609336138
1783696405040663600,4.76266357421875,0.0005265653599053621,-0.00042874482460319996,3.153691068291664e-7
1783696405050626600,4.77262646484375,-0.0007117887726053596,0.0011483337730169296,0.0016770650399848819
1783696405060589600,4.782589599609375,0.0007995550404302776,-0.0006298588123172522,0.00020992959616705775
1783696405070552600,4.792552490234375,0.0006174711161293089,-0.0014199144206941128,0.000025241635739803314
1783696405080516600,4.8025166015625,0.00040122243808582425,0.0015340638346970081,0.00024575134739279747
1783696405090479600,4.812479736328125,-0.001432972028851509,-0.0015973218251019716,0.00007672293577343225
1783696405100442600,4.822442626953125,0.000543093541637063,-0.0010407213121652603,0.0005028286832384765
1783696405110405400,4.8324052734375,0.00014618042041547596,0.0010911254212260246,-0.0009826886234804988
1783696405120368400,4.842368408203125,0.0009485908667556942,0.0005880543612875044,0.0018232178408652544
1783696405130332400,4.85233251953125,-0.00018310871382709593,-0.00035610992927104235,0.0003640947979874909
1783696405140295400,4.86229541015625,-0.0000936264987103641,0.0036210548132658005,-0.002899076323956251
1783696405150258400,4.872258544921875,0.00030177191365510225,-0.0017345419619232416,0.0001505262916907668
1783696405160221700,4.8822216796875,0.00045090896310284734,0.0004284774186089635,0.0009201798820868134
1783696405170184700,4.892184814453125,0.0003501630562823266,0.0029187165200710297,-0.0004494542954489589
1783696405180148500,4.9021484375,-0.0015278981300070882,-0.001603597542271018,0.00023604329908266664
1783696405190111700,4.91211181640625,0.0006369561888277531,0.001076865941286087,0.00046758161624893546
1783696405200074500,4.922074462890625,0.0014944941503927112,0.0014417190104722977,0.000005523208528757095
1783696405210037500,4.93203759765625,0.00022568742861039937,-0.0010502762161195278,-0.0005633686669170856
1783696405220000500,4.94200048828125,0.000016096659237518907,0.0016424460336565971,-0.0005537812830880284
1783696405229963500,4.951963623046875,-0.0010095806792378426,0.0010850925464183092,0.0004935705801472068
1783696405239927600,4.961927490234375,-0.0013280946295708418,-0.0012632828438654542,-0.0008212319808080792
1783696405249890600,4.971890625,0.0003115908184554428,0.00020334089640527964,-0.000781797687523067
1783696405259853600,4.981853515625,0.0005475468933582306,0.0015487698838114738,-0.0015668976120650768
1783696405269816600,4.991816650390625,0.0002777563058771193,-0.001730030053295195,0.00004710489884018898
1783696405279779300,5.001779296875,0.0003286227001808584,0.0017246224451810122,0.0005576328840106726
1783696405289743400,5.011743408203125,-0.0002472151245456189,0.00035631179343909025,0.0006792362546548247
1783696405299706400,5.021706298828125,0.0007352249813266098,-0.0017057738732546568,-0.0013317166594788432
1783696405309669400,5.03166943359375,-0.0009048930951394141,0.0015036805998533964,-0.0008527992758899927
1783696405319632600,5.041632568359375,-0.002282013650983572,-0.0008470916654914618,0.0007291183574125171
1783696405329595600,5.051595703125,-0.0011297286255285144,-0.0013796623097732663,-0.00004977255593985319
1783696405339558700,5.06155859375,-0.0011038959491997957,0.0006451390800066292,-0.0028857728466391563
1783696405349522700,5.071522705078125,-0.0003412327787373215,0.0013794025871902704,0.0003534990828484297
1783696405359485700,5.081485595703125,0.00038847335963509977,0.00011440110392868519,-0.0016105821123346686
1783696405369448400,5.091448486328125,-0.0004828164819628,0.0011292778654024005,0.00009279244113713503
1783696405379411500,5.101411376953125,0.0006205311510711908,-0.0005932548083364964,-0.0002161342417821288
1783696405389374500,5.11137451171875,-0.0008327941759489477,-0.0006720060482621193,-0.001865937141701579
1783696405399338500,5.12133837890625,-0.0003547567466739565,0.0031317868269979954,0.00010666623711585999
1783696405409301500,5.131301513671875,-0.00015277884085662663,-0.0008515188237652183,-0.00039199646562337875
1783696405419264500,5.141264404296875,0.00018757313955575228,-0.0026185261085629463,-0.0010681729763746262
1783696405429227500,5.1512275390625,-0.0003930630336981267,0.0030979143921285868,0.0012782433768734336
1783696405439190500,5.1611904296875,-0.0010532606393098831,0.0002691047266125679,0.0009674524771980941
1783696405449154600,5.171154541015625,0.0016340853180736303,0.0005514175863936543,-0.0017014952609315515
1783696405459117300,5.181117431640625,0.0006481831660494208,0.0006403672159649432,-0.0006341001717373729
1783696405469080600,5.19108056640625,-0.00042313692392781377,-0.001403572503477335,-0.00014778634067624807
1783696405479043600,5.201043701171875,-0.0001349828962702304,0.00014239258598536253,-0.0022290467750281096
1783696405489006600,5.211006591796875,-0.0003792123170569539,0.0026426156982779503,0.0010118726640939713
1783696405498969600,5.220969482421875,-0.0007278200937435031,-0.0019859580788761377,0.0017362525686621666
1783696405508933600,5.23093359375,-0.00017140212003141642,0.0007287391927093267,-0.0006450198125094175
1783696405518896600,5.240896728515625,0.002162325894460082,0.001345527358353138,0.0002511338097974658
1783696405528859600,5.250859619140625,-0.0001195828226627782,-0.0030832290649414062,0.0004146310966461897
1783696405538822400,5.260822509765625,0.0013068062253296375,0.001327232108451426,-0.0008162818849086761
1783696405548785400,5.270785400390625,0.0010494113666936755,0.001184087130241096,-0.0011086155427619815
1783696405558749400,5.28074951171875,0.0003356841334607452,-0.0022071823477745056,0.0011012755567207932
1783696405568712400,5.29071240234375,0.0010737214470282197,0.0004611782496795058,-0.001757814665324986
1783696405578675500,5.300675537109375,-0.0004256382235325873,0.000999669311568141,0.0012177352327853441
1783696405588638500,5.310638427734375,-0.0018644529627636075,-0.0014005675911903381,-0.00028893991839140654
1783696405606698000,5.328697998046875,0.0009547476074658334,0.0019509595585986972,-0.0005072588101029396
1783696405616661000,5.338660888671875,-0.00045566243352368474,-0.00021578825544565916,0.000392889603972435
1783696405626624000,5.3486240234375,-0.000579749932512641,-0.00016661174595355988,-0.001006659003905952
1783696405636587300,5.358587158203125,0.00006127290544100106,0.0004307352937757969,-0.00019732431974262
1783696405646551000,5.368551025390625,-0.000307526090182364,-0.0008074037032201886,-1.5099067240953445e-7
1783696405656514000,5.37851416015625,0.0003364262811373919,0.0007074024179019034,-0.0017530434997752309
1783696405666477300,5.388477294921875,0.0013168631121516228,0.0001526721753180027,0.0006649892311543226
1783696405676440000,5.398440185546875,-0.00016119127394631505,-0.0017783860675990582,0.00282241590321064
1783696405686403000,5.408403076171875,-0.0006572474958375096,-0.000024743378162384033,-0.001160013023763895
1783696405696366000,5.418365966796875,0.0002064156869892031,0.0005600867443718016,-0.00027424562722444534
1783696405706330000,5.428330078125,0.0008707002270966768,-0.00026679434813559055,-0.000007026479579508305
1783696405716293000,5.438293212890625,0.00138575560413301,0.002430455293506384,0.0012012496590614319
1783696405726256000,5.448256103515625,0.0017223218455910683,0.0015518127474933863,0.0008055964717641473
1783696405736219100,5.45821923828125,-0.000021782296244055033,-0.0016607583966106176,-0.001122798421420157
1783696405746182100,5.46818212890625,-0.0005131075158715248,0.0005270944675430655,0.0002769066486507654
1783696405756146200,5.478146240234375,-0.0004587790463119745,-0.0013520319480448961,0.0015267281560227275
1783696405766109200,5.488109130859375,0.00016535658505745232,-0.001132114906795323,3.864988684654236e-8
1783696405776072000,5.498072021484375,-0.0002996313269250095,0.0026833959855139256,0.0002442505210638046
1783696405786035000,5.508034912109375,0.001054567052051425,-0.00045521336141973734,-0.0014894758351147175
1783696405795998200,5.517998291015625,-0.0008871436584740877,-0.00007411499973386526,-0.0017627160996198654
1783696405805961200,5.527961181640625,-0.0004197753733024001,0.002756481757387519,0.0014780338387936354
1783696405815925200,5.53792529296875,-6.117625162005424e-8,-0.0020936671644449234,-0.00042452849447727203
1783696405825888300,5.54788818359375,0.0002587233320809901,-0.0006948754889890552,-0.00018282386008650064
1783696405835851300,5.557851318359375,-0.0011932321358472109,0.0019072992727160454,-0.0007125266129150987
1783696405845814300,5.567814208984375,0.0010124508989974856,-0.0023379488848149776,0.0014204989420250058
1783696405855777000,5.577777099609375,0.0017291076947003603,0.0010280204005539417,-0.0022221729159355164
1783696405865741000,5.587740966796875,-0.0011705311480909586,0.0011869564186781645,0.000052266521379351616
1783696405875704000,5.5977041015625,0.0008745102677494287,-0.0018218827899545431,-0.0011235191486775875
1783696405885667000,5.6076669921875,0.0009654075838625431,0.0016795503906905651,-0.0015336641808971763
1783696405895630000,5.617630126953125,0.0006586114759556949,0.0015495881671085954,0.0026371125131845474
1783696405905593000,5.627593017578125,0.0000760374532546848,-0.0018624968361109495,0.00008257187437266111
1783696405915556000,5.63755615234375,-0.0011623324826359749,0.0019018814200535417,-0.0005224983906373382
1783696405925520100,5.64752001953125,-0.0007252171635627747,0.0007596520590595901,0.00043982581701129675
1783696405935483100,5.657483154296875,0.00032806306262500584,-0.0009588856482878327,-0.0002917444799095392
1783696405946069000,5.668069091796875,-0.0016539108473807573,0.0019185786368325353,0.000010824878700077534
1783696405956032000,5.678031982421875,0.00006462700548581779,-0.0003634841414168477,0.00017487560398876667
1783696405965995000,5.6879951171875,-0.0013203391572460532,-0.0017699279123917222,0.001733887940645218
1783696405975958000,5.6979580078125,-0.0015256688930094242,0.001119601889513433,0.0001786018256098032
1783696405985921000,5.707921142578125,-0.0008689503883942962,0.00010418705642223358,-0.00032649864442646503
1783696405995885000,5.717885009765625,-0.00004656624514609575,-0.0011493628844618797,0.0003563358332030475
1783696406005848000,5.72784814453125,-0.0007113219471648335,0.002378209261223674,0.0005166472983546555
1783696406015811300,5.737811279296875,0.00006951685645617545,-0.0013129319995641708,-0.0004221169510856271
1783696406025774000,5.747774169921875,0.0005704328650608659,-0.002008722396567464,0.00036909925984218717
1783696406035737000,5.757737060546875,0.0010870861588045955,0.002750879153609276,-0.00012465077452361584
1783696406045700000,5.7677001953125,-0.00034734868677333,-0.00038537627551704645,0.00041996577056124806
1783696406055664000,5.7776640625,-0.001296232920140028,0.00015764229465276003,-0.0009427736513316631
1783696406065627100,5.787627197265625,0.0004955457989126444,-0.0004349451046437025,-0.00013697438407689333
1783696406075590100,5.797590087890625,-0.00022430659737437963,-0.0011018007062375546,0.0012121830368414521
1783696406085553200,5.80755322265625,0.0001946528791449964,-0.0009402557043358684,-0.0006776577793061733
1783696406095516200,5.81751611328125,-0.00003943899355363101,0.001506923115812242,-0.0008901780238375068
1783696406105480200,5.827480224609375,0.0008597492706030607,-0.0014056953368708491,-0.0019829031080007553
1783696406115443200,5.837443115234375,0.0004035497840959579,0.0009477402199991047,-0.0006252238526940346
1783696406125406000,5.847406005859375,-0.00019608833827078342,-0.0014101073611527681,0.0003376993117853999
1783696406135369000,5.857368896484375,0.00010804465273395181,-0.0016314159147441387,0.0007012208225205541
1783696406145332200,5.867332275390625,-0.0006384889129549265,0.00041275261901319027,-0.0011646096827462316
1783696406155296000,5.8772958984375,-0.00018575155991129577,0.0008082320564426482,0.0020250582601875067
1783696406165259000,5.887259033203125,0.0019998406060039997,-0.001802042592316866,0.001124655595049262
1783696406175222300,5.89722216796875,0.0012006261385977268,0.00048401474487036467,-0.0010868334211409092
1783696406185185300,5.907185302734375,-0.000617317040450871,0.0019867196679115295,-0.00026226695626974106
1783696406195148300,5.917148193359375,0.0011952302884310484,-0.00222986307926476,-0.0004974240437150002
1783696406205111000,5.927111083984375,-0.0007332980749197304,0.0010288802441209555,-0.0014513744972646236
1783696406215075000,5.937074951171875,0.0012086790520697832,0.00026375416200608015,0.0025026206858456135
1783696406225038000,5.9470380859375,0.0005420406814664602,-0.001595884095877409,0.0004497076151892543
1783696406235001000,5.9570009765625,-0.0010872812708839774,0.0012739382218569517,-0.00015030254144221544
1783696406244964000,5.966964111328125,0.00031045236391946673,-0.0005057153757661581,-0.00042314722668379545
1783696406254927000,5.976927001953125,0.00009207316907122731,-0.002269526943564415,0.00030842312844470143
1783696406264891100,5.98689111328125,0.0007542652892880142,0.000699124822858721,-0.0008981004357337952
1783696406274854100,5.996854248046875,-0.001379193039610982,-0.00013684143777936697,0.0005541213904507458
1783696406284817200,6.006817138671875,-0.00004257838008925319,-0.001738035585731268,-0.00032837758772075176
1783696406294780000,6.01677978515625,0.0019049912225455046,0.0006255198968574405,-0.00042158830910921097
1783696406304743200,6.0267431640625,0.0004039814230054617,-0.00151490094140172,0.0008554412052035332
1783696406314707000,6.03670703125,0.0014972090721130371,-0.0017021212261170149,-0.0013150351587682962
1783696406324670000,6.046669921875,0.0001810129324439913,0.0021977860014885664,-0.000630234950222075
1783696406334633200,6.05663330078125,0.00001776116550900042,-0.00007628719322383404,0.0011887040454894304
1783696406344596200,6.06659619140625,-0.0006978995515964925,-0.0006463112076744437,-0.00035895686596632004
1783696406354559200,6.076559326171875,-0.00015647889813408256,0.0023713165428489447,0.0005260115722194314
1783696406364523300,6.086523193359375,0.00042514849337749183,-0.0002269571414217353,0.0006528765079565346
1783696406374486300,6.096486328125,0.000339394697220996,-0.0004887459799647331,-0.0006946830544620752
1783696406384449000,6.106448974609375,-0.0003713369369506836,0.001320576760917902,0.0009867933113127947
1783696406394412000,6.116412109375,-0.0011529747862368822,-0.000678924610838294,0.0011460502864792943
1783696406404375000,6.126375,0.0005940489936619997,-0.0013484566006809473,-0.00192793901078403
1783696406414339000,6.136339111328125,-0.0001899856433738023,0.0003517055884003639,0.00019752990920096636
1783696406424302000,6.146302001953125,-0.0010673506185412407,-0.0025968546979129314,0.0016364286420866847
1783696406434265000,6.15626513671875,0.0000794065126683563,0.0013044101651757956,0.00025318271946161985
1783696406444228000,6.16622802734375,-0.00028249964816495776,0.001602604053914547,0.0008893449557945132
1783696406454191000,6.176191162109375,-0.00017916900105774403,-0.0018094379920512438,0.0013055970193818212
1783696406464155100,6.186155029296875,-0.0007475937018170953,0.0016065365634858608,-0.0008463965496048331
1783696406474118000,6.196117919921875,0.0013302045408636332,-0.0005572818918153644,0.0006513651460409164
1783696406484081200,6.2060810546875,0.0019484086660668254,-0.0024275779724121094,0.0019072780851274729
1783696406494044200,6.216044189453125,-0.0009541705367155373,0.0010704842861741781,-0.0008440336678177118
1783696406504007200,6.226007080078125,-0.0005104963202029467,-0.00010320940054953098,0.0017898832447826862
1783696406513971200,6.23597119140625,-0.0010194263886660337,-0.0022225528955459595,-0.0005070931510999799
1783696406523934200,6.245934326171875,0.0004451403219718486,-0.000763848889619112,0.0017658371943980455
1783696406533897200,6.255897216796875,0.0008217112626880407,-0.001198476878926158,0.0013522482477128506
1783696406543860200,6.265860107421875,0.0005783787928521633,-0.0015073238173499703,-0.0009642994264140725
1783696406553823000,6.275822998046875,-0.00023788008547853678,0.0007201441330835223,0.0008985816384665668
1783696406563786000,6.285785888671875,0.0007681204006075859,-0.00019195955246686935,0.0013990049483254552
1783696406573750000,6.29575,-0.000665459199808538,-0.001618614885956049,0.0011143130250275135
1783696406583713000,6.305713134765625,0.0011686370708048344,0.0013276287354528904,0.0003876503324136138
1783696406593676000,6.315676025390625,-0.00045455951476469636,-0.0014276776928454638,0.0025093909353017807
1783696406603638300,6.32563818359375,0.0002136061666533351,-0.003372176783159375,-0.00012584158685058355
1783696406613601300,6.335601318359375,-0.00022102172079030424,0.0009583893697708845,-0.0006006831536069512
1783696406623565300,6.3455654296875,0.00023159204283729196,-0.000909748487174511,0.0005442809779196978
1783696406633528300,6.3555283203125,-0.0005772099830210209,-0.0013973733875900507,-0.0013518898049369454
1783696406643491300,6.3654912109375,0.0001866906532086432,0.0021486771292984486,0.0007385144708678126
1783696406653454300,6.375454345703125,-0.001304679550230503,-0.001837276155129075,0.0002697980962693691
1783696406663417300,6.385417236328125,-0.0026373250875622034,-0.0016922268550843,-0.0011578024132177234
1783696406673381400,6.39538134765625,-0.0009033409878611565,0.0015339264646172523,0.00007204536814242601
1783696406683344400,6.405344482421875,-0.00015357593656517565,-0.0007600856479257345,0.000986049766652286
1783696406693307100,6.41530712890625,0.0000411011278629303,-0.00009243120439350605,0.0010771299712359905
1783696406703270100,6.425270263671875,-0.00036214024294167757,0.0015993666602298617,0.0008936127414926887
1783696406713233200,6.435233154296875,-0.000283044355455786,-0.002534658182412386,-0.0009777905652299523
1783696406723197200,6.445197265625,-0.000492450431920588,-0.0004462028155103326,-0.002071466762572527
1783696406733160200,6.45516015625,-0.0019513301085680723,0.0018265388207510114,0.0015259312931448221
1783696406743123200,6.465123291015625,0.00002943025901913643,-0.002405076287686825,-0.0003026308258995414
1783696406753086200,6.475086181640625,0.0007905616657808423,0.0006977725424803793,-0.0008618945721536875
1783696406763049500,6.485049560546875,0.0008295950246974826,0.0015603333013132215,0.000016700709238648415
1783696406773013200,6.49501318359375,-0.0005387371056713164,-0.001924945623613894,0.0014936898369342089
1783696406782976500,6.5049765625,0.0011506981682032347,-0.0007442221976816654,-0.0011299509787932038
1783696406792939300,6.514939208984375,-0.0006282933754846454,0.0017748618265613914,0.0022389476653188467
1783696406802902300,6.52490234375,-0.000572621007449925,-0.0027499578427523375,-0.000477179535664618
1783696406812865300,6.534865234375,-0.0009111088002100587,0.0015686244005337358,-0.0008465599967166781
1783696406822828300,6.544828369140625,0.0012241045478731394,0.0006926473579369485,0.0000031188828870654106
1783696406832792300,6.554792236328125,0.00104753696359694,0.000017535989172756672,0.0004891458083875477
1783696406842755300,6.56475537109375,0.0007903010118752718,0.002399720484390855,-0.002321959938853979
1783696406852718300,6.57471826171875,0.0013703374424949288,-0.001163588953204453,-0.00006945838686078787
1783696406862681300,6.584681396484375,-0.00042944232700392604,-0.0012535504065454006,-0.0005536475218832493
1783696406872644000,6.59464404296875,0.0006858895067125559,0.0011816441547125578,-0.00042395154014229774
1783696406882608000,6.604608154296875,0.00029375695157796144,-0.0011114615481346846,0.0006298191729001701
1783696406892571100,6.614571044921875,0.00006525771459564567,-0.002383920131251216,-0.000846371054649353
1783696406902534100,6.6245341796875,-0.00037229974986985326,-0.00022047129459679127,0.001982587855309248
1783696406912497400,6.634497314453125,-0.0009733751649037004,-0.0012508484069257975,0.001944504794664681
1783696406922460400,6.64446044921875,-0.0006394636584445834,-0.0014326937962323427,-0.0006073404802009463
1783696406932424200,6.654424072265625,0.00011634142720140517,0.0029197102412581444,0.0011274426942691207
1783696406942387500,6.664387451171875,0.0005333565641194582,-0.0010121609084308147,0.000898185302503407
1783696406952350500,6.6743505859375,-0.0005998185370117426,-0.0004779309965670109,-0.000851511606015265
1783696406962313200,6.684313232421875,-0.0003909002407453954,0.0025260758120566607,-0.0014482908882200718
1783696406972276200,6.694276123046875,0.00027169426903128624,-0.0005650552920997143,0.0011232574470341206
1783696406982240300,6.704240234375,0.00023479002993553877,0.00011541275307536125,0.00009274063631892204
1783696406992203300,6.714203369140625,0.0004598271334543824,0.0012416635872796178,-0.00033229985274374485
1783696407002166300,6.724166259765625,-0.00023634525132365525,-0.00011307175736874342,-0.0004543332615867257
1783696407012129300,6.73412939453125,-0.0006432762602344155,0.000010498915798962116,-0.0004117226926609874
1783696407022092300,6.74409228515625,-0.00013305967149790376,0.002946984488517046,0.0023736651055514812
1783696407032055300,6.75405517578125,0.0004906526301056147,-0.002916230820119381,0.00039813213516026735
1783696407042019300,6.764019287109375,0.000060989666962996125,0.0005194765981286764,-0.00034081272315233946
1783696407051982000,6.773982177734375,0.0006250471924431622,0.00007046759128570557,-0.0003370842896401882
1783696407061945000,6.783945068359375,0.00047390523832291365,-0.0003802586579695344,-0.0011353056179359555
1783696407071908400,6.793908447265625,-0.0005135948886163533,-0.00007372885011136532,-0.0008551409700885415
1783696407081871400,6.803871337890625,-0.0006007752381265163,-0.0005935445660725236,0.0005271013942547143
1783696407091835100,6.813835205078125,0.00007034133886918426,-0.00002336176112294197,-0.0006926263449713588
1783696407101798400,6.82379833984375,0.0011623082682490349,0.000009163282811641693,-0.0010009887628257275
1783696407111761400,6.833761474609375,0.002768460661172867,0.00011222751345485449,-0.0008308128453791142
1783696407121724400,6.843724365234375,0.0006893820827826858,-0.0023524994030594826,-0.0007710359059274197
1783696407131687200,6.853687255859375,-0.00026882326346822083,0.001229186076670885,0.0010031621204689145
1783696407141651500,6.8636513671875,-0.0001270795619348064,-0.0008620778098702431,0.0011804156238213181
1783696407151614200,6.8736142578125,-0.0005377390189096332,-0.0021177581511437893,-0.0004848589887842536
1783696407161577200,6.8835771484375,0.00016080256318673491,0.002059429883956909,0.00015001674182713032
1783696407171540200,6.893540283203125,0.000011132913641631603,-0.00012010103091597557,0.0007982301758602262
1783696407181503200,6.903503173828125,-0.0004366407520137727,-0.0024300189688801765,-0.0009924910264089704
1783696407191466200,6.91346630859375,-0.00029442794038914144,0.0013631213223561645,0.0007795763085596263
1783696407201430300,6.92343017578125,0.0016252920031547546,-0.0010182434925809503,0.0010056912433356047
1783696407211393300,6.933393310546875,0.00033046305179595947,-0.0009314244380220771,0.0004134041955694556
1783696407221356300,6.943356201171875,0.0006274475017562509,0.0003065544879063964,0.00015696627087891102
1783696407231319300,6.9533193359375,0.001315342029556632,-0.0009837470715865493,0.0006821416318416595
1783696407241282300,6.9632822265625,-0.0005695810541510582,0.00008142658043652773,0.00009601318743079901
1783696407251246300,6.973246337890625,-0.0004894199082627892,0.0018103508045896888,0.0012049534125253558
1783696407261209300,6.983209228515625,0.0007159982924349606,-0.0014119702391326427,-0.00044950959272682667
1783696407271172400,6.99317236328125,-0.0012590019032359123,0.00020004110410809517,-0.00008012913167476654
1783696407281135400,7.00313525390625,-0.00032719297450967133,0.0035677915439009666,0.001381517038680613
1783696407291098400,7.013098388671875,-0.00025768447085283697,-0.0027777226641774178,0.0007745826151221991
1783696407301062400,7.0230625,-0.0005658143199980259,-0.0018641346832737327,-0.001375808147713542
1783696407311025400,7.033025390625,-0.0004116172785870731,0.002745797159150243,-0.001342784846201539
1783696407320988200,7.04298828125,0.0006341902771964669,-0.002331521362066269,0.0013080246280878782
1783696407330951200,7.052951171875,-0.002603148343041539,0.000755348417442292,0.0006198638002388179
1783696407340914200,7.0629140625,0.00034315118682570755,0.002333305310457945,-0.00009668862912803888
1783696407350877200,7.072877197265625,0.0004624607681762427,-0.002725368831306696,0.0015800375258550048
1783696407360841200,7.08284130859375,-0.0002509613404981792,0.0025535065215080976,0.0010739684803411365
1783696407370804200,7.09280419921875,-0.0005625511985272169,0.0001673141960054636,0.00009445776231586933
1783696407380767200,7.102767333984375,-0.001088312710635364,-0.0016282836440950632,-0.0009268423309549689
1783696407390730500,7.11273046875,0.0006203714292496443,0.0013432714622467756,-0.0008799707284197211
1783696407400693200,7.122693359375,0.0001253622758667916,0.0002103581791743636,0.00019392685499042273
1783696407410657300,7.1326572265625,-0.0009516200516372919,-0.0012280151713639498,-0.0003000894794240594
1783696407420620300,7.142620361328125,0.00012754523777402937,-0.000022293301299214363,0.00001819734461605549
1783696407430583300,7.152583251953125,-0.00039470064803026617,-0.0009312302572652698,0.0007716056425124407
1783696407440546300,7.16254638671875,0.0010302237933501601,-0.001733305980451405,-0.0000735096400603652
1783696407450509300,7.17250927734375,0.000494395790155977,0.00048191146925091743,0.0007661849958822131
1783696407460472300,7.182472412109375,-0.0006388238398358226,-0.00035760633181780577,0.0012014859821647406
1783696407470436400,7.192436279296875,-0.00029554235516116023,-0.00126281485427171,-0.000522644491866231
1783696407480399400,7.2023994140625,0.00006370441406033933,0.0007971327286213636,-0.00009875150863081217
1783696407490362000,7.212362060546875,0.0010831623803824186,-0.0003762560663744807,0.0007832874543964863
1783696407500325000,7.2223251953125,-0.0006850160425528884,-0.0008548089535906911,-0.0009064493933692575
1783696407510288100,7.2322880859375,0.0002532156649976969,0.0022051630076020956,0.00005681603215634823
1783696407520252200,7.242252197265625,0.001554011134430766,-0.0013449926627799869,-0.00042533560190349817
1783696407530215200,7.252215087890625,-0.00026066688587889075,-0.0011319398181512952,-0.000671677989885211
1783696407540178200,7.26217822265625,-0.0002648664521984756,0.0023427195847034454,0.0014129291521385312
1783696407550141400,7.272141357421875,-0.00007391779217869043,-0.0007864948129281402,0.0008030652534216642
1783696407560104400,7.2821044921875,-0.00021791516337543726,0.00047182245180010796,-0.00123007339425385
1783696407570067200,7.292067138671875,0.0002484043361619115,0.002646293491125107,0.001506590866483748
1783696407580031500,7.302031494140625,0.0006691425223834813,-0.0020592468790709972,0.0008518553804606199
1783696407589994200,7.311994140625,-0.0003702891990542412,0.0014542614808306098,-0.0010152867762371898
1783696407599957200,7.321957275390625,-0.0005753195728175342,0.003407486714422703,0.0009570935508236289
1783696407609920500,7.33192041015625,0.00013414653949439526,-0.0018533216789364815,0.00045189191587269306
1783696407619883500,7.341883544921875,-0.0011696196161210537,0.0013251525815576315,-0.00045901001431047916
1783696407629846500,7.351846435546875,0.00044239184353500605,0.002513987710699439,0.0011577950790524483
1783696407639810600,7.361810546875,-0.0008996985852718353,-0.0003121603513136506,-0.001925538876093924
1783696407649773600,7.371773681640625,-0.00019262934802100062,0.0008849305449984968,-0.0013700035633519292
1783696407659736600,7.381736572265625,-0.0020498267840594053,0.001208532601594925,0.00011458445806056261
1783696407669699300,7.39169921875,0.0006375689408741891,-0.0013070893473923206,0.0005888933665119112
1783696407679662600,7.40166259765625,0.00006320214015431702,0.000535625615157187,-0.0006506956415250897
1783696407689626400,7.41162646484375,-0.0008065862348303199,0.00018169148825109005,-0.00005787599366158247
1783696407699589400,7.42158935546875,-0.0009555728756822646,-0.0011546257883310318,-0.00014616153202950954
1783696407709552600,7.431552734375,0.0009792136261239648,0.002186043420806527,-0.00006839726120233536
1783696407719515600,7.441515625,-0.000025644461857154965,0.0005872913170605898,0.0013465366791933775
1783696407729478700,7.451478759765625,0.0001597115769982338,-0.0024753441102802753,-0.001041253563016653
1783696407739441700,7.461441650390625,0.0010606641881167889,0.002029371913522482,-0.001672414829954505
1783696407749405700,7.47140576171875,-0.00014574780652765185,-0.0010742760496214032,-0.0005448323208838701
1783696407759368400,7.481368408203125,0.00045196650899015367,-0.00230925134383142,0.0005527311586774886
1783696407769331500,7.49133154296875,-0.0006210210849530995,0.0019155873451381922,0.0010544706601649523
1783696407779294500,7.50129443359375,-0.0002141861623385921,-0.00017165602184832096,0.000828583026304841
1783696407789257500,7.511257568359375,-0.0006618635379709303,-0.00014822010416537523,-0.0007184472633525729
1783696407799221500,7.521221435546875,0.0011750406119972467,0.0008029967430047691,0.0004945219843648374
1783696407809184500,7.5311845703125,0.0018727887654677033,-0.0017014399636536837,0.0010220941621810198
1783696407819147500,7.5411474609375,-0.0009269756264984608,-0.00030802423134446144,0.0011785629903897643
1783696407829110500,7.551110595703125,-0.0008255091961473227,-0.0003479716833680868,0.0005404695984907448
1783696407839073500,7.561073486328125,-0.0010483750374987721,-0.0014035323401913047,-0.00015442364383488894
1783696407849036500,7.57103662109375,-0.0013727480545639992,-0.0021992847323417664,0.0004413254791870713
1783696407859000300,7.581000244140625,-0.00110281677916646,0.0007019663462415338,0.0005624225013889372
1783696407868963600,7.590963623046875,0.0016900402260944247,-0.0013089865678921342,0.0007786712376400828
1783696407878926600,7.600926513671875,-0.0006951713003218174,0.000340241938829422,-0.0004505232209339738
1783696407888889600,7.6108896484375,-0.002089602407068014,0.0002707333769649267,0.000872801523655653
1783696407898852600,7.6208525390625,0.00036766304401680827,-0.0021027368493378162,0.000668623368255794
1783696407908815600,7.630815673828125,-0.0014992128126323223,0.00020675628911703825,-0.0013873371062800288
1783696407918779600,7.640779541015625,-0.0009794507641345263,0.0013462277129292488,0.00037128018448129296
1783696407928742700,7.65074267578125,-0.000779447378590703,-0.0025936525780707598,-0.0021936101838946342
1783696407938705400,7.660705322265625,-0.0005170067888684571,0.0019473216962069273,-0.0015362775884568691
1783696407948668400,7.67066845703125,0.0006513220141641796,0.003172908443957567,0.0004011720302514732
1783696407958631400,7.68063134765625,0.0005835415213368833,-0.0027029358316212893,0.0006876586703583598
1783696407968595500,7.690595458984375,0.002733511384576559,0.0006425269530154765,-0.001682554604485631
1783696407978558500,7.700558349609375,-0.00025591932353563607,-0.0006639747880399227,-0.0003869029460474849
1783696407988521500,7.710521484375,-0.000013837998267263174,-0.0020594713278114796,-0.0003525482024997473
1783696407998484700,7.720484619140625,-0.0014872249448671937,0.0008523244177922606,-0.0018073940882459283
1783696408008447700,7.73044775390625,0.0001815117138903588,0.0003207575064152479,0.00039663806091994047
1783696408018410500,7.740410400390625,-0.001203456544317305,-0.002467566169798374,-0.0006595108425244689
1783696408028374500,7.75037451171875,-0.000518757791724056,0.001376706757582724,0.00039083993760868907
1783696408038337500,7.760337646484375,0.0015921122394502163,0.00013260357081890106,0.0006426607724279165
1783696408048300500,7.770300537109375,-0.00040845436160452664,-0.0012426527682691813,-0.0008676177822053432
1783696408058263600,7.780263671875,-0.0004353888798505068,0.004130680114030838,0.0013876135926693678
1783696408068226600,7.7902265625,0.0006138965836726129,-0.0009591537527740002,0.0016310265054926276
1783696408078189600,7.800189453125,-0.0006618942716158926,-0.001998296007514,0.0005816435441374779
1783696408088153600,7.810153564453125,0.00045929651241749525,0.0016054934822022915,0.0007808479713276029
1783696408098116600,7.82011669921875,0.0009321116376668215,-0.0008305920055136085,0.0015270051080733538
1783696408108079400,7.830079345703125,0.0004974837647750974,-0.0016862655756995082,-0.001239486737176776
1783696408118042400,7.84004248046875,0.00015345163410529494,0.0005447185831144452,0.0015535269631072879
1783696408128005600,7.850005615234375,0.0007534618489444256,-0.0003013676032423973,-0.00039484165608882904
1783696408137969400,7.859969482421875,-0.0017344648949801922,-0.0005299991462379694,-0.0010937036713585258
1783696408147932400,7.869932373046875,-0.00002950918860733509,0.0009560446487739682,-0.0006913000252097845
1783696408157895700,7.879895751953125,0.0010809494415298104,-0.00030243408400565386,-0.0008828188292682171
1783696408167858700,7.889858642578125,0.0005925256991758943,0.0012603087816387415,-0.0013693782966583967
1783696408177821700,7.89982177734375,0.0006171753630042076,0.00044401257764548063,-0.0007339848671108484
1783696408187784400,7.909784423828125,0.0006411437643691897,-0.001227121101692319,0.001299072289839387
1783696408197748500,7.91974853515625,-0.000466260127723217,0.0022257522214204073,-0.002385948086157441
1783696408207711500,7.92971142578125,-0.00018795978394336998,-0.00020624639000743628,0.0015334259951487184
1783696408217674500,7.939674560546875,0.000431695458246395,-0.003042676718905568,0.0006890537333674729
1783696408227637500,7.949637451171875,-0.00040134132723324,0.0005094475345686078,0.000051226699724793434
1783696408237600500,7.9596005859375,-0.000058946607168763876,0.0013069254346191883,-0.0004058962222188711
1783696408247563500,7.9695634765625,-0.00016494041483383626,-0.0029605235904455185,0.000689461943693459
1783696408257527600,7.979527587890625,-0.001031797844916582,-0.00043674977496266365,0.00012660713400691748
1783696408267490600,7.989490478515625,-0.0010983769316226244,0.0007891032146289945,0.0010584471747279167
1783696408277453300,7.999453369140625,-0.0010397613514214754,-0.0033472152426838875,0.00047446059761568904
1783696408287416600,8.00941650390625,-0.00022270355839282274,-0.000020660576410591602,-0.0008091829949989915
1783696408297379600,8.019379638671875,-0.00017236101848538965,0.0005579650169238448,0.0005970072234049439
1783696408307342600,8.029342529296875,-0.0005744983209297061,-0.003336375579237938,0.00047396920854225755
1783696408317306600,8.039306640625,0.00035382999340072274,0.0023465603590011597,-0.00009641074575483799
1783696408327269600,8.04926953125,-0.000475478358566761,0.0012581264600157738,-0.0006823062431067228
1783696408337232600,8.059232666015625,0.0012568244710564613,-0.001732307835482061,-0.0017425292171537876
1783696408347195600,8.069195556640626,0.0003223211388103664,0.0013503009686246514,0.000017021200619637966
1783696408357158400,8.079158447265625,-0.0009176801540888846,-0.0020703207701444626,-0.0008636156562715769
1783696408367122400,8.089122314453125,-0.00019782772869803011,-0.001160584855824709,-0.0006106154760345817
1783696408377085400,8.09908544921875,0.00006464164471253753,0.003305781167000532,-0.00016946170944720507
1783696408387048400,8.10904833984375,-0.000784906733315438,-0.000029561808332800865,0.0005738265463151038
1783696408397011500,8.119011474609374,0.001671666745096445,-0.0005054289940744638,0.0007173738558776677
1783696408406974500,8.128974365234376,0.00039468100294470787,0.0023878291249275208,0.000560513639356941
1783696408416937500,8.1389375,-0.0019138840725645423,-0.00047853635624051094,-0.00021008949261158705
1783696408426901500,8.148901611328125,0.0007391569670289755,0.00008578738197684288,-0.0023510046303272247
1783696408436864500,8.158864501953126,-0.0016241874545812607,0.002582611981779337,0.000365792540833354
1783696408446827500,8.16882763671875,0.0013092844747006893,-0.0007862867787480354,0.00015993020497262478
1783696408456790500,8.17879052734375,0.0016852017724886537,0.0000764201395213604,0.002091069705784321
1783696408466753500,8.18875341796875,-0.0007036537863314152,0.0019619381055235863,-0.0009025896433740854
1783696408476716500,8.198716552734375,0.000030205963412299752,-0.001289274892769754,0.0011253831908106804
1783696408486680600,8.2086806640625,-0.0027541290037333965,-0.00021602085325866938,-0.0015292558819055557
1783696408496643600,8.2186435546875,0.0020319167524576187,0.0014122611610218883,-0.00026592565700411797
1783696408506606600,8.228606689453125,0.0001479964703321457,-0.0007528888527303934,0.0005503332358784974
1783696408516569600,8.238569580078124,0.0006641190848313272,0.0010738091077655554,-0.00024234468583017588
1783696408526532400,8.248532470703125,0.0010153900366276503,0.001295384019613266,0.000935305084567517
1783696408536495400,8.258495361328125,-0.00047179224202409387,-0.0019058656180277467,0.0002160122967325151
1783696408546459400,8.26845947265625,-0.00021879194537177682,-0.0001982466783374548,0.0002439754898659885
1783696408556422400,8.27842236328125,0.0017007129499688745,0.0007990119629539549,0.0010858544846996665
1783696408566385400,8.288385498046875,-0.00023513881023973227,-0.001798102748580277,-0.0019821072928607464
1783696408576348400,8.298348388671876,-0.00027123786276206374,0.0005393982864916325,-0.0009710997110232711
1783696408586311700,8.308311767578125,-0.000007318594725802541,-0.001345320837572217,0.0005730011616833508
1783696408596274700,8.318274658203125,0.0002972775837406516,-0.0011395402252674103,-0.0009596861200407147
1783696408606239000,8.328239013671874,-0.000030024908483028412,0.0013177584623917937,-0.00007604935672134161
1783696408616202200,8.3382021484375,-0.0001487052795710042,0.000671758025418967,-0.0009138206951320171
1783696408626165200,8.348165283203125,-0.00010982312960550189,-0.0006630183197557926,0.0005764841916970909
1783696408636128300,8.358128173828124,-0.0014788511907681823,0.001915463013574481,0.0008265153737738729
1783696408646091300,8.36809130859375,-0.0008143925806507468,0.0008869501180015504,-0.0005218430887907743
1783696408656054300,8.37805419921875,-0.0001365525822620839,-0.0012753695482388139,-0.0003488637739792466
1783696408666018300,8.388018310546874,-0.00077198282815516,0.0004769904771819711,-0.0004095837939530611
1783696408675981000,8.39798095703125,-0.001285840873606503,-0.002115377224981785,0.0014031308237463236
1783696408685944000,8.407944091796875,0.0008928911993280053,-0.00047859863843768835,-0.00066055275965482
1783696408695907000,8.417906982421876,0.0008803065284155309,0.0024389810860157013,0.0003887538332492113
1783696408705870000,8.4278701171875,-0.0010289136553183198,-0.00024095794651657343,0.0021019652485847473
1783696408715833000,8.4378330078125,0.00006928082439117134,-0.00106873270124197,-0.00039774447213858366
1783696408725797000,8.447797119140626,0.001045861979946494,0.0015539483865723014,0.00033622264163568616
1783696408735760100,8.457760009765625,0.0005916563095524907,-0.00044895766768604517,-0.0007994151674211025
1783696408745723100,8.46772314453125,-0.00006907395436428487,0.00039872643537819386,-0.00009234598837792873
1783696408755686100,8.47768603515625,-0.0001380271278321743,0.0014671647222712636,-0.00010365876369178295
1783696408765649200,8.487649169921875,0.00007795525016263127,-0.001051120343618095,0.001909957267343998
1783696408775612200,8.497612060546874,-0.0006833047373220325,0.0007306898478418589,-0.0007456461898982525
1783696408785576200,8.507576171875,0.00000831816578283906,0.0009056595154106617,0.0005846027052029967
1783696408795539200,8.517539306640625,0.00033432955387979746,-0.002990339882671833,-0.0003344360738992691
1783696408805502200,8.527502197265624,-0.0002776648325379938,-0.0006132022244855762,-0.0004494846798479557
1783696408815465200,8.53746533203125,-0.00038259165012277663,0.00045050319749861956,-0.0012405231827870011
1783696408825428200,8.54742822265625,0.000299177598208189,-0.001407317933626473,-0.0004224000731483102
1783696408835391000,8.557390869140624,-0.0016181196551769972,0.000323051237501204,-0.0006810268387198448
1783696408845355300,8.567355224609376,-0.001932638930156827,-0.000685487873852253,0.0012428407790139318
1783696408855318000,8.577318115234375,-0.0002742848009802401,-0.0016048203688114882,0.0006778771057724953
1783696408865281000,8.587281005859374,0.0002780547656584531,0.0007052056025713682,-0.0014025842538103461
1783696408875244000,8.597244140625,0.00019115186296403408,0.002056862460449338,-0.00019256421364843845
1783696408885207300,8.607207275390625,-0.001516200602054596,-0.0014031165046617389,0.00028414162807166576
1783696408895170300,8.61717041015625,-0.00018128125520888716,0.00009054981637746096,0.0006161993369460106
1783696408905134000,8.627134033203125,-0.0001756886049406603,-0.0006809678161516786,0.0008545522578060627
1783696408915097300,8.637097412109375,-0.0005390414735302329,-0.003171405289322138,-0.00021385319996625185
1783696408925060400,8.647060302734374,0.0005006566643714905,0.0014542393619194627,0.0002521999995224178
1783696408935023000,8.657023193359375,-0.0012653585290536284,-0.00035503553226590157,-0.00001879665069282055
1783696408944986000,8.666986083984375,-0.00030741948285140097,-0.0015883453888818622,0.0009471318917348981
1783696408954949000,8.67694921875,-0.0018992580007761717,0.0032089974265545607,0.0015324819833040237
1783696408964913200,8.6869130859375,-0.0011093644425272942,0.0002355780452489853,0.000015279045328497887
1783696408974876200,8.696876220703125,-0.00026965796132571995,-0.0010929136769846082,-0.0005736638559028506
1783696408984839200,8.706839111328126,0.000684020051266998,0.001311121741309762,0.002064197091385722
1783696408994802200,8.71680224609375,-0.000052945310017094016,-0.0015781016554683447,0.0019350145012140274
1783696409004765200,8.72676513671875,-0.000705952406860888,-0.0007021881174296141,-0.00021016178652644157
1783696409014728200,8.736728271484376,0.0002469171304255724,0.001524958643130958,0.000009622308425605297
1783696409024692000,8.74669189453125,-0.0004729352949652821,-0.0010862706694751978,0.0020192437805235386
1783696409034655000,8.756655029296875,-0.000915856973733753,-0.0004966146079823375,0.00032670609652996063
1783696409044618200,8.7666181640625,-0.0008151895017363131,0.00307068950496614,-0.00031564838718622923
1783696409054581200,8.776581298828125,0.00015270913718268275,-0.0024122479371726513,0.0022463230416178703
1783696409064544300,8.786544189453124,-0.0005868506850674748,0.000216558575630188,0.0007179349777288735
1783696409074507300,8.79650732421875,0.0002124893944710493,-0.00022028503008186817,0.00020223867613822222
1783696409084471300,8.80647119140625,0.0000777334498707205,-0.0011827514972537756,0.0005282095517031848
1783696409094434300,8.816434326171875,0.0007147270953282714,0.0002927051391452551,-0.0005062230629846454
1783696409104397000,8.82639697265625,-0.0013247216120362282,0.0016706245951354504,0.000010430230759084225
1783696409114360000,8.836360107421875,0.000990967731922865,-0.0014006911078467965,0.000768448633607477
1783696409124323000,8.846322998046874,0.0015422420110553503,0.0002840246306732297,0.0006616558530367911
1783696409134286000,8.8562861328125,-0.0005409478908404708,0.0002057438250631094,-0.00043399876449257135
1783696409144250000,8.86625,0.00010327078052796423,-0.0018227859400212765,-0.0003354618092998862
1783696409154213000,8.876213134765624,-0.0016748022753745317,0.00118076684884727,-0.0013948985142633319
1783696409164176100,8.886176025390625,0.0007300322176888585,0.0010039329063147306,0.00012496765702962875
1783696409174139100,8.89613916015625,0.0010313114617019892,-0.0018429540796205401,0.00019265885930508375
1783696409184102100,8.90610205078125,-0.0006307674339041114,0.0010313957463949919,-0.0007450401317328215
1783696409194065200,8.916065185546875,-0.000833544647321105,0.0014079420361667871,0.0006633573793806136
1783696409204029200,8.926029296875,0.00016780398436821997,-0.0018669471610337496,-0.000012552947737276554
1783696409213992200,8.9359921875,0.0007774687255732715,0.002388301072642207,0.00003726629074662924
1783696409223955200,8.945955078125,-0.0006561108748428524,0.0012175755109637976,-0.0008346528047695756
1783696409233918200,8.955918212890625,-0.0013253508368507028,-0.001971750520169735,-0.0010318681597709656
1783696409243881200,8.965881103515626,0.0019729742780327797,0.002036307007074356,-0.0003599525662139058
1783696409253844200,8.97584423828125,-0.00030700411298312247,-0.001684557064436376,-0.0002073935465887189
1783696409263808300,8.985808349609375,0.00010418795864097774,-0.0005154291866347194,-0.0007456183666363358
1783696409273771000,8.99577099609375,0.00013391260290518403,0.0024482011795043945,0.00023251131642609835
1783696409283734000,9.005734130859375,0.0008649502997286618,-0.0019297691760584712,0.00018377549713477492
1783696409293697000,9.015697021484375,-0.0005390470614656806,-0.0012304257834330201,-0.001141875283792615
1783696409303660000,9.025659912109376,0.0005240868194960058,0.002045262372121215,-0.0002398625947535038
1783696409313623300,9.035623291015625,-0.0007483648369088769,-0.001588998711667955,0.0008126593893393874
1783696409323587000,9.045587158203125,-0.0007259942940436304,-0.0011314676376059651,-0.00017430807929486036
1783696409333550300,9.05555029296875,-0.0009072475368157029,0.0006211969302967191,-0.000316586927510798
1783696409343513300,9.065513427734375,0.0006522996700368822,-0.00022222613915801048,-0.000453739776276052
1783696409353476000,9.07547607421875,-0.0009978199377655983,-0.0001559867523610592,-0.0016871418338268995
1783696409363439000,9.085439208984376,-0.001616206020116806,0.0015415120869874954,-0.0016328133642673492
1783696409373402000,9.095402099609375,0.0005779492203146219,-0.0015074241673573852,0.0001921836519613862
1783696409383366100,9.1053662109375,-0.0008596251718699932,0.0005591888912022114,-0.0002781306393444538
1783696409393329200,9.1153291015625,-0.00046926617505960166,0.0016028613317757845,-0.0007519465871155262
1783696409403292200,9.125292236328125,-0.0017603666055947542,-0.003414267674088478,-0.00013435946311801672
1783696409413255200,9.135255126953124,0.00008649984374642372,0.0010100043145939708,-0.0013659702381119132
1783696409423218200,9.14521826171875,-0.0003907386271748692,0.001930392812937498,-0.000499643967486918
1783696409433181000,9.155180908203125,0.00007172697223722935,-0.003094220068305731,-0.0007999514928087592
1783696409443145000,9.16514501953125,0.0008741373894736171,0.0006376674864441156,0.00003148731775581837
1783696409453108000,9.17510791015625,-0.00011410161096137017,0.00021148240193724632,0.0011079948162660003
1783696409463071200,9.1850712890625,-0.0007671086932532489,-0.002105467487126589,-0.0005785850808024406
1783696409473034200,9.1950341796875,0.0017319782637059689,0.0013103907695040107,-0.001475519617088139
1783696409482997200,9.204997314453125,-0.000968733336776495,-0.0008699391037225723,0.002261960646137595
1783696409492960300,9.214960205078125,-0.00046004686737433076,-0.0017780830385163426,-0.00040885608177632093
1783696409502923300,9.22492333984375,-0.0006014606915414333,0.0006866726325824857,-0.00012842519208788872
1783696409512887300,9.23488720703125,0.0007203054265119135,-0.0015582740306854248,-0.0003728768788278103
1783696409522850000,9.24485009765625,0.0006577211315743625,0.00030327565036714077,-0.00023279455490410328
1783696409532813000,9.25481298828125,0.0003764186112675816,0.003527812659740448,-0.0015642751241102815
1783696409542776000,9.264776123046875,0.0003950607788283378,-0.00045814039185643196,-0.0007062045624479651
1783696409552739000,9.274739013671875,-0.001192575553432107,-0.0008547530742362142,-0.0010995891643688083
1783696409562702000,9.2847021484375,0.0009794984944164753,0.0015221182256937027,0.00046821380965411663
1783696409572666000,9.294666015625,0.000544545822776854,0.00020004273392260075,0.0006341906264424324
1783696409582629000,9.304629150390625,-0.00021738455689046532,-0.0010985146509483457,-0.0015336225042119622
1783696409596951300,9.318951416015626,0.0015961471945047379,0.0018006187165156007,0.0005528696929104626
1783696409606914000,9.3289140625,-0.00015942582103889436,-0.0016692728968337178,-0.00015151407569646835
1783696409616876500,9.33887646484375,-0.0010212247725576162,0.0008527406025677919,-0.0007528557907789946
1783696409626839300,9.34883935546875,-0.0008704073261469603,0.00032762542832642794,0.00020238698925822973
1783696409636803300,9.35880322265625,0.0013594573829323053,-0.0012814565561711788,-0.0005992244696244597
1783696409646766300,9.368766357421874,0.00045944517478346825,0.00030242418870329857,0.0007697885157540441
1783696409656729300,9.378729248046875,-0.0007080846698954701,-0.0014190430520102382,0.002034790115430951
1783696409666692600,9.388692626953125,-0.0013132898602634668,-0.0012375767109915614,0.0010647574672475457
1783696409676655600,9.398655517578124,-0.0014810690190643072,0.0021113483235239983,-0.0011046535801142454
1783696409686618600,9.40861865234375,-0.00021542274043895304,-0.0012704081600531936,0.001635142252780497
1783696409696582700,9.418582763671875,0.001544127706438303,-0.0008858476066961884,0.0009365951409563422
1783696409706545700,9.428545654296874,-0.0027747598942369223,0.0022419949527829885,-0.00012672529555857182
1783696409716508400,9.43850830078125,-0.0010223998688161373,-0.0002581806620582938,0.0013273607473820448
1783696409726471400,9.448471435546875,-0.0007890204433351755,-0.001930887927301228,0.000007987255230545998
1783696409736434400,9.458434326171876,0.000044016342144459486,0.00116343901026994,0.0005211784155108035
1783696409746397400,9.4683974609375,-0.00009152566781267524,0.0002093679504469037,-0.00022441521286964417
1783696409756360400,9.4783603515625,-0.0004422639904078096,-0.002462049014866352,-0.00017381517682224512
1783696409766324500,9.488324462890626,-0.000010208605090156198,0.0018943106988444924,0.0009645259706303477
1783696409776287500,9.49828759765625,-0.00013324666360858828,-0.0011368993436917663,0.001313400105573237
1783696409786250500,9.50825048828125,0.00011496248771436512,-0.000233967206440866,-0.000750628998503089
1783696409796213500,9.518213623046876,-0.0005540235433727503,0.0014102683635428548,-0.0010347883217036724
1783696409806176500,9.528176513671875,-0.0007684896700084209,-0.003313036635518074,0.0017325766384601593
1783696409816139500,9.538139404296874,-0.0020824933890253305,0.0003930183593183756,-0.0007529514841735363
1783696409826103600,9.548103515625,0.00042929983465000987,0.0010505637619644403,-0.00023823464289307594
1783696409836066600,9.558066650390625,-0.0006242466624826193,-0.0013758422574028373,0.00015937525313347578
1783696409846029600,9.568029541015624,-0.0003210685099475086,-0.001349339378066361,-0.0016929252305999398
1783696409855992600,9.57799267578125,-0.0014963215216994286,0.002312240656465292,-0.0006721356185153127
1783696409865955600,9.58795556640625,0.0016087086405605078,-0.002157495589926839,0.0014111975906416774
1783696409875918300,9.59791845703125,-0.002000140957534313,0.0021925116889178753,0.000809323217254132
1783696409885882400,9.60788232421875,-0.000048415735363960266,0.00186535541433841,0.00021850643679499626
1783696409895845400,9.617845458984375,0.0004543891118373722,-0.0018582763150334358,0.0004850888508372009
1783696409905808400,9.627808349609374,-0.0006108934758231044,0.0019646906293928623,-0.00016466761007905006
1783696409916393500,9.6383935546875,0.0010754200629889965,0.0011257948353886604,-0.00011460017412900925
1783696409926357500,9.648357421875,0.0010964591056108475,-0.001481706160120666,0.0015296355122700334
1783696409936320500,9.658320556640625,-0.0010111377341672778,0.0010008851531893015,-0.00026631332002580166
1783696409946283500,9.668283447265624,0.0008197855204343796,0.0005721162306144834,0.0013832486001774669
1783696409956246300,9.678246337890625,-0.0006990910042077303,-0.0009295521304011345,-0.0005070166662335396
1783696409966209500,9.68820947265625,0.001583504257723689,0.0024151119869202375,0.0009132471168413758
1783696409976172500,9.698172607421874,0.00010083350935019553,-0.0011683437041938305,0.001274560228921473
1783696409986136300,9.70813623046875,0.0004545013071037829,-0.0004913683515042067,-0.001905786688439548
1783696409996099600,9.718099609375,0.00019264433649368584,0.0018309663282707334,-0.0001552541507408023
1783696410006062600,9.7280625,0.00017506748554296792,-0.00116002990398556,-0.00018614681903272867
1783696410016025600,9.738025634765625,-0.0009015151299536228,-0.0016033460851758718,-0.0007528598653152585
1783696410025988600,9.747988525390625,0.0005160854198038578,0.001935994834639132,-0.0016857649898156524
1783696410035951400,9.757951416015626,0.0006222715601325035,-0.0009829543996602297,-0.0009192563593387604
1783696410045915600,9.76791552734375,0.00018977417494170368,0.0008607519557699561,0.0010389660019427538
1783696410055878400,9.77787841796875,0.000672095047775656,0.0036404768470674753,0.00022493302822113037
1783696410065841400,9.78784130859375,-0.0010898523032665253,-0.0014379050116986036,-0.00034524977672845125
1783696410075804400,9.797804443359375,0.00024277297779917717,-0.000037113786675035954,-0.0010958492057397962
1783696410085767400,9.807767333984375,0.00009390228660777211,0.0019520012428984046,-0.0005136821419000626
1783696410095730400,9.81773046875,-0.0016790200024843216,-0.0013514761812984943,-0.0006256498163565993
1783696410105693700,9.827693603515625,-0.0019229655154049397,-0.0015072710812091827,-0.0009383048163726926
1783696410115657500,9.837657470703125,-0.00046577228931710124,0.002145548351109028,0.0009559188038110733
1783696410125620500,9.847620361328126,-0.0006873472593724728,-0.0027293681632727385,0.0011564547894522548
1783696410135583500,9.85758349609375,-0.0010425143409520388,0.0002414458431303501,-0.001548917149193585
1783696410145546500,9.86754638671875,0.000799061672296375,0.0013668977189809084,-0.00032093364279717207
1783696410155509500,9.877509521484376,-0.0005786677356809378,-0.002340924460440874,-0.0005935940425843
1783696410165473500,9.8874736328125,-0.00016774202231317759,0.0015219907509163022,0.00003224879037588835
1783696410175436500,9.8974365234375,0.0002929058682639152,0.002401734236627817,-0.0005181862507015467
1783696410185399600,9.907399658203126,-0.0017555976519361138,-0.0005668912781402469,-0.00035253772512078285
1783696410195362600,9.917362548828125,-0.0002724261430557817,0.002233394654467702,-0.0015439033741131425
1783696410205325600,9.92732568359375,0.0007654077489860356,0.0021391187328845263,0.000638290832284838
1783696410215288300,9.937288330078125,-0.0001974684710148722,-0.0009924611076712608,0.00011452299077063799
1783696410225251300,9.947251220703125,0.0018465076573193073,0.0017697695875540376,-0.00024260696955025196
1783696410235215400,9.95721533203125,-0.0002718504110816866,0.0009561709011904895,0.0018108307849615812
1783696410245178400,9.967178466796875,-0.0014098191168159246,-0.0011796841863542795,-0.00012608617544174194
1783696410255141400,9.977141357421875,-0.0010317742126062512,0.0012062430614605546,-0.0008304658113047481
1783696410265104600,9.987104736328124,-0.0015087464125826955,0.022578377276659012,0.02070731669664383
1783696410275067600,9.997067626953125,-0.0029486145358532667,0.1343032568693161,0.1471327245235443
1783696410285030700,10.00703076171875,-0.006236286833882332,0.12011713534593582,0.13406912982463837
1783696410294994700,10.01699462890625,-0.002734410809352994,0.020946158096194267,0.05323871597647667
1783696410304957400,10.02695751953125,-0.00030134679400362074,-0.039489489048719406,-0.0318404920399189
1783696410314920400,10.03692041015625,0.0022127721458673477,-0.03373989090323448,-0.05714716762304306
1783696410324883500,10.046883544921876,0.005031728185713291,-0.023052627220749855,-0.06806479394435883
1783696410334846500,10.056846435546875,0.0036586113274097443,-0.05951767787337303,-0.08977753669023514
1783696410344809500,10.0668095703125,0.0013187581207603216,-0.09244686365127563,-0.08293401449918747
1783696410354773500,10.0767734375,0.001972631784155965,-0.06365164369344711,-0.029049240052700043
1783696410364736500,10.086736572265625,-0.0016431419644504786,0.03283840790390968,0.028391150757670403
