time,seconds_elapsed,z,y,x
1783696411136712400,0.06271240234375,-0.15004910717010497,0.005729081703908741,-0.011302826715633273
1783696411146675700,0.07267578125,-0.23167057480216025,0.04108355940803885,-0.10378328628595918
1783696411156638700,0.082638671875,0.03528407934904098,0.010535203344002365,0.014687756446190178
1783696411166601500,0.0926015625,0.1559726520001888,-0.03966273282468319,0.08843158603832126
1783696411176564500,0.102564453125,-0.04843114569187164,0.014913783754408359,-0.022566782725602388
1783696411186528500,0.112528564453125,-0.21358546753525734,0.019822196725197135,-0.07167904254943132
1783696411196491500,0.122491455078125,-0.05273205775618553,-0.011099120837077498,0.02470101827532053
1783696411206454500,0.13245458984375,0.1115448967307806,-0.020852964545041323,0.03980152024086565
1783696411216417500,0.14241748046875,-0.022215923461318014,-0.0016824731942266225,-0.016341186209022997
1783696411226380500,0.152380615234375,-0.13952245245873926,0.008544942842237651,-0.03433726348560303
1783696411236343600,0.162343505859375,-0.038671968221664424,-0.004891315705515444,0.01672371925320476
1783696411246307600,0.1723076171875,0.04139291761815548,-0.027403664830140766,0.028704481763020154
1783696411256270300,0.182270263671875,-0.026827801170945166,0.003238908855989575,-0.04306530780978501
1783696411266233300,0.1922333984375,-0.06574293049871921,0.02498524204418063,-0.02731050665397197
1783696411276196400,0.2021962890625,-0.011888006192445755,-0.0123190180208534,0.029112770302966235
1783696411286159600,0.21215966796875,0.007120061138272285,-0.02101363499946892,0.0025014248942956327
1783696411296122600,0.22212255859375,-0.05974632043242454,0.007312843764014542,-0.031970753549970685
1783696411306086700,0.232086669921875,-0.06364858856797218,0.009852189515903591,0.008198650155216454
1783696411316049700,0.242049560546875,0.012498247045278549,-0.012710939947888255,0.02382171469014138
1783696411326012700,0.2520126953125,-0.009027940586209296,-0.0071741659456863996,0.0029959304129704833
1783696411335975400,0.261975341796875,-0.08653262054920197,0.026665157955139875,-0.025119572480954228
1783696411345938400,0.2719384765625,-0.05632452929019928,0.004944141871295869,0.001532945188321173
1783696411355901400,0.2819013671875,0.020441315004229545,-0.009919665261544287,0.025687106703221798
1783696411365864400,0.291864501953125,-0.02533668583035469,-0.01248272068258375,0.01003054175749421
1783696411375828500,0.301828369140625,-0.07592471729516982,0.001878799483925104,-0.019383220786042512
1783696411385791500,0.31179150390625,-0.04420096077620983,0.003317636648006737,0.00742543729301542
1783696411395754500,0.32175439453125,0.010120996519923209,-0.022032639316283166,0.021355397641845048
1783696411405717500,0.331717529296875,-0.017569558960199357,-0.007680471500009298,-0.010889204413443803
1783696411415680500,0.341680419921875,-0.04465513428449631,0.009516747016459702,-0.004781973579525947
1783696411425643500,0.3516435546875,-0.04331307202577591,-0.004111490439437329,0.004294409258291125
1783696411435607600,0.361607666015625,0.0068231240183115,-0.01340564421378076,-0.01166829902715981
1783696411445570600,0.371570556640625,-0.026832477346062658,0.002369505610316992,0.01246423517782241
1783696411455533600,0.381533447265625,-0.06589782879948615,-0.007668707996979355,0.009842581437341869
1783696411465496600,0.39149658203125,-0.01861643766462803,0.0003198796041309833,0.001049655183404684
1783696411475459600,0.40145947265625,-0.00573649782538414,-0.00777918263413012,-0.00817011818047613
1783696411485422600,0.411422607421875,-0.04599076680243015,-0.010644582002609967,0.0002747618207708001
1783696411495386600,0.42138671875,-0.04330138158798218,0.012666297088563441,0.005790054643526673
1783696411505349400,0.431349365234375,-0.017105448579788206,0.0033476664600893854,-0.008343392388150095
1783696411515312400,0.4413125,-0.012763619983196257,-0.01343636814560741,-0.000551642533391714
1783696411525275400,0.451275390625,-0.022792262044548987,0.006208572316542267,-0.005759915233589708
1783696411535238400,0.46123828125,-0.04538637116849422,0.014404044133983551,-0.004153028026223182
1783696411545201700,0.47120166015625,-0.022041151416301728,-0.004929748019762337,0.00003719020523130893
1783696411555164700,0.48116455078125,-0.011558920368552206,-0.007820208764262497,-0.008011420487426221
1783696411565128400,0.49112841796875,-0.048671968710422515,0.011189977458305656,0.009690313485078513
1783696411575091700,0.501091796875,-0.025186463704705238,0.002449329380877316,-0.006076251173764467
1783696411585054500,0.511054443359375,-0.005140285497903824,0.0019935484373942015,-0.008762056191638112
1783696411595017500,0.521017578125,-0.02235387062728405,-0.011087613062374293,0.009975633232481776
1783696411604980500,0.53098046875,-0.029544658914208412,0.007552789999730885,-0.012814436854980885
1783696411614943000,0.54094287109375,-0.02699497443139553,0.006048888242803514,-0.004732179621048271
1783696411624907000,0.550906982421875,-0.02295417460799217,-0.013068813474848865,-0.0005932897180318832
1783696411634870000,0.5608701171875,-0.03029752310812473,0.0009469254612922668,0.008255677572079002
1783696411644833000,0.5708330078125,-0.029546997001767158,0.0036742680659517645,-0.005615757522545755
1783696411654795800,0.580795654296875,-0.03223872030377388,-0.00450838080253452,0.009676284959726035
1783696411664759000,0.590759033203125,-0.013536942443251609,0.003888166544958949,-0.00432414680942893
1783696411674722000,0.60072216796875,-0.019071780216693878,0.011373152005486189,0.00011668518222868442
1783696411684685000,0.61068505859375,-0.05453823039531708,-0.010618497713282703,-0.008243475677631795
1783696411694649000,0.620649169921875,-0.03164601510763168,0.007265826284512877,-0.001807780074328184
1783696411704612000,0.630612060546875,-0.01099018056988716,0.0011557093737646937,0.013003456621058285
1783696411714575000,0.6405751953125,-0.0352396556854248,0.004262698945775628,-0.006217084416560829
1783696411724538000,0.6505380859375,-0.030158406898379325,0.003289579597301781,-0.02888462410289794
1783696411734500900,0.6605009765625,-0.018930325919389722,0.008385258768498898,0.003729541917145252
1783696411744464000,0.6704638671875,-0.03718786714375019,-0.013468480316922068,0.013065635137073695
1783696411754428000,0.680427978515625,-0.016241525226831435,0.007487871537357568,0.0022161782121285795
1783696411764391000,0.690390869140625,-0.020725392642617226,0.0028243001731112598,-0.0044847076660022136
1783696411774354000,0.70035400390625,-0.03269464737772941,-0.0044243192482739686,-0.007734722437895834
1783696411784317000,0.71031689453125,-0.03120294751524925,-0.0005145984586328268,-0.003448313822969794
1783696411794280000,0.720280029296875,-0.03568681493103504,0.005205569286458194,0.008187836500257253
1783696411804243200,0.7302431640625,-0.04541968891620636,-0.01083699930217117,-0.00868555688932538
1783696411814207000,0.74020703125,-0.018931494963169097,0.007189253916963934,-0.008495221948996186
1783696411824170000,0.750169921875,-0.03448854505717754,0.013669044390320777,0.010453333746828138
1783696411834133000,0.760133056640625,-0.03912731077373027,-0.011619527981989085,-0.000918722280114889
1783696411844096000,0.770095947265625,-0.006208206990361213,-0.0013210925359278917,-0.009234386411122977
1783696411854059000,0.78005908203125,-0.035836452534794803,-0.0010333981683477759,-0.0015879998438060282
1783696411864022000,0.79002197265625,-0.03583586801290512,-0.01349259184487164,0.0005392945084720849
1783696411873985000,0.799985107421875,-0.019075871869921684,0.01001939930897206,0.0025825273064896464
1783696411883949000,0.809948974609375,-0.025060206976532936,-0.00028042437657713887,0.009850983939506112
1783696411893912000,0.819912109375,-0.022965280523896216,-0.00686436934415251,-0.010490487419441342
1783696411903874800,0.829874755859375,-0.018769582399725912,0.0020510873109102247,-0.007887392248958349
1783696411913837800,0.839837890625,-0.0421153866738081,0.007384411162883043,0.006729198657162487
1783696411923800800,0.84980078125,-0.03987725235819816,0.0010246668726205826,-0.005767221757210791
1783696411933764000,0.85976416015625,-0.009206219762563705,0.01320844114124775,0.011638999867439269
1783696411943727900,0.869727783203125,-0.028214287093281745,-2.922609448432922e-7,0.008472937051951885
1783696411953691000,0.87969091796875,-0.04662380400896072,0.007025112863816321,-0.010544117302820085
1783696411963654100,0.889654052734375,-0.0362941331744194,0.011415127983689308,-0.010259491675160824
1783696411973617200,0.8996171875,-0.033002105891704554,-0.006522460571303963,-0.0045886429645121095
1783696411983580000,0.909579833984375,-0.02297814000546932,-0.004625358245708048,-0.005235927892103791
1783696411993543000,0.91954296875,-0.01818330694437027,0.0009173705732449888,-0.004069441395998001
1783696412003506000,0.929505859375,-0.04556991104185581,-0.005599975431524217,0.012531345597282051
1783696412013470000,0.939469970703125,-0.022972294786572454,0.003142755005136132,0.0030103607971221206
1783696412023433000,0.949432861328125,-0.017573066091537474,-0.001569952730461955,-0.007123458671756088
1783696412033396000,0.95939599609375,-0.025052023670077323,-0.0020793635573238133,0.00022317776400595902
1783696412043359000,0.96935888671875,-0.02565291217267513,0.01107847990784794,-0.0046510406762361525
1783696412053322000,0.979322021484375,-0.038515900877118106,0.0017809286000207065,0.004349683109484612
1783696412063285000,0.989284912109375,-0.04090951801538467,-0.014219992803968488,0.002370163197442889
1783696412073248000,0.999248046875,-0.0254974293500185,0.013859160134941338,-0.005021883282624185
1783696412083211800,1.009211669921875,-0.013513561567664145,0.004170819411240517,0.0106225163012743
1783696412093175000,1.019175048828125,-0.03596387830674648,-0.008211326973699033,0.00231832341235131
1783696412103138000,1.029137939453125,-0.020851064848899842,0.009133592917770147,-0.008874868916347622
1783696412113101000,1.03910107421875,-0.028630466678738593,-0.00852623814176768,0.005894209137745202
1783696412123064000,1.04906396484375,-0.044346506726741786,-0.005047894506715238,-0.008989069880545139
1783696412133027000,1.059027099609375,-0.02129939313828945,0.008069726545922458,-0.004075651941075921
1783696412142991000,1.0689912109375,-0.024585575202107426,-0.013099391276203095,0.013212898120656609
1783696412152953900,1.078953857421875,-0.03595569500029087,-0.00002652268074452877,-0.0013905775755643844
1783696412162916900,1.088916748046875,-0.015299860462546347,0.0031731501433998346,-0.001140109945833683
1783696412172880000,1.0988798828125,-0.020236147820949554,-0.011518624890781938,0.0032870588466525075
1783696412182843000,1.1088427734375,-0.03445756539702415,-0.0022020766215398906,-0.004525039676390588
1783696412192806000,1.118805908203125,-0.02846972315907478,-0.0001946092566475272,-0.01185213116146624
1783696412202769200,1.12876904296875,-0.029069442617893217,-0.012491305847838521,0.006733984430134296
1783696412212733000,1.13873291015625,-0.019497896674275397,-0.006193520877882838,-0.00496196978893131
1783696412222696200,1.1486962890625,-0.02697393164336681,0.007966887225955724,0.002121887524798512
1783696412232659000,1.158658935546875,-0.04163841681182384,0.0026580036954954264,-0.0015652034901082515
1783696412242622000,1.1686220703125,-0.04134264873564243,0.01402706404775381,-0.01447667097877711
1783696412252585000,1.1785849609375,-0.029663901379704472,0.016923114282824097,-0.008865078174695371
1783696412262548000,1.1885478515625,-0.044929859572649,0.0035112960565835236,0.0013237594170495868
1783696412272511000,1.198510986328125,-0.030868600994348523,-0.006075849314965308,-0.008570698338001967
1783696412282475000,1.20847509765625,-0.026970424512028694,-0.0019612170703709126,0.0013380071381106971
1783696412292438000,1.21843798828125,-0.051664136263728136,-0.005364193914271891,-0.0034021731263026594
1783696412302401000,1.228401123046875,-0.021888591203093527,0.006900280907750129,-0.0009271247822791337
1783696412312363800,1.23836376953125,-0.009165303230285644,0.008568725576624274,0.0037164267072454095
1783696412322326800,1.248326904296875,-0.03729892630279064,0.004526756709441543,0.00033131431359797716
1783696412332290000,1.2582900390625,-0.02204056689441204,0.004309460696950555,0.0014386179683730006
1783696412342253800,1.26825390625,-0.03160860570669174,0.00797368229292333,-0.0066418126346543425
1783696412352216800,1.278216796875,-0.043132454761862754,-0.0012751345023512839,0.0017585706377401947
1783696412362180000,1.28818017578125,-0.02637538122832775,0.008696151348575949,-0.01068038396835327
1783696412372143000,1.29814306640625,-0.02083177562654018,0.0049910862855613225,-0.0020841858629137276
1783696412382106000,1.308106201171875,-0.03175356713533401,-0.006560052635334432,-0.010325286920368671
1783696412392068900,1.31806884765625,-0.01933130793571472,-0.00756795103624463,0.010691161090694368
1783696412402031900,1.328031982421875,-0.026212299621105193,0.011765439258702099,-0.012313976519554853
1783696412411996000,1.337995849609375,-0.04073591501414776,-0.010745485093817115,-0.0051441579554229976
1783696412421959000,1.347958984375,-0.023375614890456198,0.0004516162250190973,0.0009684066407382488
1783696412431922000,1.357921875,-0.0362374345511198,-0.004813172435387969,-0.00428776032179594
1783696412441885000,1.367885009765625,-0.03264847014844417,-0.008039112211950123,-0.003668532444909215
1783696412451848000,1.377847900390625,-0.025758710634708405,0.004682750988751649,-0.0011089110899716616
1783696412461811000,1.38781103515625,-0.02336509349644184,-0.004513641499541699,0.002698701032064855
1783696412471774000,1.39777392578125,-0.02142564986646175,0.0015555954115465283,-0.0113084162062034
1783696412481738000,1.407738037109375,-0.028612931022047997,0.012005129766091704,-0.009393339832499624
1783696412491701000,1.417700927734375,-0.0402852486371994,0.008356507598049939,0.0005206263406202197
1783696412501664000,1.4276640625,-0.031467735931277274,-0.007844758683629334,0.0008476298052817583
1783696412511627000,1.437626953125,-0.021591069561243056,-0.004987250360660255,0.00320248583573848
1783696412521590000,1.447590087890625,-0.044485622936487196,0.0032857071397826075,0.0003125365478917956
1783696412531553000,1.457552978515625,-0.02144318552315235,0.008727131008729338,-0.011351999619603157
1783696412541516000,1.46751611328125,-0.02278524778187275,0.01020228159520775,0.00007237111646682024
1783696412551480000,1.47747998046875,-0.05016659118235111,0.006209741360321641,0.007726685261912643
1783696412561443000,1.487443115234375,-0.02173778455555439,-0.01046805639192462,-0.00978332553077489
1783696412571405800,1.49740576171875,-0.03594517360627651,0.004215096944384276,0.0016873320324346421
1783696412581368800,1.507368896484375,-0.03684533731639385,-0.009635843351483344,0.000914009572379291
1783696412591331800,1.517331787109375,-0.01814414397776127,0.005173895506560802,0.0016251535164192319
1783696412601295000,1.527295166015625,-0.029369302347302437,0.012025551499612628,0.007072093810699879
1783696412611257600,1.537257568359375,-0.037010757011175156,0.00008267331477254628,0.003981251655891537
1783696412621221600,1.5472216796875,-0.02684241421818733,0.0011630889626219867,-0.002602547181211412
1783696412631184600,1.5571845703125,-0.028329437905550002,0.0036088381469249723,0.0038492593066766856
1783696412641147600,1.567147705078125,-0.03341886999905109,-0.00186911834012717,-0.01069799269028008
1783696412651110700,1.577110595703125,-0.026533786660432813,0.006251059751398861,-0.013737323853559791
1783696412661073700,1.58707373046875,-0.03280629105865955,0.014522154088318346,-0.003779701201803982
1783696412671036400,1.597036376953125,-0.04208440701365471,-0.00021568857729434965,-0.010137290067598222
1783696412680999400,1.60699951171875,-0.02726736163198948,0.0007312003513798117,-0.009796038881875574
1783696412690963500,1.61696337890625,-0.01933306150138378,-0.00856087106373161,0.000007562251947820186
1783696412700926500,1.626926513671875,-0.03101005529165268,-0.011775449196062982,0.0012537629207596181
1783696412710889500,1.636889404296875,-0.028017303216457366,0.007471943315863609,-0.0004757277529686689
1783696412720852700,1.646852783203125,-0.0501584078758955,0.0007281316114589572,0.009572532324306667
1783696412730815700,1.656815673828125,-0.03879121068716049,-0.00014346359129995107,-0.01560644219368696
1783696412740778800,1.66677880859375,-0.013648586124181747,0.005651449890434742,-0.0021934914562851187
1783696412750741500,1.676741455078125,-0.038036008405685426,0.0053712081769481295,-0.0009535013325512408
1783696412760705800,1.686705810546875,-0.029064766442775725,0.0046624023204669355,-0.0023123685956001282
1783696412770668500,1.69666845703125,-0.00916062705516815,0.026754808999970552,-0.002755143927037716
1783696412780631600,1.706631591796875,-0.040275896286964416,0.005907360880263149,0.00377820336446166
1783696412790594600,1.716594482421875,-0.028907530054450032,0.000017535656690597534,0.0009632555415853857
1783696412800557600,1.7265576171875,-0.020972645401954648,0.0006525821572169661,-0.003790880182944238
1783696412810520600,1.7365205078125,-0.039676176828145976,0.0031168899115175007,-0.005704422186687588
1783696412820483600,1.746483642578125,-0.028155834904313087,0.0018659400023519992,-0.013227511167898774
1783696412830447600,1.756447509765625,-0.02694879720211029,0.0029490225313231347,-0.0030249738443642853
1783696412840410600,1.76641064453125,-0.045810149538516996,0.0028097236584872006,0.012969298623129726
1783696412850373600,1.77637353515625,-0.02875906149446964,-0.005663103795610368,-0.009938114233687519
1783696412860336600,1.786336669921875,-0.020374679508805275,0.0032957536097615956,0.004331635996140539
1783696412870299600,1.796299560546875,-0.054199207699298854,0.0029732436571270225,-0.001938457249291241
1783696412880262700,1.8062626953125,-0.025919454154372214,0.008807064377143979,-0.0234384144609794
1783696412890225700,1.8162255859375,-0.023516484665870665,0.0028573987251147626,-0.010220657502114773
1783696412900189700,1.826189697265625,-0.0323509485065937,-0.0056168169684708115,0.0060353711741045115
1783696412910152700,1.836152587890625,-0.02816518725454807,-0.00204045631904155,-0.003712846510671079
1783696412920115700,1.84611572265625,-0.035785014608502384,0.004038023344427347,-0.0015621712828055023
1783696412930078500,1.856078369140625,-0.032789924445748325,-0.014990831045992671,0.002745389718003571
1783696412940041500,1.86604150390625,-0.026352000352740285,0.0031696064794436095,-0.006658581106364726
1783696412950004500,1.87600439453125,-0.040564650100469585,0.0016826193246990441,0.005817198378778993
1783696412959967500,1.885967529296875,-0.04220598756670951,0.0035757395949214694,0.0073926310019567605
1783696412969931500,1.895931640625,-0.016164368337392807,0.01454330647420138,-0.007566781992465257
1783696412979894500,1.90589453125,-0.02304477550089359,0.004094941163435578,0.00983341175019741
1783696412989857800,1.91585791015625,-0.04250409373044967,0.005059804140217602,0.0022988880595192314
1783696412999820800,1.92582080078125,-0.013473229557275772,-0.004712415474653244,-0.0005297594951465726
1783696413009783600,1.935783447265625,-0.023653262788057326,-0.006973419209197163,0.00421801955383271
1783696413019746600,1.94574658203125,-0.027253917628526685,0.0053803047988563776,0.01185618628207594
1783696413029710600,1.955710693359375,-0.016178396862745283,0.014306027119606733,-0.005190444782562554
1783696413039673600,1.965673583984375,-0.031436171749234194,-0.007895392892323433,-0.013353146841563284
1783696413049636600,1.97563671875,-0.025901918497681618,-0.004160042288899422,-0.0010144377395510673
1783696413059599600,1.985599609375,-0.01961421653032303,-0.0011021890882402657,-0.010418810422718524
1783696413069562600,1.995562744140625,-0.03801438109576702,-0.002739617564342916,0.003948554962687194
1783696413079525600,2.005525634765625,-0.025299860951304435,-0.005274141010642051,-0.011799158865213393
1783696413089488400,2.01548828125,-0.0356231020450592,0.0025356559574604034,-0.007087327912449836
1783696413099452400,2.025452392578125,-0.02515139239132404,0.004492744841985404,-0.010954890060797333
1783696413109415400,2.03541552734375,-0.023957798692584038,-0.006188442843966186,-0.019163513620756564
1783696413119378700,2.045378662109375,-0.021856442499160765,0.0014867679590359329,0.0036873102106153963
1783696413129341700,2.055341796875,-0.029788404542207717,-0.002530249129980802,-0.004846965107135474
1783696413139304700,2.0653046875,-0.03428513143956661,0.003078822923451662,-0.0003895838394761085
1783696413149267700,2.075267822265625,-0.018866028511524198,0.009424063764326274,0.00014185615610331297
1783696413159230700,2.085230712890625,-0.036222821503877636,-0.007220123979263007,0.0028487770272418857
1783696413169194800,2.09519482421875,-0.0208136554479599,0.0005664747763425112,-0.0051335269635543225
1783696413179157500,2.105157470703125,-0.031875147688388825,0.006538790651597082,-0.003303608122654259
1783696413189120500,2.11512060546875,-0.03861234698891639,0.006171309046074748,0.0032646643517538904
1783696413199083500,2.12508349609375,-0.032925533524155615,-0.0011060980783775447,-0.004710040854476392
1783696413209046500,2.135046630859375,-0.03096855423748493,-0.005629128460772335,-0.007802052053064107
1783696413219009500,2.145009521484375,-0.03740238667726516,-0.00011142448522150516,0.00029240707531571385
1783696413228972800,2.154972900390625,-0.03651099079549312,0.01054543247707188,0.0053712081769481295
1783696413238936600,2.1649365234375,-0.02618365804851055,0.014042298149503767,0.010913242876157164
1783696413248899600,2.174899658203125,-0.02678746916055679,-0.006652297496050596,-0.005833784187398851
1783696413258862600,2.184862548828125,-0.012876432707905769,0.00043090223055332897,-0.0021563377836719155
1783696413268825600,2.19482568359375,-0.037864743492007254,-0.002927212558314204,0.0026482494864612815
1783696413278788600,2.20478857421875,-0.04685001398026943,-0.014197452178597449,-0.005675488353148102
1783696413288751600,2.214751708984375,-0.02305354332923889,-0.00006656243018805981,-0.010919307290762662
1783696413298715600,2.224715576171875,-0.028290274938941,0.0007213000118732452,0.007873948245495557
1783696413308678700,2.2346787109375,-0.03637304362952709,-0.004083214193023741,-0.0014602818109095096
1783696413318641700,2.2446416015625,-0.021255553996562957,-0.012339805080555379,-0.006042969958670437
1783696413328604700,2.254604736328125,-0.043697102907299994,-0.003622464813478291,-0.0017115166256204246
1783696413338567400,2.2645673828125,-0.0369692559570074,-0.0018687895465642212,-0.0019854016635566948
1783696413348530400,2.274530517578125,-0.023498364487290382,0.0016066314790397882,-0.005417823797650635
1783696413358493400,2.284493408203125,-0.035910686814785,0.005482157738134264,-0.0009670549338683485
1783696413368457500,2.29445751953125,-0.028881226569414137,-0.0006812967950478195,0.001859254533238709
1783696413378420500,2.30442041015625,-0.012713935622572899,0.01572510013729334,-0.007985701524280011
1783696413388383700,2.3143837890625,-0.03770283092856407,-0.006461451099067926,0.00429309408403933
1783696413398346800,2.3243466796875,-0.040703766310214995,-0.00248743290156126,-0.0072686758287250994
1783696413408309800,2.334309814453125,-0.018258710268139838,0.013506985696405172,-0.0061723319593817
1783696413418272500,2.3442724609375,-0.03247778975665569,-0.015718195472471413,0.0026074060194194314
1783696413428236500,2.354236572265625,-0.03606967676877975,-0.015522965161316096,-0.00476173450909555
1783696413438199600,2.364199462890625,-0.030378771650791166,0.004641469130292534,0.010128120380453765
1783696413448162600,2.37416259765625,-0.03651157531738281,-0.014815182218141853,0.004380005182512105
1783696413458125600,2.38412548828125,-0.016909049224853513,-0.0009657032269984483,-0.016197101563215254
1783696413468088600,2.394088623046875,-0.029323125118017195,0.004291998105496168,-0.006955591291561722
1783696413478051600,2.404051513671875,-0.04638707264363765,0.002430953473970294,-0.0006318316301330923
1783696413488014600,2.4140146484375,-0.03636310675740242,0.0008615852653980255,-0.010508790261112153
1783696413497978600,2.423978515625,-0.027234043884277342,0.0005105798706412315,0.004587985377386212
1783696413507941400,2.43394140625,-0.03666413553059101,0.005950798163190484,-0.005270706944540142
1783696413517904600,2.443904541015625,-0.017511106771230696,-0.017664214973710478,-0.012926884253509342
1783696413527867600,2.45386767578125,-0.03875204772055149,-0.007798325726017356,0.0033387159686535596
1783696413537830700,2.46383056640625,-0.03621697628498077,-0.0026475918993353843,0.003796323543041944
1783696413547793700,2.473793701171875,-0.02230418626666069,0.0012553338233381509,-0.006435659070685506
1783696413557757700,2.4837578125,-0.029478607940673827,0.001957783004269004,-0.0004679828379303217
1783696413567720700,2.493720703125,-0.03711713999509811,-0.0008837970972061156,0.0009249693578109145
1783696413577683700,2.50368359375,-0.023797639694809913,0.007955196788161992,-0.0056941199883818626
1783696413587646500,2.513646484375,-0.03410802130699157,-0.00028024171348661184,0.015499730416201054
1783696413597609500,2.523609375,-0.04563654653728008,0.0003735460201278329,-0.0005527750445529818
1783696413607572500,2.533572509765625,-0.026780454897880553,-0.006161993228457867,-0.006901742212474346
1783696413617536300,2.543536376953125,-0.037546763584017755,0.0014146525708958505,0.012855755246058106
1783696413627500300,2.553500244140625,-0.02154080067873001,-0.00407382531017065,-0.006370229151658713
1783696413637463300,2.56346337890625,0.0037479543566703794,-0.006669577424414455,-0.007649528372474014
1783696413647426300,2.57342626953125,-0.030211598390340804,0.0028776377955451607,-0.0017017989492043853
1783696413657389300,2.583389404296875,-0.035900165420770645,-0.0025524609617888928,0.004104731905087829
1783696413667352300,2.593352294921875,-0.024070611417293546,0.010800868542864918,-0.006442782931216061
1783696413677315300,2.6033154296875,-0.023916297638416288,0.007036511040665209,0.0073596785804256794
1783696413687279400,2.613279296875,-0.03858662802577018,0.002870112076215446,-0.00790744865629822
1783696413697242400,2.623242431640625,-0.0225695592045784,-0.0029915099661797285,0.009014752311073243
1783696413707205400,2.633205322265625,-0.03992752124071121,0.003355374842509627,-0.0019882877403870226
1783696413717168400,2.64316845703125,-0.016436755537986753,-0.009384937330335378,-0.010280899789370596
1783696413727131400,2.65313134765625,-0.015683891344070434,-0.007422551216185093,0.003338204512000084
1783696413737094400,2.663094482421875,-0.04740998595058918,-0.01346106419544667,-0.0026912118453532455
1783696413747057400,2.673057373046875,-0.02616436882615089,0.0038128362864255903,-0.004295505236834287
1783696413757021400,2.683021484375,-0.022270283997058868,0.010023417896963656,-0.0010476458894088864
1783696413766984400,2.692984375,-0.035438977649807926,-0.001483406958170235,-0.006885083338618278
1783696413776947200,2.702947265625,-0.02437280923426151,0.004395495012588799,-0.003751096161827445
1783696413786910200,2.71291015625,-0.02063011557459831,0.016733546527475118,0.0014908961448818444
1783696413796873200,2.722873291015625,-0.04921674311161041,-0.002149031260050833,-0.008813274922221899
1783696413806836500,2.73283642578125,-0.03186637986004352,-0.005374897971376777,-0.00913308146111667
1783696413816800300,2.74280029296875,-0.02931727989912033,0.015824870717339217,0.004697510166466236
1783696413826763300,2.75276318359375,-0.05071078106164932,-0.0007041662139818072,-0.00014558248315006494
1783696413836726500,2.7627265625,-0.021680501410365104,0.00916764131784439,-0.005841529102437197
1783696413846689500,2.772689453125,-0.03544248478114605,-0.00010057429764419793,0.008839907200820743
1783696413856652300,2.78265234375,-0.045619010880589485,-0.0024744272895157334,0.003900624167732894
1783696413866615300,2.792615234375,-0.01957797617316246,0.0005709317557513713,-0.020771460274048147
1783696413876579300,2.802579345703125,-0.0284036721855402,-0.003692242114059627,-0.006747391900978982
1783696413886542300,2.812542236328125,-0.04531213688850402,0.0022441256649792193,0.0018274346228688955
1783696413896505300,2.82250537109375,-0.0240595055013895,0.0018796397341415284,-0.005832103686966001
1783696413906468400,2.83246826171875,-0.03273088773488998,0.006350939929299056,0.014628938931040465
1783696413916431400,2.842431396484375,-0.022861235627532003,-0.003756758717633784,-0.018940774248167872
1783696413926394400,2.852394287109375,-0.01972469116747379,0.006612257746607065,-0.005375774754211306
1783696413936357400,2.862357421875,-0.02466390113532543,0.005915142327919602,0.0034277459589764476
1783696413946321200,2.872321044921875,-0.03230184866786003,-0.0015614040978252886,-0.016747721183300018
1783696413956284200,2.8822841796875,-0.017635025411844252,-0.005418773645721376,-0.013978731394000351
1783696413966247400,2.892247314453125,-0.03319675168097019,0.004667991811037064,0.006130502111651003
1783696413976210400,2.90221044921875,-0.0257195476680994,-0.005616926566325128,-0.018632877342775463
1783696413986173400,2.91217333984375,-0.024520693272352217,0.006679112437739968,-0.012124920220859347
1783696413996136400,2.922136474609375,-0.04786766659021377,-0.011186251131258904,0.00043090223055332897
1783696414006099500,2.932099365234375,-0.03919336174726486,-0.012096717039681971,-0.0049695685734972355
1783696414016063500,2.9420634765625,-0.022573650857806205,-0.006232866507582366,-0.002994505640864372
1783696414026026200,2.952026123046875,-0.03409574634730816,-0.005018376151286065,0.0031239772394299507
1783696414035989200,2.9619892578125,-0.03380231635868549,-0.005026742120832204,-0.0040312282774597405
1783696414045952300,2.9719521484375,-0.040974399945139885,0.001475771640986204,0.006552965307421982
1783696414055915300,2.981915283203125,-0.03663140230476856,0.0008588453190401196,-0.002050868115201592
1783696414065878300,2.991878173828125,-0.025710195317864417,-0.0002466682374477386,-0.0022199776044115422
1783696414075842300,3.00184228515625,-0.030644729110598564,0.004702770863473415,0.0003635726153850555
1783696414085805300,3.011805419921875,-0.04216799364387989,0.0034239465666934844,-0.006866305572912097
1783696414095768600,3.0217685546875,-0.0228700034558773,-0.0026915771715343,-0.010186791765131056
1783696414105731300,3.0317314453125,-0.0322942498832941,0.00439786963276565,0.010901552438363432
1783696414115694300,3.0416943359375,-0.0489122072070837,0.0059047670643776655,-0.00912599413320422
1783696414125657300,3.0516572265625,-0.020333178454637526,0.014889745291694997,-0.011778700599074363
1783696414135620400,3.061620361328125,-0.009254150557518005,0.0065786842705681916,0.017040493584796784
1783696414145584400,3.07158447265625,-0.03799392282962799,-0.018236608034186065,-0.009410692826099694
1783696414155547400,3.08154736328125,-0.022732640811800955,0.0028939678758382794,-0.0028061799945309756
1783696414165510400,3.091510498046875,-0.018987024542689322,-0.0010952113581821322,0.009408720064722001
1783696414175473400,3.101473388671875,-0.040537177571654315,-0.002018427150323987,-0.012040054949000477
1783696414185436200,3.111436279296875,-0.02362520573735237,0.005823189728148282,0.007142638296261429
1783696414195399200,3.121399169921875,-0.04247428311407566,-0.002116553762555122,-0.004211297552101314
1783696414205363200,3.13136328125,-0.04622048390507698,-0.007981390675343572,-0.01749141569007188
1783696414215326200,3.141326171875,-0.020030980637669563,0.008268171727471053,-0.00282788036968559
1783696414225289500,3.15128955078125,-0.031551322561502455,0.0009742153270170092,0.003511770980618894
1783696414235252500,3.16125244140625,-0.033953707528114316,-0.005989814999327063,-0.0014447554482147097
1783696414245215500,3.171215576171875,-0.019284546184539793,0.0037825142133980985,-0.008019932587444783
1783696414255178500,3.181178466796875,-0.04576572587490082,-0.0007867664635181426,-0.0005784940076991916
1783696414265141200,3.191141357421875,-0.03918400939702987,-0.010840944824926554,-0.01901650636550039
1783696414275105300,3.201105224609375,-0.023768413600325583,-0.0017354454904794693,-0.008597038355655968
1783696414285068300,3.211068359375,-0.035137948876619335,-0.006369352368824184,-0.0003184548320248723
1783696414295031300,3.22103125,-0.04127952037155628,-0.0000957154594361782,-0.011938932662084697
1783696414304994300,3.230994384765625,-0.016590484794974325,-0.003535042258352041,-0.009222074918821453
1783696414314957300,3.240957275390625,-0.039333062478899956,-0.015177585789747535,-0.00886843917556107
1783696414324920300,3.25092041015625,-0.02377250525355339,-0.007301043728366494,-0.01457969296183437
1783696414334883300,3.26088330078125,-0.01493687236905098,0.011061821033991873,0.004133848401717841
1783696414344847400,3.270847412109375,-0.03618658114671707,-0.008471000823192298,0.007062777993083
1783696414354810000,3.28081005859375,-0.04591945513188839,0.000031710312515497204,-0.012480272997170685
1783696414364773400,3.2907734375,-0.03708674485683441,0.002319090597331524,-0.0024329627679660916
1783696414374736400,3.300736328125,-0.03993161289393902,-0.005415376112237572,0.0050393458740785714
1783696414384699400,3.310699462890625,-0.02572130123376846,-0.0037295784497633575,-0.013868987409211695
1783696414394662400,3.320662353515625,-0.032598785787820814,-0.004618197852559388,0.008255275713279843
1783696414404626400,3.33062646484375,-0.03813245451748371,0.0037243542853742837,-0.007639226174168288
1783696414414589400,3.34058935546875,-0.023012042275071143,-0.004668795528635383,-0.009875497326254845
1783696414424552400,3.350552490234375,-0.02839256626963615,-0.014818031762354075,0.0071294134885072705
1783696414434515200,3.36051513671875,-0.04052139548063278,-0.010331607063300908,-0.004813647359423339
1783696414444478200,3.370478271484375,-0.026750644281506537,0.0033463878184556957,-0.0031574411176145075
1783696414454441200,3.380441162109375,-0.02853986578583717,-0.001894508509710431,-0.01081263204589486
1783696414464404200,3.390404296875,-0.03871872997283935,-0.01760788167659193,-0.003387852340005338
1783696414474368300,3.4003681640625,-0.032576573956012725,-0.007107384319789707,-0.0043136619480326766
1783696414484331300,3.410331298828125,-0.03496726848483085,-0.014389796412922441,-0.0005991349369287491
1783696414494294500,3.42029443359375,-0.030485154634714125,-0.006864113615825772,0.0007377762226387858
1783696414504257500,3.430257568359375,-0.0102870007365942,0.0064221054693683974,-0.010512991512194276
1783696414514220300,3.44022021484375,-0.04754033433198929,0.0029433965081349014,0.009712598382122814
1783696414524183300,3.450183349609375,-0.03587386193573475,-0.0015616598261520265,-0.0004443462340161204
1783696414534147300,3.460147216796875,-0.018067571610212326,0.010983750829100608,-0.009673508480750024
1783696414544110300,3.4701103515625,-0.029591420665383335,0.0010624415997415781,-0.0025718232493847607
1783696414554073300,3.4800732421875,-0.03169160781502724,-0.01351790894921869,-0.01660301548298448
1783696414564036400,3.490036376953125,-0.02809387558400631,-0.002965681405179202,-0.01758870205208659
1783696414573999400,3.499999267578125,-0.024192776492238045,-0.007685439936071634,0.00511906004678458
1783696414583962400,3.50996240234375,-0.029730536875128746,0.0012824410259723662,-0.007410422386974096
1783696414593925000,3.519925048828125,-0.02972936783134937,0.009526866551674902,-0.003274783886969089
1783696414603889400,3.529889404296875,-0.047238721036911006,-0.0033095264067873357,-0.0007265607088804244
1783696414613852000,3.539851806640625,-0.0321288301885128,0.005636508049629629,-0.0010245572747662663
1783696414623815200,3.549815185546875,-0.017011925077438355,0.009215864373743533,-0.007995967189967632
1783696414633778000,3.55977783203125,-0.028987609553337096,-0.00897854848653078,0.0032797523230314253
1783696414643741000,3.569740966796875,-0.0300374108672142,-0.005105908304266631,-0.010694814352504908
1783696414653704000,3.579703857421875,-0.024344752183556556,0.0053429684631526465,0.0002233969597145915
1783696414663667000,3.5896669921875,-0.027038813573122024,0.0054230114294216035,-0.013622976758889854
1783696414673631000,3.599630859375,-0.03571487198174,-0.008703640535287558,-0.02126318931374699
1783696414683594000,3.609593994140625,-0.008324760752916336,0.012973061482794581,0.0004348477533087134
1783696414693557000,3.619556884765625,-0.041544308787584305,-0.008126132908277213,-0.0068916957424953575
1783696414703520000,3.62952001953125,-0.028971827462315556,0.00015771131236106157,-0.009849120775982738
1783696414713482800,3.639482666015625,-0.01893792470395565,0.0008874868916347623,-0.004669635778851807
1783696414723446000,3.649446044921875,-0.04647475092709064,-0.014154161026142536,-0.0060035877963528035
1783696414733409800,3.659409912109375,-0.02910977462828159,0.001886179072782397,-0.00590257510729134
1783696414743372800,3.669372802734375,-0.03957622358500957,-0.004210238106176257,-0.014511559629067777
1783696414753336000,3.679336181640625,-0.04048223251402378,-0.0014329188799485563,-0.005865677163004875
1783696414763299000,3.689299072265625,-0.007859481328725814,0.009010331864282487,-0.010956059104576706
1783696414773262000,3.699261962890625,-0.04392155931293964,0.002356390400417149,0.0049346068579703565
1783696414783225000,3.70922509765625,-0.0365904857724905,-0.006766023536212742,-0.014195552482455968
1783696414793187800,3.719187744140625,-0.017733809611201284,0.0003408127943053841,-0.014607238555885851
1783696414803152100,3.729152099609375,-0.02776128262877464,0.007466061564348638,-0.002855900887772441
1783696414813115000,3.739114990234375,-0.04333060768246651,0.0030549671238288283,-0.0024698241796344516
1783696414823078000,3.749077880859375,-0.027317045992612837,-0.005054872236773371,-0.008931311811320484
1783696414833041000,3.759041015625,-0.029707155999541282,0.005149053326249122,-0.006683021427877247
1783696414843004000,3.76900390625,-0.041376551005244254,-0.004540675636939704,-0.011397957653179764
1783696414852967000,3.778966796875,-0.026706805139780042,0.007910115537419915,-0.0056968234021216625
1783696414862930200,3.78893017578125,-0.038680736050009726,0.0028945158651098608,0.004611841177009046
1783696414872894000,3.79889404296875,-0.031657121023535725,-0.012042648764885961,-0.01281798051893711
1783696414882857000,3.80885693359375,-0.010253098466992377,0.005371025513857603,0.008235986490920185
1783696414892820000,3.818820068359375,-0.03329904301166534,0.0006568930061534047,0.0056438876384869215
1783696414902783000,3.828782958984375,-0.029569793355464932,-0.003128215023130178,-0.013756613075919449
1783696414912746000,3.83874609375,-0.02013911718726158,0.0073106883395463226,0.0030933994380757212
1783696414922709000,3.848708984375,-0.03151099055111408,-0.0032977263711392877,0.0009553644960746168
1783696414932672000,3.858672119140625,-0.020588614520430565,-0.0019826251845806836,-0.002107384075410664
1783696414942636000,3.868635986328125,-0.029265257450938224,-0.002417034546472132,0.008437281216681003
1783696414952599000,3.87859912109375,-0.03914250834286213,-0.006843764947541057,-0.01225968904905021
1783696414962562000,3.88856201171875,-0.035254853254556656,-0.016887531512789426,-0.016950294550694526
1783696414972524800,3.89852490234375,-0.025672201395034788,-0.0015330547861754893,-0.0046243353324010965
1783696414982487800,3.90848779296875,-0.03973930519223213,-0.01691617308538407,0.011542151896841824
1783696414992451000,3.918451171875,-0.022229367464780807,-0.0012634440645575523,-0.009698715987242758
1783696415002414800,3.928414794921875,-0.03763268830180168,-0.0025327698806300756,0.001509052856080234
1783696415012377900,3.9383779296875,-0.04197977759540081,-0.010973594761267304,0.0018941797161474822
1783696415022341000,3.948341064453125,-0.02118015067279339,-0.0074895520377904175,-0.011428060530498623
1783696415032304000,3.95830419921875,-0.0273100317299366,-0.001995703861862421,-0.003885243935510516
1783696415042267100,3.96826708984375,-0.037794600865244866,-0.01994227944090962,-0.006055829440243542
1783696415052230000,3.97822998046875,-0.018042437168955802,0.008761690865457058,-0.00826820826008916
1783696415062193000,3.98819287109375,-0.021631986093521117,0.0028081162232905625,-0.0002832373881712556
1783696415072157000,3.998156982421875,-0.03869418005347252,-0.00926079949401319,-0.009218933113664387
1783696415082120000,4.008119873046875,-0.01729483367204666,0.009067980335652828,0.005958031621575355
1783696415092083000,4.0180830078125,-0.023425299251079557,-0.0018549802169203758,0.005074417187459767
1783696415102046000,4.0280458984375,-0.03375964626073837,-0.0112253775652498,-0.005655212750099599
1783696415112009000,4.038009033203125,-0.025680969223380087,0.0017891119064763188,-0.004406491330638527
1783696415121972000,4.047971923828125,-0.03585983341038227,-0.007985920719988644,-0.001744395981915295
1783696415131935000,4.05793505859375,-0.03317687793672085,-0.008739077174849808,-0.006870470291376113
1783696415141898800,4.067898681640625,-0.01582183851003647,0.003341784708574414,-0.013969415576383471
1783696415151862000,4.077862060546875,-0.03407937973439693,-0.013275040104053913,0.006695004126615822
1783696415161825000,4.087824951171875,-0.033633974054455756,-0.008303571834415198,-0.011959025602042674
1783696415171788000,4.0977880859375,-0.024502573093771934,0.006148074300959706,0.006584566022083163
1783696415181751000,4.1077509765625,-0.033627544313669204,0.003158208302594721,0.019812552114017307
1783696415191714000,4.117714111328125,-0.023158757269382477,-0.004043064845725894,-0.020837657378055156
1783696415201677000,4.127677001953125,-0.016875146955251694,0.006303374460525811,-0.010964461606740951
1783696415211641000,4.13764111328125,-0.031090719312429425,-0.00456252214256674,0.009768493287824094
1783696415221603800,4.147603759765625,-0.02256780563890934,-0.004876446929946541,-0.0038006709245964883
1783696415231566800,4.15756689453125,-0.0322942498832941,-0.00047583735082298514,-0.010762801554799079
1783696415241529900,4.16752978515625,-0.0424725295484066,-0.0032777795616537333,-0.003100486765988171
1783696415251492900,4.177492919921875,-0.02586567814052105,-0.00643514761403203,-0.011982808336429297
1783696415261456100,4.1874560546875,-0.02930851207077503,0.005606587835401296,-0.008004296626895665
1783696415271419100,4.197419189453125,-0.03993745811283588,-0.005549670016393065,-0.004365355602651834
1783696415281383000,4.2073828125,-0.017194295907020568,0.00911214827094227,-0.019723485591076312
1783696415291346200,4.21734619140625,-0.02691664849817753,-0.0010673004379495978,0.001717836768552661
1783696415301309000,4.227308837890625,-0.03769523214399814,0.005443688891269266,-0.012919943056069314
1783696415311272000,4.23727197265625,-0.02947451628744602,-0.001674180289916694,0.0005738178325816989
1783696415321235000,4.24723486328125,-0.02767944956421852,-0.012041443188488482,0.011227313794009387
1783696415331198000,4.257197998046875,-0.02858253588378429,0.0008703165611252188,-0.002145414530858397
1783696415341161000,4.267160888671875,-0.024837504136562345,0.0010958689453080296,-0.011290259495005011
1783696415351125000,4.277125,-0.021989713490009305,-0.003156235541217029,0.015731785606406628
1783696415361088000,4.287087890625,-0.03650923722982406,0.0007310542209073901,-0.010305961165390908
1783696415371051000,4.297051025390625,-0.018100304836034774,0.0006605097353458404,-0.012714045220427215
1783696415381013800,4.307013671875,-0.035901918986439706,0.007959251908771694,-0.006086224578507244
1783696415390977000,4.31697705078125,-0.0414443555444479,-0.012099858844839035,-0.013239530399255454
1783696415400940000,4.32693994140625,-0.027233459362387656,0.0038075025241822,-0.005991678162850439
1783696415410903000,4.336903076171875,-0.04787994154989719,0.005882482167333364,0.0026224209254607556
1783696415420867000,4.3468671875,-0.037416415202617646,-0.0049758156511932605,-0.00284388165641576
1783696415430830000,4.356830078125,-0.030083003574609756,-0.00008910305555909872,-0.005646554519608616
1783696415440793000,4.36679296875,-0.03038870852291584,0.0007695961330085992,-0.016692958788760006
1783696415450756000,4.376756103515625,-0.02935118216872215,-0.002455101534537971,-0.014705547831207514
1783696415460718800,4.38671875,-0.02456102528274059,-0.00128233142811805,-0.006485562627017497
1783696415470681900,4.396681884765625,-0.029651041898131367,0.0051401759000495074,-0.0054022243697196244
1783696415480646000,4.40664599609375,-0.039082302588224406,0.0039610125854611395,-0.016678601469844578
1783696415490609000,4.41660888671875,-0.030550036564469335,0.0032370822250843046,-0.0099190807396546
1783696415500572000,4.426572021484375,-0.016637246546149252,-0.002214789972640574,-0.004390672706998885
1783696415510535000,4.436534912109375,-0.02801321156322956,-0.008544906309619545,-0.019635405448824167
1783696415520498000,4.446497802734375,-0.027560207098722457,-0.002851297777891159,-0.00794748840574175
1783696415530461200,4.456461181640625,-0.031153847676515578,0.009910933965817093,-0.0019472616102546453
1783696415540424000,4.466423828125,-0.02023673234283924,0.011282916438765823,-0.0005974544364959002
1783696415550387000,4.476386962890625,-0.009159458011388778,0.02135905090365559,0.0075986019028350706
1783696415560351000,4.48635107421875,-0.043429976403713225,-0.012699139912240207,-0.002256802483461797
1783696415570314000,4.49631396484375,-0.030113398712873458,0.009425634666904806,-0.0023508374424651263
1783696415580277000,4.506277099609375,-0.04058510836660862,0.012606968116760254,0.01846888242010027
1783696415590240000,4.516239990234375,-0.04268880264759063,0.002558598441630602,-0.007180997545272111
1783696415600203000,4.526203125,-0.006185410636663437,0.003219546568393707,-0.010329963095486163
1783696415610166000,4.536166015625,-0.01740238569974899,0.012775164290517569,0.003156235541217029
1783696415620130300,4.54613037109375,-0.04089841209948063,-0.0051213616017252205,-0.004766447216831148
1783696415630093300,4.55609326171875,-0.030720132434368132,-0.0005945318270474672,-0.018322751947678625
1783696415640056300,4.566056396484375,-0.019341244807839393,0.009848718917183577,0.005774784009158611
1783696415650019300,4.576019287109375,-0.04433423176705837,-0.011361753828637302,-0.005246193557791412
1783696415659982300,4.585982421875,-0.02982347585558891,0.004395860338769853,-0.01597063586357981
1783696415669945600,4.595945556640625,-0.01530804376900196,0.0008151523077860474,0.008098112390190362
1783696415679908400,4.605908447265625,-0.025340777483582495,0.010667378356307744,-0.008298749528825283
1783696415689872400,4.615872314453125,-0.009031447717547415,0.0034470351813361048,-0.005658829479292035
1783696415699835400,4.62583544921875,-0.03028349458277225,-0.007960457485169171,-0.008261924649775028
1783696415709798400,4.63579833984375,-0.022958266261219978,-0.017345321750268337,-0.005876636948436498
1783696415719761400,4.645761474609375,-0.013520575830340385,-0.0014943667436018585,0.0007736512536183
1783696415729724400,4.655724365234375,-0.036866380104422565,-0.0009337371861562132,0.009825447639450431
1783696415739687400,4.6656875,-0.02624853997826576,0.0012337795786559582,-0.008648439749330281
1783696415749650400,4.675650390625,-0.02653846283555031,-0.007388393218256533,0.002282594511844218
1783696415759613200,4.68561328125,-0.02983049011826515,-0.008371595569327473,0.01612228276133537
1783696415769577500,4.695577392578125,-0.027741993406414985,-0.005030249252170324,-0.005315824727900326
1783696415779540200,4.705540283203125,-0.03148176445662975,0.004095927544124424,-0.00893858180232346
1783696415789503200,4.715503173828125,-0.04091302514672279,-0.0047173108454793685,0.0035382571287453173
1783696415799466500,4.725466552734375,-0.03852466870546341,-0.015804120190255344,-0.002130801483616233
1783696415809429500,4.735429443359375,-0.014128478595614433,0.002709185893461108,0.006766425395011901
1783696415819392500,4.745392578125,-0.0410609091848135,-0.0040402518341317775,-0.004943118957988917
1783696415829356500,4.7553564453125,-0.021610358783602714,-0.005742050783336162,0.002212488417699933
1783696415839319600,4.765319580078125,-0.00514262358546257,-0.011043700855411589,0.0005898921845480799
1783696415849282600,4.775282470703125,-0.03253215029239654,-0.0211559295469895,0.0014231646709144115
1783696415859245300,4.785245361328125,-0.02266191366314888,0.00029240707531571385,-0.0058168695852160454
1783696415869208300,4.795208251953125,-0.014130816683173179,0.00872296629026532,-0.000538417725637555
1783696415879171300,4.80517138671875,-0.043915714094042775,0.005455635057389736,-0.003677446403726935
1783696415889134300,4.81513427734375,-0.021914894688129422,0.007787000614404678,-0.013425116099230944
1783696415899097300,4.825097412109375,-0.037921442115306854,-0.0010637567739933728,0.009514664657227695
1783696415909061400,4.835061279296875,-0.036734862679243085,0.002658332489058375,-0.0006845847306773067
1783696415919024400,4.8450244140625,-0.01953647511899471,0.015653861531987785,-0.0010232421005144715
1783696415928987400,4.8549873046875,-0.02447276247739792,0.01515256094634533,0.015418518406152725
1783696415938950400,4.864950439453125,-0.040945758372545236,-0.005688640095666051,-0.00936301775947213
1783696415948913400,4.874913330078125,-0.019400866040587425,0.006823745072819292,-0.009209653828665613
1783696415958876400,4.88487646484375,-0.031360183903574944,0.0018500117808580398,0.00038691695835441347
1783696415968839400,4.89483935546875,-0.0442325249582529,-0.001997055568732321,-0.016780052550323308
1783696415978803500,4.904803466796875,-0.015054361268877983,-0.0010639029044657944,-0.0013799100510776042
1783696415988766500,4.914766357421875,-0.032410569739341734,-0.008156308850832282,0.004453070418722927
1783696415998729500,4.9247294921875,-0.039596097329258916,-0.009674750589765607,-0.01818937135897577
1783696416008692500,4.9346923828125,-0.028971827462315556,-0.00764733641538769,-0.007325264854170382
1783696416018655200,4.9446552734375,-0.03540215277075767,-0.002701550576277077,0.006612915333732962
1783696416028618200,4.9546181640625,-0.034060090512037275,-0.016900610190071164,-0.0067480860207229845
1783696416038581200,4.964581298828125,-0.03016425211727619,0.0033508813304826616,-0.01439681067559868
1783696416048545300,4.974545166015625,-0.03764320969581604,0.004802760639227926,0.0035447234021499753
1783696416058508300,4.98450830078125,-0.02522854928076267,0.00004325461983680725,-0.004133008151501417
1783696416068471600,4.994471435546875,-0.01505143865942955,0.007357888482138514,-0.0011598375596106052
1783696416078434600,5.0044345703125,-0.033011458241939545,-0.014390965456701814,-0.00463799853157252
1783696416088397600,5.0143974609375,-0.028678397473692892,0.0003422740990296006,-0.005289448177628219
1783696416098360300,5.0243603515625,-0.026280104160308838,0.00751866853442043,-0.008397716391272842
1783696416108323300,5.0343232421875,-0.03974631945490837,0.006645648559555411,-0.010555917338468133
1783696416118287400,5.044287353515625,-0.022984569746255873,0.006403583431988954,-0.0016628551783040165
1783696416128250400,5.05425048828125,-0.02552314831316471,0.018173552735336124,0.0000519859155640006
1783696416138213400,5.06421337890625,-0.04258475775122642,0.0031624095536768437,-0.0017964549627155066
1783696416148176400,5.07417626953125,-0.03256371447443962,0.010386661718785762,0.007850348174199462
1783696416158139400,5.084139404296875,-0.03449731288552284,0.0052418096436187625,-0.00018708353731781242
1783696416168102400,5.094102294921875,-0.030305706414580344,-0.0025619594424962995,-0.004247172583080828
1783696416178065400,5.1040654296875,-0.016539631390571595,0.011313932631537318,-0.019441161518357692
1783696416188029200,5.114029296875,-0.02836100208759308,0.009003609862551092,-0.0005364814968779682
1783696416197992400,5.123992431640625,-0.03479717261493206,-0.009684650929272174,-0.007395955470204353
1783696416207955500,5.13395556640625,-0.023723405414819716,0.008548997962847351,-0.010227014177665113
1783696416217918500,5.14391845703125,-0.01579085884988308,0.004865925535932183,0.0014761004345491527
1783696416227881500,5.153881591796875,-0.02447393152117729,-0.006201411923393607,0.010856799981184303
1783696416237844500,5.163844482421875,-0.024618892949819563,0.0013079042607918381,-0.005729739291034638
1783696416247807500,5.173807373046875,-0.0422720385402441,0.012876396175287663,-0.00035758126601576805
1783696416257771500,5.183771484375,-0.046915480431914326,0.0030230376156046984,-0.00399659535549581
1783696416267734300,5.193734375,-0.02357026067972183,0.00032207156121730803,-0.0038932080462574957
1783696416277697300,5.203697265625,-0.034039632245898246,-0.008440130760893226,0.0042560134766623375
1783696416287660300,5.213660400390625,-0.03898176482319832,-0.004331782126612961,0.0029697730584070086
1783696416297623300,5.223623291015625,-0.027014848175644875,0.0029137320222333072,0.0016579963400959968
1783696416307586300,5.23358642578125,-0.04706511803567409,0.006073547760024667,-0.0019874109575524924
1783696416317549600,5.243549560546875,-0.043029578909277916,-0.011610687088407576,-0.003911035963892936
1783696416327513300,5.253513427734375,-0.008460954353213309,0.012574198358319699,0.0035782968781888484
1783696416337476600,5.2634765625,-0.034193946024775504,-0.0027252602454274893,-0.002640833364985883
1783696416347439400,5.273439453125,-0.03449965097308159,-0.0008932590452954172,-0.0031064050501212474
1783696416357402400,5.28340234375,-0.031654198414087294,-0.006108546008169651,-0.0012510229744017124
1783696416367365400,5.293365478515625,-0.03209960409402847,-0.0020424656130373477,0.009982355234213173
1783696416377328400,5.303328369140625,-0.02477671386003494,-0.019813757690414786,-0.0013152473170310259
1783696416387291400,5.31329150390625,-0.038682489615678786,0.00952975262850523,-0.0008379851941019296
1783696416397878500,5.32387841796875,-0.048261049821972844,0.0013407105518504975,0.0016992416659370063
1783696416407841500,5.333841552734375,-0.033597733697295185,-0.0015147154118865728,-0.005878682775050401
1783696416417804500,5.343804443359375,-0.029556933873891827,0.002406184358894825,-0.001594977573864162
1783696416427767300,5.353767333984375,-0.04287701869606971,0.005602788443118334,-0.004306063163466751
1783696416437730300,5.363730224609375,-0.014895955836772917,0.003732281863503158,-0.00881835295613855
1783696416447693300,5.373693359375,-0.02536591192483902,0.02182758173085749,-0.0015919453665614127
1783696416457656300,5.38365625,-0.049015083059668535,0.0002158347077667713,0.004907609253190458
1783696416467620400,5.393620361328125,-0.01475508606135845,0.001289784082211554,-0.00825377787593752
1783696416477583400,5.403583251953125,-0.030759295400977132,-0.00011379910539835691,-0.003427380632795393
1783696416487546400,5.41354638671875,-0.031956396231055256,-0.0036916575921699404,-0.0044913566024973985
1783696416497509400,5.42350927734375,-0.017288988453149794,0.0004646218370646238,-0.003483348603732884
1783696416507472400,5.433472412109375,-0.020571078863739965,0.002447868076153099,-0.0013685849394649266
1783696416517435400,5.443435302734375,-0.03179915984272957,0.001858012424223125,-0.00018832564633339643
1783696416527398400,5.4533984375,-0.02162672539651394,-0.0038189007010310887,-0.01374291334412992
1783696416537362400,5.463362548828125,-0.018784779968857763,0.00811206785030663,0.000524023874104023
1783696416547325400,5.473325439453125,-0.03525543777644634,-0.0055697629563510416,-0.0012479542344808578
1783696416557288400,5.483288330078125,-0.022092004820704458,-0.0016565350353717804,0.006031973640620708
1783696416567251500,5.49325146484375,-0.025084172374010085,0.004522518925741315,0.012246062382496892
1783696416577214500,5.50321435546875,-0.02762625807225704,-0.0128415440576151,-0.00873213597740978
1783696416587177200,5.51317724609375,-0.026874562922120093,-0.0013508300870656966,-0.006548289132304489
1783696416597140200,5.52314013671875,-0.05111410116553306,0.011499006874859332,0.0036005087099969385
1783696416607104300,5.533104248046875,-0.024180501532554625,-0.012283910174854099,-0.009255356133915484
1783696416617067500,5.543067626953125,-0.03240706260800361,-0.0022615517238155007,-0.010087130782939492
1783696416627030500,5.553030517578125,-0.030156653332710264,0.0005399886282160878,0.010449388224072754
1783696416636993500,5.56299365234375,-0.023577859464287757,0.0019299451492726801,-0.006667860391363501
1783696416646956800,5.572956787109375,-0.023873627540469167,0.006142996267043054,-0.0015511018995195626
1783696416656919600,5.58291943359375,-0.04407353500425815,-0.018380729212611913,-0.0013146993277594447
1783696416666882600,5.592882568359375,-0.02867021416723728,0.006383892350830137,-0.007278356972523033
1783696416676845600,5.602845458984375,-0.027912673798203468,0.006505472903884947,0.0016121844369918108
1783696416686809600,5.6128095703125,-0.034199206721782685,0.006435659070685506,-0.005013919171877205
1783696416696772600,5.622772705078125,-0.029718261915445326,0.006507080339081585,-0.006378923914767801
1783696416707358700,5.633358642578125,-0.019840426501631734,0.00594557399880141,0.0032590017959475514
1783696416717321700,5.64332177734375,-0.028522330129146574,-0.0009054609397426247,-0.006733107647299766
1783696416727284700,5.65328466796875,-0.015204583394527434,-0.001257818041369319,-0.01609053591620177
1783696416737247700,5.663247802734375,-0.027775895676016807,0.016195347997546194,-0.020357874504476785
1783696416747210500,5.67321044921875,-0.03556055820286274,0.00009556932896375655,-0.01614847664851695
1783696416757173500,5.683173583984375,-0.02284311544895172,0.01598481051940471,-0.003121091162599623
1783696416767137500,5.693137451171875,-0.02343815873265266,0.009885616861470043,0.0036188480842858552
1783696416777100500,5.7031005859375,-0.03989887966811657,0.0025422318287193772,-0.005316555380262434
1783696416787063600,5.7130634765625,-0.0173018479347229,0.004437982447445392,-0.013540230378881095
1783696416797026600,5.723026611328125,-0.015496844339370727,0.006904701354540884,0.015032843556813894
1783696416806989600,5.732989501953125,-0.03765314656794071,-0.0013946692287921906,-0.0018581585546955466
1783696416816952800,5.742952880859375,-0.025831775870919227,0.006925634544715285,-0.01764013997837901
1783696416826915600,5.75291552734375,-0.03779927704036236,-0.0034088220627978443,0.007557502707466483
1783696416836879600,5.762879638671875,-0.033465631750226016,0.003934928296133876,-0.003060556614398956
1783696416846842600,5.772842529296875,-0.00802782363295555,0.008125548386387526,-0.00544620964191854
1783696416856805600,5.7828056640625,-0.03615677053034305,-0.00737041917014867,-0.0005251198526471853
1783696416866768600,5.7927685546875,-0.02164484557509422,-0.014125300257839262,-0.006397117158584297
1783696416876731600,5.802731689453125,-0.025828268739581106,0.005507328712008893,-0.0002807531701400876
1783696416886694700,5.812694580078125,-0.02822013231217861,-0.003457446977496147,0.0036702494779601693
1783696416896657700,5.82265771484375,-0.02178863795995712,-0.017828794418275354,-0.009999598629958927
1783696416906621700,5.83262158203125,-0.02253682597875595,0.00865457722917199,0.0018182284031063318
1783696416916584400,5.84258447265625,-0.039296822121739385,-0.002653510183468461,-0.003194667855463922
1783696416926547500,5.85254736328125,-0.0391524452149868,0.009390746016614139,-0.005381729570962488
1783696416936510500,5.862510498046875,-0.030023382341861724,0.00912234087139368,0.006525638909079134
1783696416946473500,5.872473388671875,-0.03407119642794132,-0.009150069128535688,-0.0024163404267281293
1783696416956436700,5.882436767578125,-0.02824409770965576,-0.012862477247789501,-0.011183145858719944
1783696416966399700,5.892399658203125,-0.023752046987414357,0.0027429420325905084,-0.006534954726696014
1783696416976363800,5.90236376953125,-0.03138298025727272,-0.003980374873057008,-0.011947883153520524
1783696416986326800,5.912326904296875,-0.02091302416920662,0.0049522886451333755,-0.011467077366635202
1783696416996289500,5.92228955078125,-0.03990998558402061,-0.00043554187305271623,0.00004804039280861616
1783696417006252500,5.93225244140625,-0.047236382949352264,0.006619564270228147,-0.002643755974434316
1783696417016215600,5.942215576171875,-0.024041969844698904,0.00830298731252551,-0.011194397905096411
1783696417026178600,5.952178466796875,-0.02508651046156883,0.010056479916349052,0.006888480872102081
1783696417036141600,5.9621416015625,-0.035118075132369996,-0.01222005115840584,-0.004490589417517185
1783696417046105600,5.972105712890625,-0.02119827085137367,0.0018912936393171548,0.0018269962314516304
1783696417056068600,5.982068603515625,-0.029569208833575247,-0.0011801131626591086,0.00797225752081722
1783696417066031600,5.992031494140625,-0.03944821329116821,-0.003222213449515402,-0.015815810628049074
1783696417075994400,6.001994384765625,-0.012959434816241264,0.009414528751000762,-0.0060588981801643965
1783696417085957600,6.01195751953125,-0.011752397114038467,0.003480900918319821,-0.0005187266444787382
1783696417095920600,6.021920654296875,-0.033003859457373615,-0.00028042437657713887,-0.005206409536674618
1783696417105884700,6.031884765625,-0.03599251987934112,0.006388349330238997,0.0010533449778333305
1783696417115847700,6.04184765625,-0.03434533719420433,-0.0009012962212786077,-0.005026888251304626
1783696417125810700,6.051810791015625,-0.019083470654487608,-0.0036408041877672073,0.0006034457858651876
1783696417135773700,6.061773681640625,-0.023865444234013555,0.004051503880508244,-0.010086728924140333
1783696417145736700,6.07173681640625,-0.05020224701762199,0.0031540070515125988,-0.00497797107566148
1783696417155699500,6.081699462890625,-0.03164893771708011,0.00012589140199124811,-0.01116908080074936
1783696417165662500,6.091662353515625,-0.014139584511518477,0.007877711105160414,-0.0031110446926206348
1783696417175626500,6.10162646484375,-0.02656009014546871,-0.0026313714168965815,0.007994652015715836
1783696417185589500,6.111589599609375,-0.03045651306211948,-0.0047043782986700535,-0.0008531827632337808
1783696417195552500,6.121552490234375,-0.01728314323425293,0.007073555115424096,-0.0036326208813115953
1783696417205515500,6.131515625,-0.042725043004751204,0.009350633201934397,0.007785502777062356
1783696417215478800,6.141478759765625,-0.026571196061372756,-0.0075593658709898585,-0.01745126634277403
1783696417225441800,6.15144189453125,-0.008755553385615348,0.016919387955777347,-0.001599507618509233
1783696417235404500,6.161404541015625,-0.04691840304136276,-0.006539959695376456,-0.007645290588773787
1783696417245368600,6.17136865234375,-0.03509820138812065,-0.007379588857293128,-0.010634827793575823
1783696417255331600,6.18133154296875,-0.021323358535766602,-0.0066614306505769485,0.013122114564664661
1783696417265294600,6.191294677734375,-0.03404313937723637,-0.0027046923814341424,-0.00011325111612677573
1783696417275257600,6.201257568359375,-0.021476503270864485,0.0037014118012040852,-0.0008968392418697476
1783696417285220600,6.211220703125,-0.022817981007695196,0.0033801804902032014,-0.002352517942897975
1783696417295183600,6.22118359375,-0.04317278677225113,0.005457096362113952,-0.00001983721163123846
1783696417305147600,6.231147705078125,-0.027910920232534407,-0.002610219031013548,-0.024096184249967335
1783696417315110700,6.241110595703125,-0.019973697492480277,0.009106704910844563,-0.0018458105297759174
1783696417325073400,6.251073486328125,-0.037482466176152224,0.013162556172907352,-0.002883008090406656
1783696417335036400,6.261036376953125,-0.024310265392065048,0.005262742833793163,-0.006890197905153036
1783696417344999400,6.27099951171875,-0.03821370306015014,0.001997311297059059,-0.008119264776073396
1783696417354962700,6.280962646484375,-0.04106324727237224,0.005493044458329677,-0.010703289919905363
1783696417364926500,6.290926513671875,-0.03567220188379287,0.0010289046563208102,-0.00497574258595705
1783696417374889700,6.3008896484375,-0.031028759992122647,0.004295066845417022,0.022907157128490507
1783696417384852700,6.310852783203125,-0.04030921403467655,-0.0063009267751127475,-0.009360314345732331
1783696417394815700,6.320815673828125,-0.025496260306239128,0.007182860708795488,-0.01802979688309133
1783696417404778500,6.330778564453125,-0.023099136036634445,0.003930179055780172,-0.0003548778522759676
1783696417414741500,6.340741455078125,-0.02998480389714241,-0.004623787343129515,-0.010444858179427682
1783696417424704500,6.35070458984375,-0.016510405296087265,0.0065006140656769275,-0.001075301081314683
1783696417434668500,6.36066845703125,-0.03491173890531063,0.002910261423513293,-0.0011894289802759886
1783696417444631600,6.370631591796875,-0.03910568346381187,-0.003513378415815532,0.0053375251030549405
1783696417454594600,6.380594482421875,-0.021591069561243056,0.007586911465041339,-0.0033767098914831875
1783696417464557600,6.3905576171875,-0.038055882149934765,-0.00019292875621467829,-0.008828874350152909
1783696417474520600,6.4005205078125,-0.02848842785954475,-0.019837796153128147,-0.0034598946629092095
1783696417484483600,6.410483642578125,-0.03028349458277225,0.011345094954781233,0.0006369827292859554
1783696417494447600,6.420447509765625,-0.04165595246851444,0.0016888664023950695,0.000387757208570838
1783696417504410600,6.43041064453125,-0.03252805863916874,-0.0016719152675941586,-0.008640694834291935
1783696417514373600,6.44037353515625,-0.010977321088314056,0.012667393067106604,0.002232837085984647
1783696417524336600,6.450336669921875,-0.03925882819890976,-0.011082279300130903,-0.0030703838886693116
1783696417534299600,6.460299560546875,-0.028935002583265302,-0.012654022128880024,-0.011022767665237188
1783696417544262700,6.4702626953125,-0.03356616951525211,0.009729768712632357,-0.008761179408803582
1783696417554225700,6.4802255859375,-0.032819150540232656,0.0001965089527890086,-0.0013011822590604423
1783696417564189700,6.490189697265625,-0.02324818911850452,-0.0038323081718757744,-0.014322064938955008
1783696417574152700,6.500152587890625,-0.028180384823679922,0.00403743882253766,0.00191704913508147
1783696417584115500,6.510115478515625,-0.032223522734642025,-0.0092372359553352,-0.003004296382516622
1783696417594078500,6.520078369140625,-0.006334463718533516,-0.0015467179853469132,-0.01295388185828924
1783696417604041500,6.53004150390625,-0.011717325800657272,0.00957362830284983,-0.002518850953131914
1783696417614004700,6.540004638671875,-0.04599252036809921,-0.0059063014343380925,-0.008072137698717416
1783696417623968300,6.54996826171875,-0.01771276682317257,0.01831537235882133,-0.012342435429058968
1783696417633931500,6.559931640625,-0.03087269264757633,0.006454582966864108,0.003191051126271486
1783696417643894500,6.56989453125,-0.03656359776556491,-0.006655512366443872,-0.0021370850939303634
1783696417653857500,6.579857421875,-0.032227029865980146,0.0049738794224336745,-0.015174188256263732
1783696417663820500,6.589820556640625,-0.023691256710886954,0.018723076376877725,-0.0015664455991238355
1783696417673783600,6.599783447265625,-0.030126842716336248,-0.011402012773789464,-0.003854191210120916
1783696417683746600,6.60974658203125,-0.019056582647562027,0.003406776236183941,0.00430949722956866
1783696417693710600,6.619710693359375,-0.04015256216824054,0.005446501902863383,0.0018706527100875972
1783696417703673300,6.62967333984375,-0.04359890322983265,-0.010148249853029846,-0.006940539852902293
1783696417713636400,6.63963623046875,-0.03042787148952484,0.00935991248693317,-0.009447883031331003
1783696417723599400,6.649599365234375,-0.038655601608753205,0.005125526320189237,0.01852295069489628
1783696417733562400,6.659562255859375,-0.04330547324120998,-0.009318667161092161,-0.013880531716533005
1783696417743525600,6.669525634765625,-0.01591360844671726,0.0018439838988706467,-0.0057915890134871
1783696417753489400,6.679489501953125,-0.030717794346809386,-0.017489844787493346,0.003101034755259752
1783696417763452400,6.689452392578125,-0.025330840611457822,-0.01229655046071857,0.005691854966059327
1783696417773415700,6.699415771484375,-0.028320085555315015,0.01082457821201533,-0.0020865970157086847
1783696417783378400,6.70937841796875,-0.028020810347795484,0.010261464436538517,-0.002141030616685748
1783696417793341400,6.719341552734375,-0.019342998373508453,-0.009440320779383182,-0.00856054227016866
1783696417803304400,6.729304443359375,-0.022038228806853292,0.004595547629334032,0.0070898121304810045
1783696417813267500,6.739267333984375,-0.03191723326444626,0.005261683387868106,-0.0028003713082522153
1783696417823231500,6.7492314453125,-0.02249240231513977,0.009897453429736197,-0.0024305516151711345
1783696417833194500,6.759194580078125,-0.01755319234728813,0.016675824990868567,-0.004607603393308818
1783696417843157500,6.769157470703125,-0.03191781778633594,0.00247055483199656,0.005691160846315324
1783696417853120500,6.77912060546875,-0.03655482993721962,0.01170158024225384,-0.01226399989798665
1783696417863083300,6.789083251953125,-0.027270868763327596,0.004180975479073822,-0.003567154429666698
1783696417873046300,6.79904638671875,-0.043887072521448134,-0.003301854556985199,0.006002966741845011
1783696417883010300,6.80901025390625,-0.028625205981731412,-0.0025465061450377106,-0.006091229547187686
1783696417892973300,6.818973388671875,-0.02412672551870346,-0.004346468239091336,0.003972264631837606
1783696417902936600,6.8289365234375,-0.03775251528918743,-0.005600048496760428,-0.006826485019177198
1783696417912899600,6.838899658203125,-0.007526888373494148,0.00104220252931118,-0.0006783741855993867
1783696417922862600,6.848862548828125,-0.030713118171691894,-0.0003986073961481452,0.0055104705171659584
1783696417932825600,6.85882568359375,-0.035953356912732125,-0.003870777018740773,0.0035347134647890923
1783696417942789600,6.86878955078125,-0.024129648128151892,0.002286174708418548,0.005577325208298862
1783696417952752600,6.878752685546875,-0.02846153985261917,0.007210296704992652,0.0023944573884829875
1783696417962715400,6.88871533203125,-0.02846153985261917,-0.005817929031141102,-0.009861030409485102
1783696417972678400,6.898678466796875,-0.028010873475670814,0.005661861686594784,-0.008213993854820727
1783696417982641400,6.908641357421875,-0.027858313262462613,-0.0031420608853921293,-0.0011533712862059474
1783696417992604400,6.9186044921875,-0.041032267612218856,0.0021116949243471027,-0.012830657337419688
1783696418002567400,6.9285673828125,-0.011699790143966673,0.014142178327403962,-0.005178462083823979
1783696418012531500,6.938531494140625,-0.028155834904313087,0.010508278804458678,-0.005689115019701421
1783696418022494500,6.948494384765625,-0.025317981129884717,0.00018562223259359597,-0.00029770430494099854
1783696418032457500,6.95845751953125,-0.029060090267658233,0.007062887590937316,-0.008187690369784832
1783696418042420500,6.96842041015625,-0.02890811457633972,0.014405067047290504,-0.007525938525423407
1783696418052383500,6.978383544921875,-0.03504734798371792,-0.010149491962045431,-0.014570523274689912
1783696418062346500,6.988346435546875,-0.011401683980226516,-0.0061436538541689515,0.0006576236585155129
1783696418072309500,6.9983095703125,-0.03923310923576355,-0.003999737160652875,0.0016049875112250447
1783696418082273500,7.0082734375,-0.02233165879547596,0.0018214067408815024,-0.0042987566398456694
1783696418092236500,7.018236572265625,-0.030255437532067296,0.00365479618050158,0.0023751681661233304
1783696418102199600,7.028199462890625,-0.028012627041339874,0.0005521539900451898,0.009705949445627629
1783696418112162600,7.03816259765625,-0.02816518725454807,-0.0084419939244166,-0.007987966546602547
1783696418122125300,7.048125244140625,-0.018285013753175733,0.008701923502236605,0.0015484350183978676
1783696418132088300,7.05808837890625,-0.03429623735547065,-0.008324468491971493,0.0015029153762385248
1783696418142052400,7.06805224609375,-0.009606032735109328,-0.0071796093057841055,0.005316007390990853
1783696418152015400,7.078015380859375,-0.010644143611192702,0.006687551472522318,-0.007748312571831047
1783696418161978400,7.087978271484375,-0.045962125229835504,-0.008228168510645627,-0.002485460140183568
1783696418171941600,7.097941650390625,-0.026813772645592687,-0.01058532609604299,-0.010152085777930914
1783696418181904600,7.107904541015625,-0.012892799320816993,0.0006124693425372242,0.0012603387920185924
1783696418191867600,7.11786767578125,-0.025919454154372214,-0.00048635874483734365,-0.01209320990834385
1783696418201830400,7.127830322265625,-0.02547346395254135,-0.005018266553431749,-0.0034401670491322873
1783696418211794400,7.13779443359375,-0.026218729361891745,-0.0015992153575643895,0.003240735486894846
1783696418221757400,7.14775732421875,-0.04179097702503204,-0.013594371718913315,-0.00561667083799839
1783696418231720400,7.157720458984375,-0.014107435807585715,-0.0004679828379303217,-0.00931797304134816
1783696418241683500,7.167683349609375,-0.013801146337389944,0.011907478077895939,-0.007370784496329725
1783696418251646500,7.177646484375,-0.03431085040271282,-0.006180296070128679,-0.0053268941111862655
1783696418261609500,7.187609375,-0.036998482051491734,0.0036080709619447588,-0.007625453377142548
1783696418271573500,7.197573486328125,-0.024726444977521893,-0.0041681159975007175,-0.0034989845642819997
1783696418281536500,7.20753662109375,-0.020845219630002975,-0.006947444517724216,0.014643771173991262
1783696418291499300,7.217499267578125,-0.019946809485554693,0.011102116511762142,-0.0036992563767358658
1783696418301462500,7.227462646484375,-0.03969546605050563,0.0006521072331815957,-0.01251527124531567
1783696418311425500,7.237425537109375,-0.03476443938910961,-0.0050138826392590995,-0.0023110534213483334
1783696418321388500,7.247388427734375,-0.006476502537727356,0.0025934505593031643,0.003718436001241207
1783696418331351600,7.2573515625,-0.024732874718308446,0.0008786459980532526,0.006311448169127106
1783696418341315600,7.267315673828125,-0.03551028932034969,-0.012102233465015887,-0.005600852214358747
1783696418351278600,7.277278564453125,-0.03356500047147274,-0.006424443556927144,-0.001552015214972198
1783696418361241600,7.28724169921875,-0.044484453892707825,-0.009864245279878378,0.009559417114406823
1783696418371204400,7.297204345703125,-0.0340156668484211,0.002535107968188822,-0.002979929126240313
1783696418381167400,7.30716748046875,-0.021591069561243056,0.009491831770911813,0.003727386492677033
1783696418391130400,7.31713037109375,-0.0328127207994461,0.0041731940314173694,-0.0028282822284847495
1783696418401094400,7.327094482421875,-0.014561609315872191,0.013287278531119226,-0.0005804667690768837
1783696418411057400,7.337057373046875,-0.021589315995573996,0.011164039299450814,-0.0024901363153010604
1783696418421020400,7.3470205078125,-0.03580781096220016,-0.0011622487124055623,-0.006869593508541583
1783696418430983400,7.3569833984375,-0.0224953249245882,-0.006291976283676922,0.000967456792667508
1783696418440946700,7.36694677734375,-0.018449848926067353,0.014921455604210494,-0.011717873789928853
1783696418450909400,7.376909423828125,-0.041644846552610394,-0.0034217911422252654,-0.003233209767565131
1783696418460872400,7.38687255859375,-0.02863105120062828,0.0025624708991497753,0.009027977118827402
1783696418470836500,7.39683642578125,-0.013661445605754852,0.010910941321216523,0.005765285528451204
1783696418480799500,7.406799560546875,-0.049418987685441965,0.0006869958834722638,-0.004517550489678978
1783696418490762500,7.416762451171875,-0.019041385078430173,0.018151340903528032,-0.012419884579442441
1783696418500725500,7.4267255859375,-0.031308161455392836,0.014281221471913158,0.006003332068026066
1783696418510688500,7.4366884765625,-0.029060090267658233,-0.011667677972652018,-0.006731573277339339
1783696418520651500,7.446651611328125,-0.03174596835076809,0.0009569353986531496,-0.013702910127304494
1783696418530614300,7.4566142578125,-0.02470189505815506,-0.009621266836859285,0.013950491680204867
1783696418540578300,7.466578369140625,-0.03577683130204677,-0.016572328083775935,0.004507978943735361
1783696418550541300,7.476541259765625,-0.02335164949297905,0.004389795924164355,-0.016706110531277952
1783696418560504300,7.48650439453125,-0.030974399456381797,0.0005613236771896481,0.0027634002987295386
1783696418570467600,7.496467529296875,-0.02484159578979015,0.0013960209356620908,-0.0009832388836890458
1783696418580430600,7.5064306640625,-0.015710779350996018,0.005612286923825741,-0.016018566658534107
1783696418590393600,7.5163935546875,-0.038602410116791726,0.010241188833490013,0.0056109352169558405
1783696418600356600,7.526356689453125,-0.029330139380693433,0.011749182243645191,0.0037861309425905347
1783696418610320600,7.536320556640625,-0.017657237243652344,0.011734788392111659,-0.0054999491231516
1783696418620283000,7.546282958984375,-0.04069616752564907,0.011748122797720133,0.00017634294759482144
1783696418630246000,7.556245849609375,-0.036358430582284926,0.006990297278761863,-0.01478073195926845
1783696418640209000,7.566208984375,-0.018993454283475875,0.014089279096387327,-0.020553798935376108
1783696418650172000,7.576171875,-0.05505027157068252,0.00007405161689966917,0.001853665042668581
1783696418660135000,7.586135009765625,-0.026321605214476584,0.003444222169741988,-0.0006954714508727193
1783696418670098000,7.596097900390625,-0.011951134556531906,0.0036606779320165514,-0.013010324753262102
1783696418680061700,7.606061767578125,-0.024221418064832686,-0.0077197805970907205,0.0009096987234428524
1783696418690025000,7.61602490234375,-0.018542787906527518,-0.014833338929340242,0.011505948072299361
1783696418699988000,7.625988037109375,-0.02077566152513027,-0.0037169746965169904,-0.010821107613295316
1783696418709951000,7.635950927734375,-0.04397358176112175,-0.006052066580578684,0.0007318579385057092
1783696418719914000,7.6459140625,-0.021088380736112595,-0.007678096879832446,-0.015943199867382643
1783696418729877000,7.655876953125,-0.013149404430389403,-0.002085902895964682,-0.0015312646878883243
1783696418739841000,7.665841064453125,-0.04322422469854355,0.001163015897385776,-0.005730141149833798
1783696418749803800,7.6758037109375,-0.02497252869307995,-0.0015871230609714984,-0.006141936821117997
1783696418759766800,7.685766845703125,-0.02018354085087776,0.014154343689233065,-0.0018597659898921847
1783696418769729800,7.695729736328125,-0.020484569624066352,-0.0022368556739762423,-0.01088189788982272
1783696418779692800,7.70569287109375,-0.02078618291914463,0.008995097762532532,-0.01665748561657965
1783696418789655800,7.71565576171875,-0.028414193579554554,0.015601144964061677,-0.004071962146647274
1783696418799619000,7.725619140625,-0.05205693497359752,-0.017175554673932492,-0.00974646411910653
1783696418809582800,7.735582763671875,-0.021379472637176513,-0.01181391804292798,-0.009016980800777672
1783696418819546000,7.745546142578125,-0.029904724398255346,-0.0003176145818084478,0.003630282793752849
1783696418829508900,7.7555087890625,-0.031107670447230337,0.0023905483983457086,0.00840991828572005
1783696418839471900,7.765471923828125,-0.0050672202616930005,-0.005764737539179623,-0.00236713099014014
1783696418849435000,7.775434814453125,-0.027362054178118704,-0.0030316227808594703,0.006978424177877605
1783696418859398000,7.78539794921875,-0.023185060754418372,0.005133453898318111,-0.004600881391577423
1783696418869361000,7.79536083984375,-0.011817863565683364,0.003636785599775612,0.00408051077928394
1783696418879325000,7.805324951171875,-0.02572890001833439,0.013385149415023624,0.008251403255760669
1783696418889288000,7.815287841796875,-0.04249357233643532,-0.0012920125719159841,-0.0071564841585233805
1783696418899251000,7.8252509765625,-0.02363397356569767,0.004738645894452929,-0.01136350739430636
1783696418909213700,7.835213623046875,-0.027663082951307295,-0.003845496447011828,-0.001864844023808837
1783696418919176700,7.8451767578125,-0.032304771277308464,-0.008202486080117524,-0.00804652833342552
1783696418929140000,7.855139892578125,-0.015692074650526047,0.013264445644803344,0.0033430633502081033
1783696418939103000,7.86510302734375,-0.034089316606521605,0.003454816628992557,-0.009051869451068341
1783696418949066800,7.875066650390625,-0.040673955693840975,-0.0013899930536746979,-0.014503230192139744
1783696418959030000,7.885030029296875,-0.0322901582300663,0.011261800585500895,-0.00404540293328464
1783696418968993000,7.894992919921875,-0.036032851889729496,0.0012874459946528077,-0.0007690481437370181
1783696418978956000,7.9049560546875,-0.040378772139549254,-0.005580759274400771,-0.0018157441850751637
1783696418988918800,7.914918701171875,-0.0337888723552227,-0.0004927519530057906,-0.006770809309184551
1783696418998881800,7.9248818359375,-0.04740414073169231,-0.0018202742297202348,0.0021467662377282976
1783696419008844800,7.9348447265625,-0.025413258197903632,-0.002399023965746164,-0.0023650486309081315
1783696419018808800,7.944808837890625,-0.014781389546394347,0.002662570272758603,0.0028436989933252332
1783696419028771800,7.954771728515625,-0.03348550549447536,0.005099734291806816,0.004571655297093093
1783696419038734800,7.96473486328125,-0.03453647585213184,0.003996631888113915,-0.009928250426799057
1783696419048697900,7.97469775390625,-0.021364275068044662,0.00687098174802959,0.01087784276921302
1783696419058660900,7.984660888671875,-0.037376667714118954,-0.0028058877335861323,0.0035099808823317287
1783696419068624000,7.994623779296875,-0.01193476794362068,0.004990830557234585,-0.010041428477689624
1783696419078587000,8.0045869140625,-0.032874680119752885,0.019872903999127445,0.00012764496766030787
1783696419088551000,8.014551025390626,-0.03182721689343452,0.000012201894447207451,0.0015787205588072538
1783696419098514000,8.024513916015625,-0.018508885636925695,-0.0094539474459365,-0.0034791838852688667
1783696419108477000,8.034476806640624,-0.03301613441705704,-0.0037269846338778734,-0.0041516397867351765
1783696419118440000,8.04443994140625,-0.02988017447888851,-0.0006888225143775343,-0.005822678271494805
1783696419128403000,8.05440283203125,-0.024340076008439064,-0.002870806195959449,-0.01703296786546707
1783696419138366000,8.064365966796874,-0.0220902512550354,0.0005098126856610179,-0.002727744463458657
1783696419148328700,8.07432861328125,-0.028080431580543515,-0.0074169617256149645,0.00023450287561863658
1783696419158292700,8.084292724609375,-0.014758593192696571,0.004311214262619614,-0.006944083516858518
1783696419168255700,8.094255859375,-0.02327449260354042,-0.009427570895664393,-0.0017787731755524872
1783696419178218800,8.10421875,-0.039890111839771265,-0.015478614562936126,0.006209083773195743
1783696419188181800,8.114181640625,-0.021484686577320097,0.007532733592391014,-0.012154292445816098
1783696419198145000,8.12414501953125,-0.03718786714375019,-0.015404307217709719,0.00336140272449702
1783696419208108000,8.13410791015625,-0.041083705538511275,-0.018351101259328425,0.008100450477749108
1783696419218072000,8.144072021484375,-0.007721534162759781,0.013339227914065123,-0.0011419365767389535
1783696419228035000,8.15403515625,-0.03974807302057743,-0.004687719424813985,0.016688099950551986
1783696419237997800,8.163997802734375,-0.037514030358195304,0.009011939299479126,-0.01215787264239043
1783696419247960800,8.1739609375,-0.01671440343558788,0.00494158458802849,-0.01287420421820134
1783696419257923800,8.183923828125,-0.04949088387787342,-0.005955912729725241,-0.011278824785538016
1783696419267886800,8.193886962890625,-0.03962123177051544,-0.01964629216901958,-0.0237752817325294
1783696419277849900,8.203849853515624,-0.01327507663667202,0.0007699614591896533,-0.005093048822693526
1783696419287812900,8.213812744140625,-0.02539630706310272,-0.005449095718748867,0.010110036734491587
1783696419297777000,8.22377685546875,-0.04036591265797615,0.009428593808971346,-0.01524275998044759
1783696419307740000,8.233739990234374,-0.04260580053925514,0.007317373808659613,-0.0012853271028026938
1783696419317702700,8.24370263671875,-0.03825988028943538,-0.013419490076042711,-0.0010609072297811507
1783696419327666000,8.253666015625,-0.04125204784274101,0.00439779656752944,-0.0016425430426374077
1783696419337629000,8.26362890625,-0.026429741764068603,0.009611183834262191,-0.0007938903240486979
1783696419347592000,8.273592041015625,-0.03885083191990852,-0.02027421480901539,-0.00964311334248632
1783696419357555000,8.283554931640625,-0.03586158697605133,-0.014948124415427446,-0.000638370968773961
1783696419367519000,8.29351904296875,-0.028519992041587828,0.004703866842016577,0.0014670768778771162
1783696419377482000,8.30348193359375,-0.04453238468766212,-0.002147350759617984,0.0010135609567165373
1783696419387445000,8.313445068359375,-0.014157120168209076,-0.0011397811522707343,-0.0030908421548083423
1783696419397407700,8.32340771484375,-0.02238134315609932,0.0049673035511747,0.010547295640595257
1783696419407370800,8.333370849609375,-0.045425534135103224,-0.016179200580343604,0.0022276494542136788
1783696419417333800,8.343333740234375,-0.030760464444756507,0.009003975188732147,-0.0034990210969001053
1783696419427296800,8.353296875,-0.03404898459613323,0.0015378405591472983,-0.006446253529936075
1783696419437260800,8.3632607421875,-0.028816344639658927,-0.0048816710943356155,-0.0021502368364483115
1783696419447223800,8.373223876953125,-0.02792027258276939,-0.004024250547401607,-0.011777495022676884
1783696419457186800,8.383186767578126,-0.03914250834286213,-0.0004680924357846379,-0.00624700463078916
1783696419467150000,8.393150146484375,-0.03974982658624649,-0.0008203034069389104,-0.014812442271783946
1783696419477112800,8.40311279296875,-0.01550327408015728,-0.00238623754940927,-0.007688910534791648
1783696419487075800,8.413075927734376,-0.030765725141763685,-0.0020483838971704243,0.008860621195286512
1783696419497038800,8.423038818359375,-0.03420680550634861,-0.0060388783054426305,-0.002546981069073081
1783696419507003000,8.4330029296875,-0.02163666226863861,0.006462437479756772,-0.0077248951636254785
1783696419516966000,8.4429658203125,-0.039893618971109386,-0.008723039355501533,0.002388831365294754
1783696419526929000,8.452928955078125,-0.036006548404693604,-0.0154460274675861,-0.007395297883078455
1783696419536892000,8.462891845703124,-0.006823708540201187,0.015468860353901982,0.00036247663684189316
1783696419546855000,8.47285498046875,-0.04781973579525947,-0.013527480495162307,-0.0011598010269924998
1783696419556817700,8.482817626953125,-0.03137012077569962,-0.0017743161961436271,-0.007554945424199104
1783696419566781000,8.492781005859374,-0.024186931273341178,-0.02084174903128296,-0.000004566577263176441
1783696419576744700,8.50274462890625,-0.040498599126935,0.0028582755079492924,0.0048840457145124675
1783696419586707700,8.512707763671875,-0.037059856849908826,-0.013284903910942374,-0.01256440761666745
1783696419596671000,8.5226708984375,-0.015201660785079002,0.012280804902315139,0.0017182386273518204
1783696419606634000,8.532634033203125,-0.03944295259416103,-0.012219430103898048,0.005699746011570096
1783696419616597000,8.542596923828125,-0.031364860078692436,-0.0011597644943743943,-0.0046891076643019915
1783696419626560000,8.55256005859375,-0.0321025267034769,0.007341960260644554,-0.008842501016706228
1783696419636522800,8.562522705078125,-0.02536415835916996,-0.02280632710251957,0.0023423253424465656
1783696419646487000,8.572487060546875,-0.018481413108110425,0.009317205856367946,-0.0037152941960841416
1783696419656449800,8.58244970703125,-0.030449498799443243,0.009485219367034732,-0.003816635678708553
1783696419666412800,8.592412841796875,-0.04017711208760738,0.0009988383116200565,0.003934014980681241
1783696419676375800,8.602375732421875,-0.029398528441786764,0.0008304229421541094,-0.0182672223681584
1783696419686338800,8.6123388671875,-0.035377602851390834,0.01658599128294736,0.015201551187224686
1783696419696301800,8.6223017578125,-0.04106383179426193,-0.0006454217640683055,-0.0006323065541684628
1783696419706265000,8.63226513671875,-0.016072013878822327,0.0025997707022354004,-0.009467026123218238
1783696419716228900,8.642228759765626,-0.021754735690355298,-0.015173348006047308,0.012539894229918717
1783696419726191900,8.65219189453125,-0.03672024963200092,-0.005611044814810157,-0.005800649102777242
1783696419736155000,8.66215478515625,-0.03282850289046764,-0.006587744359858334,-0.01818243016153574
1783696419746118000,8.672117919921876,-0.022791093000769615,-0.0015671762514859436,-0.007800444617867469
1783696419756081000,8.682080810546875,-0.013669628912210463,-0.01933941817693412,0.002202040088921785
1783696419766044000,8.6920439453125,-0.024587328767776487,0.008520465988107025,-0.016203056379966437
1783696419776007000,8.7020068359375,-0.030417934617400166,0.006175291101448237,-0.008933138442225754
1783696419785971000,8.711970947265625,-0.02353986554145813,-0.005011142692901194,-0.0019489055780693887
1783696419795934000,8.721933837890624,-0.01186637888252735,0.014704232656955718,0.0022346637168899177
1783696419805897000,8.73189697265625,-0.0299678527623415,-0.007418240367248654,-0.00749240158200264
1783696419815859700,8.741859619140625,-0.04239011196196079,-0.00786485162358731,-0.003249357184767723
1783696419825822700,8.75182275390625,-0.02323474511504173,-0.012271781345643102,0.0036655733028426764
1783696419835786000,8.761785888671875,-0.03640051615834236,-0.019267010527849196,0.006711480337381362
1783696419845749000,8.7717490234375,-0.04118541234731674,0.000840067553333938,-0.007928272248618305
1783696419855712000,8.7817119140625,-0.02157470294833183,0.006777604376152158,-0.002705897957831621
1783696419865676000,8.791676025390625,-0.03983049060702323,-0.007244052844122052,-0.009947137790359556
1783696419875639000,8.80163916015625,-0.010654665005207061,-0.003781381702236831,-0.013477723069302738
1783696419885602000,8.81160205078125,-0.027709260180592537,-0.0027164924170821904,-0.022286066088080404
1783696419895564800,8.821564697265625,-0.036387656676769256,-0.003841404793784022,0.0042371626457199454
1783696419905527800,8.83152783203125,-0.03653612523674965,0.011031681624054908,-0.007496237506903708
1783696419915490800,8.84149072265625,-0.03623158933222294,-0.0029501915751025077,-0.008612308990024029
1783696419925453800,8.851453857421875,-0.03982698347568512,-0.002608575063198805,-0.008851780301705003
1783696419935417900,8.86141796875,-0.027264439022541043,0.00038881665449589487,-0.005820486314408481
1783696419945380900,8.871380859375,-0.024717677149176595,0.011044796833954752,0.0025880437318235635
1783696419955344000,8.88134375,-0.029806524720788,-0.00014152736254036425,-0.0017590820943936705
1783696419965307000,8.891306884765624,-0.02801496512889862,0.005298983190953731,0.0026232246430590747
1783696419975270000,8.901269775390626,-0.019926351219415665,-0.0029877836391329765,-0.0006754881087690591
1783696419985233000,8.91123291015625,-0.03983049060702323,-0.00025408435892313716,0.005478833269886672
1783696419995196000,8.92119580078125,-0.026964579293131827,0.007391608088649809,-0.003586516717262566
1783696420005160000,8.931159912109376,-0.025767478463053703,-0.0009368789913132786,0.009060089290142058
1783696420015123000,8.941123046875,-0.0322071561217308,-0.005196728392876685,-0.0034543782375752925
1783696420025086000,8.9510859375,-0.021431495085358618,0.0023251184793189167,0.0035172508733347057
1783696420035049000,8.961049072265626,-0.025021044009923932,-0.016480156288295984,-0.00766914638839662
1783696420045012000,8.971011962890625,-0.04133680351674557,-0.011656937382929026,-0.014751250136457382
1783696420054974700,8.980974609375,-0.027266192588210104,-0.0039778906550258395,-0.01056183562260121
1783696420064937700,8.990937744140625,-0.02546644968986511,-0.007248984747566282,0.006806428611837327
1783696420074901800,9.00090185546875,-0.03729541917145252,-0.009305917277373373,0.006511427720636129
1783696420084864800,9.01086474609375,-0.022332243317365646,0.0019232962127774952,-0.012026939739100634
1783696420094827800,9.020827880859375,-0.022628011393547056,-0.005129873701743781,0.0003129018740728497
1783696420104791000,9.030791015625,-0.01395429107248783,-0.0065990329388529055,-0.004812332185171545
1783696420114754000,9.040754150390624,-0.027560791620612143,0.004224303164146841,0.00325575039293617
1783696420124717000,9.050717041015625,-0.05164367799758911,-0.007320406015962361,0.0003568871462717652
1783696420134679800,9.0606796875,-0.022616320955753326,-0.0070886430867016315,-0.0183570195434615
1783696420144643800,9.070643798828126,-0.023808161088824272,0.0033397023493424056,0.004001308063231408
1783696420154606800,9.08060693359375,-0.04056231201291084,-0.0029900121288374062,0.0010673004379495978
1783696420164569900,9.09056982421875,-0.026205285358428955,-0.0035526509802788495,-0.007424998901598155
1783696420174532900,9.100532958984376,-0.013486089038848877,0.005458009677566588,0.009293751915544272
1783696420184495900,9.110495849609375,-0.028003859212994572,-0.003811594177410006,0.002779693846404552
1783696420194459000,9.120458984375,-0.03729366560578346,-0.0018890286169946193,-0.010506196445226669
1783696420204422000,9.130421875,-0.03235036398470401,0.005875394839420915,-0.008693192206509411
1783696420214385000,9.140385009765625,-0.038486090260744094,0.007998487940616906,-0.00855466051865369
1783696420224348700,9.1503486328125,-0.03370236311554908,-0.011301146215200423,-0.014412958092801272
1783696420234312000,9.16031201171875,-0.02023497877717018,0.0022190277563408018,-0.004002842433191835
1783696420244275000,9.17027490234375,-0.045074236479401585,-0.0007587094128131866,-0.008230981522239745
1783696420254238000,9.180238037109374,-0.02233107427358627,-0.001656608100607991,-0.008340981235355139
1783696420264201000,9.190200927734375,-0.0375882646381855,0.011866451947763562,-0.005526654466986656
1783696420274164000,9.2001640625,-0.03534896127879619,-0.009037731327861547,-0.0046968891119584435
1783696420284127000,9.210126953125,-0.03205342686474323,0.010744389115273952,-0.011680135595425963
1783696420294091000,9.220091064453126,-0.020973814445734023,0.011577807732112705,-0.007724639435298741
1783696420304053800,9.2300537109375,-0.02621814484000206,-0.007477569339051842,-0.006163819859363138
1783696420314016800,9.240016845703124,-0.019786065965890883,-0.010020458754897116,-0.0004230111850425601
1783696420323979800,9.249979736328125,-0.020978490620851515,-0.0027095146870240567,0.00816222713496536
1783696420333942800,9.25994287109375,-0.03280219940543175,0.0001372530462220311,-0.0012021057987585662
1783696420343906000,9.269906005859376,-0.021873978155851362,-0.011160532168112695,-0.0003428951535373926
1783696420353869000,9.279869140625,-0.04221943157017231,-0.003851012872345745,0.006720138567872345
1783696420363832800,9.289832763671875,-0.041321605947613714,-0.0051225306455045935,-0.0029111016737297176
1783696420373796000,9.299796142578124,-0.03129471745193004,0.005749247709102928,0.003712152390927076
1783696420383758800,9.3097587890625,-0.03952244757115841,0.006502513761818408,-0.005342091680318117
1783696420394344700,9.3203447265625,-0.02456628597974777,-0.0014953531242907047,-0.00926971345283091
1783696420404308000,9.330307861328125,-0.02486789927482605,0.004541296691447496,-0.0007524623351171612
1783696420414271000,9.34027099609375,-0.023672552010416983,-0.011580438080616295,-0.01033197238948196
1783696420424234000,9.35023388671875,-0.03968319109082222,-0.00457940021213144,0.002121229937672615
1783696420434197000,9.360197021484375,-0.028154081338644027,-0.0009015154169872403,-0.010413074801675975
1783696420444160000,9.370159912109376,-0.03263970232009888,-0.0019548969274386764,0.0028107100391760466
1783696420454122800,9.380122802734375,-0.023216624936461448,0.005961940611712634,-0.004088438357412815
1783696420464086800,9.390086669921875,-0.024099837511777876,0.012850531081669031,-0.019431188113614915
1783696420474049800,9.4000498046875,-0.028140637335181233,-0.005233662869781256,0.003460661847889423
1783696420484012800,9.4100126953125,-0.028746786534786222,0.0018284940687939523,-0.0031066607784479856
1783696420493975800,9.419975830078124,-0.029188100561499595,-0.008499350134842097,-0.007658807657472789
1783696420503938800,9.429938720703126,-0.03936228857338428,-0.0035632454395294185,0.01117649692222476
1783696420513901800,9.43990185546875,-0.020061375775933265,-0.0033922362541779875,-0.011194069111533462
1783696420523865000,9.449864990234374,-0.025588614764809607,-0.000013590133935213088,-0.003745397073403001
1783696420533827800,9.459827880859375,-0.03172200295329094,-0.01649721702095121,-0.020666538594849408
1783696420543791900,9.4697919921875,-0.019305004450678825,-0.019231829616613686,-0.006620623716153204
1783696420553755000,9.4797548828125,-0.03261573692262173,-0.0037531054558232425,0.0007660890016704797
1783696420563718000,9.4897177734375,-0.029773206973075866,-0.013179068916290998,-0.002953662173822522
1783696420573681000,9.499680908203125,-0.018847908332943916,0.0020061521906405686,-0.006198379716090858
1783696420583644000,9.509643798828124,-0.03500058623254299,0.00396554263010621,0.014693747795559466
1783696420593607000,9.51960693359375,-0.029468671068549154,0.0016165318185463547,0.001596840737387538
1783696420603570000,9.52956982421875,-0.02377718142867088,0.0009324950771406293,-0.011304068824648857
1783696420613534000,9.539533935546874,-0.03439326798915863,-0.00230677910503,-0.006032046705856919
1783696420623496700,9.54949658203125,-0.03245265531539917,-0.01600716848168522,-0.004883205464296042
1783696420633459700,9.559459716796875,-0.023321254354715347,0.005861293248832226,-0.001979373781569302
1783696420643422700,9.569422607421876,-0.04187281008958816,-0.003645297699794173,0.006205868902802467
1783696420653385700,9.5793857421875,-0.03244973270595074,-0.018439217934198678,-0.007923413410410285
1783696420663348700,9.5893486328125,-0.02166705740690231,0.004577610113844275,-0.01302530312668532
1783696420673311700,9.599311767578126,-0.03094108170866966,0.0029924963468685745,0.002368921088427305
1783696420683275800,9.60927587890625,-0.03782967217862606,-0.008563464879617094,-0.004771232989802956
1783696420693238800,9.61923876953125,-0.020021628287434576,-0.01053564173541963,0.0039025238638743754
1783696420703824000,9.629823974609375,-0.03109013479053974,-0.013698818474076687,-0.018499789015017448
1783696420713787000,9.639786865234376,-0.030493337941169738,0.007082432541623711,-0.005399046031944453
1783696420723751000,9.6497509765625,-0.018072832307219504,-0.009209251969866454,0.005177767964079975
1783696420733713700,9.659713623046875,-0.03153787855803966,-0.017296258444152772,0.00002871463783085346
1783696420743676700,9.6696767578125,-0.027054011142253875,-0.0023125147260725496,-0.005678082169033587
1783696420753639700,9.6796396484375,-0.027502339431643485,0.011052030292339622,0.001125569963827729
1783696420763602700,9.689602783203124,-0.04561199661791324,-0.010607574460469185,-0.01871982497386634
1783696420773565700,9.699565673828126,-0.02556406484544277,0.0013408566823229194,-0.007820720220915973
1783696420783528700,9.70952880859375,-0.027195465439558027,0.0035372707480564713,0.0014401523383334278
1783696420793492700,9.71949267578125,-0.04484919555187225,-0.006428644808009266,-0.011413009091839194
1783696420803455700,9.729455810546876,-0.01597206063568592,-0.010473536284640431,-0.012815496300905942
1783696420813418800,9.739418701171875,-0.014921674799919127,0.0034996421514078974,-0.003092047731205821
1783696420823381800,9.7493818359375,-0.03900982187390327,-0.014198146298341452,-0.009868556128814815
1783696420833344800,9.7593447265625,-0.020903671818971632,0.001148183654434979,-0.0135395727917552
1783696420843307800,9.769307861328125,-0.031226328390836715,-0.0029713804936036467,0.0074056000813841815
1783696420853270800,9.779270751953124,-0.029734044006466863,-0.013860146515630185,0.0008979352204129099
1783696420863234800,9.78923486328125,-0.026898528319597242,0.004410802179574966,-0.006536379498802125
1783696420873197800,9.79919775390625,-0.0282423441439867,-0.01878258801177144,0.003397168157622218
1783696420883160800,9.809160888671874,-0.04171031300425529,-0.00457629493959248,-0.01676792372111231
1783696420893123600,9.81912353515625,-0.021057401075959204,-0.0036291868152096866,0.0013747224193066357
1783696420903086600,9.829086669921875,-0.03078209175467491,0.0013166355565190314,-0.010203889030404388
1783696420913049600,9.839049560546876,-0.044407297003269196,-0.005977795767970383,-0.01570573784969747
1783696420923012600,9.8490126953125,-0.01926642600595951,-0.007207556758634746,-0.007331731127575039
1783696420932976600,9.8589765625,-0.02659633050262928,-0.005355718346871435,0.0030142697872593996
1783696420942939600,9.868939697265626,-0.024209727627038956,0.003218815916031599,-0.005224566247873008
1783696420952903000,9.87890283203125,-0.022418168035149573,0.0022075930468738077,-0.008447729545459151
1783696420962866000,9.888865966796875,-0.04246960693895817,-0.015512918691337108,0.012802198427915572
1783696420972828700,9.89882861328125,-0.07934475487172603,0.006497618390992284,-0.013708463085256516
1783696420982791700,9.908791748046875,-0.10348667795956135,0.11732125164251773,-0.10131097788829356
1783696420992754700,9.918754638671874,0.22856793261170386,0.048536359632015226,0.026153774366900324
1783696421002718700,9.92871875,0.0494435376048088,-0.23005835383255033,0.12057773268781602
1783696421012681700,9.938681640625,-0.32288521568775175,0.012594583559222518,-0.00029989626202732325
1783696421022644700,9.948644775390624,-0.24781097774207592,0.07396832253038883,-0.09537523116376251
1783696421032607700,9.958607666015626,0.21523907996118066,-0.06187978879716247,0.038154995142854746
1783696421042570800,9.96857080078125,0.24624621264338492,-0.04730769461989402,0.08414393531437962
1783696421052533500,9.978533447265624,-0.18200024270415305,0.01195738163422793,-0.016507628817111254
1783696421062496800,9.988496826171875,-0.24748539904952047,0.06154372524321079,-0.08619703191928565
1783696421072459800,9.998459716796875,0.01189209784567356,-0.006137918233126402,-0.00934559170063585
