time,seconds_elapsed,z,y,x
1783696421869344800,0.0623447265625,0.00028585304971784353,-0.0055608805269002914,-0.007315547671169043
1783696421879307800,0.072307861328125,0.001001444412395358,0.018069347366690636,0.0067781670950353146
1783696421889270800,0.082270751953125,-0.0007208355818875134,0.002764524659141898,0.006230013910681009
1783696421899233800,0.09223388671875,0.00018969920347444713,-0.015216073952615261,-0.0044186352752149105
1783696421909196800,0.10219677734375,-0.0014533073408529162,-0.0004255349049344659,-0.002839128253981471
1783696421919159800,0.112159912109375,-0.0007502328371629119,0.009656660258769989,0.0037165090907365084
1783696421929123800,0.122123779296875,-0.0007731423247605562,0.00014995457604527473,-0.0008705289801582694
1783696421939086600,0.132086669921875,0.0001528387365397066,-0.008721034973859787,-0.004565398674458265
1783696421949049600,0.142049560546875,0.00006526330253109336,-0.002336407545953989,0.0025029974058270454
1783696421959012900,0.152012939453125,-0.0004138393560424447,0.007507700938731432,0.004802104085683823
1783696421968976000,0.161975830078125,0.00022294928203336895,0.0003551744157448411,-0.0008495744550600648
1783696421978939000,0.17193896484375,-0.00008943953434936702,-0.008534456603229046,-0.00629041250795126
1783696421988902000,0.18190185546875,-0.00020221268641762435,0.0039334907196462154,0.002293600467965007
1783696421998866000,0.191865966796875,0.00018447829643264413,0.006189721170812845,0.005182331427931786
1783696422008829000,0.201828857421875,-0.00044778105802834034,-0.003845401806756854,-0.0011980946874246001
1783696422018791700,0.211791748046875,0.00006221429794095457,-0.0031878675799816847,-0.007247465196996927
1783696422028754700,0.221754638671875,0.0010124054970219731,0.0037569324485957623,0.0019904267974197865
1783696422038717700,0.2317177734375,0.0016765979817137122,0.0010287901386618614,0.0043731569312512875
1783696422048680700,0.2416806640625,-0.0010583768598735332,-0.0034750448539853096,-0.003355064895004034
1783696422058643700,0.251643798828125,-0.0005246793734841049,-0.0025408081710338593,-0.001607231912203133
1783696422068607000,0.26160693359375,-0.00020969350589439273,0.002859126077964902,0.0015913094393908978
1783696422078570800,0.27157080078125,0.0012044450268149376,0.0035875006578862667,-0.00008967786561697721
1783696422088533800,0.28153369140625,0.000845673494040966,-0.0036032660864293575,-0.0008796714246273041
1783696422098496800,0.291496826171875,-0.0011919110547751188,-0.0025092391297221184,-0.00015316111966967583
1783696422108459800,0.301459716796875,0.0012722265673801303,0.005478051491081715,0.0007411408005282283
1783696422118422800,0.3114228515625,0.0015997954178601503,0.0006492079701274633,0.0012474077520892024
1783696422128385800,0.3213857421875,-0.00048708554822951555,-0.0036663683131337166,-0.002123437821865082
1783696422138348800,0.331348876953125,0.0012540891766548157,0.00200003944337368,-0.0012999885948374867
1783696422148312800,0.341312744140625,0.0006130888941697776,0.0013126013800501823,0.0022048139944672585
1783696422158275800,0.35127587890625,-0.0005690883263014257,-0.0018467067275196314,-0.0012178805191069841
1783696422168238800,0.36123876953125,-0.0011386151891201735,-0.00024050509091466665,-0.0018705253023654222
1783696422178201600,0.37120166015625,0.0009988379897549748,-0.0018796806689351797,0.001352432300336659
1783696422188164600,0.38116455078125,0.0005965853342786431,-0.0005266724620014429,0.0008243033662438393
1783696422198127900,0.3911279296875,-0.000504365423694253,0.0021383529528975487,-0.0002132642548531294
1783696422208091000,0.4010908203125,0.0014493085909634829,-0.0006506810896098614,-0.0006130766123533249
1783696422218054000,0.411053955078125,0.0005118758417665958,0.0006952806143090129,-0.00011160341091454029
1783696422228018000,0.421017822265625,-0.00033610491664148867,0.002529475837945938,0.0008004466653801501
1783696422237981000,0.43098095703125,0.00002901448169723153,-0.002315347082912922,0.000797250890173018
1783696422247944000,0.44094384765625,0.0016637120861560106,0.00006006215699017048,-0.002497438807040453
1783696422257906700,0.45090673828125,0.0001576944487169385,0.0018965781200677156,0.00046586047392338514
1783696422267869700,0.46086962890625,-0.0007199548417702317,-0.00007888150867074728,-0.0001510911388322711
1783696422277832700,0.470832763671875,0.0012510507367551327,-0.0009662467055022717,-0.00152847811114043
1783696422287795700,0.480795654296875,0.0006530567188747227,0.0017505614086985588,-0.001495475647971034
1783696422297759700,0.490759765625,-0.00043644249672070146,-0.001625527860596776,0.001583671197295189
1783696422307722800,0.50072265625,-0.00021619437029585242,0.0006767959566786885,0.0003290646127425134
1783696422317685800,0.510685791015625,-0.0006076790159568191,0.0008554940577596426,-0.001543670310638845
1783696422327648800,0.520648681640625,-0.001157904276624322,-0.0013677338138222694,0.0004963025567121804
1783696422337611800,0.53061181640625,-0.00023325475922320038,-0.000556801212951541,-0.00015990040265023708
1783696422347574800,0.54057470703125,-0.00024343589029740542,0.0017807850381359458,0.0010932106524705887
1783696422357537800,0.550537841796875,-0.0005113498773425817,-0.0031402038875967264,0.00040718039963394403
1783696422367501800,0.560501708984375,-0.0015166646335273981,0.0009490253869444132,-0.0006854240782558918
1783696422377464800,0.57046484375,0.00013156564091332257,0.001010810723528266,0.002538864966481924
1783696422387427800,0.580427734375,-0.0014106876915320754,-0.002211271319538355,0.0008905521244741976
1783696422397390800,0.590390869140625,-0.0007491584401577711,0.0010455083101987839,0.00015605229418724775
1783696422407353900,0.600353759765625,-0.0009742922848090529,-0.00007127982098609209,0.0009121096227318048
1783696422417316600,0.610316650390625,-0.0014992014039307833,-0.0014420088846236467,0.0006218251073732972
1783696422427279600,0.620279541015625,0.00021564660710282624,0.0013995295157656074,-0.00006251642480492592
1783696422437243600,0.63024365234375,0.0009767781011760235,-0.0011019777739420533,-0.00038342736661434174
1783696422447206700,0.64020654296875,0.0001354143605567515,-0.0016258815303444862,0.0004994217888452113
1783696422457169700,0.650169677734375,-0.0008512868080288172,0.0024343738332390785,-0.00023747491650283337
1783696422467133000,0.6601328125,-0.0009589990950189531,-0.0009100728202611208,-0.0006323514971882105
1783696422477096000,0.670095947265625,0.0011646056082099676,-0.00018169835675507784,-0.0011998711852356791
1783696422487059000,0.680058837890625,-0.00019953965966124088,0.0025988491252064705,-0.0002597714774310589
1783696422497021700,0.690021728515625,0.0009645280661061406,-0.0010984173277392983,-0.000982819590717554
1783696422506984700,0.699984619140625,-0.0007223002030514181,-0.0008492438355460763,-0.00040977925527840853
1783696422516948700,0.70994873046875,-0.00006130360998213291,0.000847988820169121,-0.0003237591590732336
1783696422526911700,0.719911865234375,-0.0004801288596354425,-0.0021150230895727873,0.0004496695473790169
1783696422536874800,0.729874755859375,-0.0010287400800734758,0.001402213703840971,-0.0001215784577652812
1783696422546837800,0.739837646484375,0.00046159440535120666,0.002465349156409502,0.0005178673891350627
1783696422556800800,0.74980078125,0.00027144470368511975,-0.0016998349456116557,-0.0008938743267208338
1783696422566763800,0.759763671875,-0.00038441899232566357,0.0008516983943991363,-0.001320975599810481
1783696422576726800,0.769726806640625,-0.00010984709660988301,0.0030512032099068165,-0.0006314831553027034
1783696422586689800,0.779689697265625,-0.0009096160647459328,-0.0019926619715988636,-0.0012353736674413085
1783696422596653800,0.78965380859375,0.0003817507531493902,-0.00003603764344006777,-0.0004028694238513708
1783696422606616800,0.799616943359375,-0.001014617271721363,-0.00006654870230704546,0.0003497159923426807
1783696422616579800,0.809579833984375,0.00018913147505372763,-0.0007603020640090108,0.0005513172945939004
1783696422626542800,0.81954296875,0.0009623849182389677,-0.00003773381467908621,-0.0013377097202464938
1783696422636505900,0.829505859375,-0.00032844918314367533,0.001180129824206233,0.0005725757800973952
1783696422646468600,0.839468505859375,-0.00007940432988107204,0.00031734968069940805,-0.00021575787104666233
1783696422656431600,0.849431640625,-0.00009058961586561054,0.0022145856637507677,-0.0015931447269394994
1783696422666395600,0.859395751953125,-0.00024223359650932252,-0.00044534204062074423,0.0007010014960542321
1783696422676358700,0.869358642578125,0.0004110398003831506,-0.0010109973372891545,-0.00113205227535218
1783696422686321700,0.87932177734375,0.0008058667881414294,0.0018458778504282236,-0.00022550264839082956
1783696422696284700,0.88928466796875,0.0023547611199319363,-0.00041434692684561014,0.0009074060944840312
1783696422706247700,0.89924755859375,-0.0008703091880306602,-0.001791417016647756,-0.0003528153756633401
1783696422716211000,0.9092109375,0.0001339688606094569,0.0014850700972601771,-0.0014926481526345015
1783696422726173700,0.919173583984375,-0.00010835845023393631,0.0008572646765969694,0.0005956969107501209
1783696422736136700,0.92913671875,-0.0006851991638541222,-0.001140905194915831,0.0007046202663332224
1783696422746100700,0.939100830078125,-0.00042859569657593966,0.0015711599262431264,0.0004084915271960199
1783696422756063700,0.949063720703125,-0.00007945526158437133,-0.0017703083576634526,0.0006604265654459596
1783696422766026800,0.95902685546875,0.0008309667464345694,-0.00120461150072515,-0.002305732574313879
1783696422775989800,0.96898974609375,0.001424851710908115,0.00043323251884430647,0.0006551699480041862
1783696422785952800,0.978952880859375,-0.00040761666605249047,-0.0007709669880568981,0.000691543216817081
1783696422795915800,0.988915771484375,-0.0010060289641842246,0.0009028298081830144,0.00013068143744021654
1783696422805878500,0.99887841796875,0.0003823474107775837,0.0024089361540973186,-0.00015278731007128954
1783696422815842600,1.008842529296875,-0.0007449686527252197,-0.0015357378870248795,0.00019821739988401532
1783696422825805600,1.0188056640625,0.0009659873321652412,-0.00010407576337456703,-0.0009226119145750999
1783696422835768600,1.0287685546875,-0.0009855770040303469,0.0025867819786071777,-0.00037426711060106754
1783696422845731800,1.03873193359375,0.001622867537662387,-0.00041608884930610657,0.0005294219590723515
1783696422855694800,1.04869482421875,-0.00026185158640146255,-0.0005164900794625282,0.0014338314067572355
1783696422865657900,1.058657958984375,-0.0003139275358989835,0.002233960200101137,0.0007650369079783559
1783696422875620900,1.068620849609375,-0.0010002241469919682,-0.0008497141534462571,0.0001533087925054133
1783696422885583600,1.07858349609375,-0.0006718788063153625,-0.0005986089818179607,-0.0010723432060331106
1783696422895547600,1.088547607421875,0.0005153584061190486,0.001917811925522983,0.0005071775522083044
1783696422905510700,1.0985107421875,-0.0008624411420896649,-0.0025379667058587074,-0.00044938898645341396
1783696422915473700,1.1084736328125,0.00033358452492393553,0.001401114626787603,-0.0008374116150662303
1783696422925436700,1.118436767578125,-0.002140261232852936,0.0008568030898459256,0.0001074053579941392
1783696422935399700,1.128399658203125,-0.00014688527153339237,-0.0016668083844706416,0.0004434963339008391
1783696422945362700,1.13836279296875,0.00027293493621982634,-0.00004361581522971392,0.0008197976858355105
1783696422955326000,1.148325927734375,-0.0006652966840192676,0.0023047595750540495,0.000345222360920161
1783696422965288700,1.158288818359375,0.0005295862210914493,-0.0016099633648991585,0.0007029683911241591
1783696422975252700,1.168252685546875,-0.00020864198449999094,0.0006065855268388987,-0.0022422214969992638
1783696422985215700,1.1782158203125,-0.0010810787789523602,-0.0005320794880390167,0.001111050951294601
1783696422995178800,1.1881787109375,-0.00034444837365299463,-0.0016386229544878006,0.0005914682406000793
1783696423005141800,1.198141845703125,0.0014107070164754987,0.0014996820827946067,-0.0005484161665663123
1783696423015104800,1.208104736328125,-0.00046895211562514305,-0.001585057470947504,-0.0002211136743426323
1783696423025067800,1.21806787109375,-0.00046915869461372495,-0.00013583723921328783,-0.0007692788494750857
1783696423035030800,1.22803076171875,-0.0007320126751437783,0.002300422638654709,0.0002792077139019966
1783696423044993500,1.23799365234375,-0.00011596601689234376,-0.0018124636262655258,-0.0005451440811157227
1783696423054957600,1.24795751953125,0.0005285189254209399,-0.0011828923597931862,-0.0010234478395432234
1783696423064920600,1.257920654296875,-0.00010155921336263418,0.001064457930624485,0.0015765185235068202
1783696423074883600,1.267883544921875,-0.0006022334564477205,-0.0016104209935292602,0.0004276307881809771
1783696423084846800,1.277846923828125,0.0008383346721529961,-0.0011726201046258211,-0.0005322148790583014
1783696423094809900,1.287809814453125,-0.00047487011761404574,0.003141168039292097,-0.00023500609677284956
1783696423104772900,1.29777294921875,-0.00024192302953451872,-0.002058246871456504,-0.000544656184501946
1783696423114735900,1.30773583984375,-0.0003923916374333203,-0.0007809950038790703,-0.0016946090618148446
1783696423124700000,1.317699951171875,-0.0025739395059645176,0.0019606079440563917,0.0004172474145889282
1783696423134662700,1.32766259765625,0.0004202525014989078,-0.0019393250113353133,0.001546693965792656
1783696423144625700,1.337625732421875,0.00026213665842078626,-0.00047060009092092514,-0.001393608283251524
1783696423154588700,1.347588623046875,0.0011894494527950883,0.0025923014618456364,-0.0015230379067361355
1783696423164551700,1.3575517578125,-0.00002951445640064776,-0.0018900434952229261,-0.0016204253770411015
1783696423174514700,1.3675146484375,-0.00010514821042306721,0.000787498545832932,0.001159648410975933
1783696423184477700,1.377477783203125,0.00028439293964765966,0.0020994318183511496,0.0010350478114560246
1783696423194441000,1.38744091796875,0.00029664349858649075,-0.001730726333335042,-0.0007266332395374775
1783696423204404700,1.39740478515625,-0.0008328373660333455,0.0008295630686916411,-0.0009305586572736502
1783696423214367700,1.40736767578125,-0.0014016885543242097,0.0004950700094923377,0.0009882488520815969
1783696423224330800,1.417330810546875,0.0004289281496312469,-0.00221327249892056,0.0014526910381391644
1783696423234293800,1.427293701171875,-0.0008222248870879412,0.002293594880029559,0.001448163646273315
1783696423244256800,1.4372568359375,0.0007630004547536373,-0.0005987661425024271,0.0013067133259028196
1783696423254219800,1.4472197265625,-0.0007297013653442264,-0.0024800228420645,-0.0005772068398073316
1783696423264182800,1.457182861328125,-0.00043834367534145713,0.001120546367019415,0.00024149962700903416
1783696423274145800,1.467145751953125,0.00014116018428467214,-0.0003947922959923744,0.0009829236660152674
1783696423284109800,1.47710986328125,0.0010856867302209139,-0.0010807912331074476,-0.0008374132448807359
1783696423294072600,1.487072509765625,-0.0005782563821412623,0.0021557484287768602,-0.0005559170385822654
1783696423304035600,1.49703564453125,-0.0008994286181405187,-0.0007017217576503754,0.0007818785961717367
1783696423313998600,1.50699853515625,0.0009847577894106507,-0.0026801840867847204,-0.00000348768662661314
1783696423323961900,1.5169619140625,-0.0023295844439417124,0.0010048382682725787,0.0011229091323912144
1783696423333924900,1.5269248046875,-0.0019599376246333122,-0.0015675090253353119,-0.00003130489494651556
1783696423343888000,1.536887939453125,0.0001287477498408407,-0.0009129332611337304,-0.00047482107765972614
1783696423353851000,1.546850830078125,0.0016022747149690986,0.002212818944826722,-0.0013941442593932152
1783696423363815000,1.55681494140625,-0.00004316092235967517,-0.002426987048238516,0.0007257037796080112
1783696423373777700,1.566777587890625,-0.001309760264120996,-0.000467166886664927,-0.0011901742545887828
1783696423383740700,1.57674072265625,0.0007947935373522341,0.002466882113367319,-0.0017794884042814374
1783696423393703700,1.58670361328125,0.0005061068804934621,-0.0021366579458117485,0.0011127045145258307
1783696423403666700,1.596666748046875,0.0013054078444838524,-0.0003461204469203949,-0.00041273655369877815
1783696423413629700,1.606629638671875,0.0013743836898356676,0.0022291564382612705,0.00032549171010032296
1783696423423592700,1.6165927734375,0.00019052968127653003,-0.0012459593126550317,-0.000140649382956326
1783696423433556000,1.626555908203125,0.0008816199842840433,0.00039561314042657614,-0.0020666474010795355
1783696423443519700,1.636519775390625,-0.0009559793397784233,0.0014037947403267026,0.00021257554180920124
1783696423453482800,1.646482666015625,-0.000034525583032518625,-0.0010037027532234788,0.0003555872826837003
1783696423463445800,1.65644580078125,0.0010618078522384167,0.0006380690610967577,0.00013152475003153086
1783696423473408800,1.66640869140625,-0.001329444465227425,0.0013416762230917811,0.0006068990333005786
1783696423483371800,1.676371826171875,-0.0011240323074162006,-0.0009573181159794331,0.002054773736745119
1783696423493334800,1.686334716796875,-0.0019038058817386627,0.0008994377567432821,0.0002406284911558032
1783696423503297800,1.6962978515625,-0.0002609954390209168,0.00045424490235745907,0.00017015612684190273
1783696423513260800,1.7062607421875,-0.00043489987729117274,-0.0017034482443705201,0.00038826902164146304
1783696423523224800,1.716224853515625,-0.0005780109786428511,0.0019770758226513863,-0.0007613518973812461
1783696423533187600,1.7261875,-0.0008211575914174318,-0.00024266901891678572,0.0002426598221063614
1783696423543150600,1.736150634765625,0.0017129543703049421,-0.0033613170962780714,-0.0007075219182297587
1783696423553113600,1.746113525390625,-0.0005715051083825529,0.0013689895858988166,0.0006554839201271534
1783696423563076600,1.75607666015625,0.0021435199305415154,0.00033060868736356497,0.0008088665781542659
1783696423573039900,1.766039794921875,-0.0008061972912400961,-0.00265905587002635,-0.0011978253023698926
1783696423583003000,1.7760029296875,0.0017879675142467022,0.0020981300622224808,-0.0012259697541594505
1783696423592966000,1.7859658203125,0.00003321061376482248,0.0008472433546558022,0.001364487106911838
1783696423602930000,1.795929931640625,-0.0015594282886013389,-0.0004875846207141876,-0.0006968540837988257
1783696423612892700,1.805892578125,-0.00033304261160083115,0.00306214252486825,0.00006427732296288013
1783696423622855200,1.815855224609375,-0.0010357460705563426,-0.0019646184518933296,0.0020912918262183666
1783696423632818200,1.825818115234375,0.0010745427571237087,-0.002084726933389902,-0.00023737619630992413
1783696423642781000,1.835781005859375,-0.00003199999628122896,0.002605108078569174,-0.0005292128771543503
1783696423652744000,1.845743896484375,-0.0014482690021395683,-0.00001863820943981409,0.0014103673165664077
1783696423662707200,1.855707275390625,-0.00017155453679151833,0.0004032605793327093,-0.0017610572976991534
1783696423672670200,1.865670166015625,0.0009389835759066045,0.0009316317155025899,-0.0017938142409548163
1783696423682634200,1.87563427734375,0.0012487074127420783,-0.0007973480969667435,-0.0003613322041928768
1783696423692597200,1.88559716796875,0.00047319490113295615,-0.0006370258051902056,-0.0012942374451085925
1783696423702560300,1.895560302734375,-0.00019746898033190519,0.0024312164168804884,0.0004362271283753216
1783696423712523300,1.905523193359375,-0.0006368905305862427,-0.001042078365571797,0.0020868543069809675
1783696423722486000,1.915486083984375,-0.00006309426680672914,0.0004601205000653863,-0.0005015189526602626
1783696423732449000,1.925448974609375,-0.000082002705312334,0.0019887748640030622,0.001924354350194335
1783696423742412000,1.935412109375,-0.00043150095734745264,-0.0018318516667932272,-0.00038944603875279427
1783696423752375000,1.945375,-0.0009028804488480091,0.00019827589858323336,0.0002806053380481899
1783696423762339000,1.955339111328125,0.0008511184714734554,0.0014207367785274982,0.00047708197962492704
1783696423772302000,1.965302001953125,0.0007581741083413363,-0.0006019341526553035,-0.000168468221090734
1783696423782265000,1.97526513671875,0.0005496782250702381,0.00013425108045339584,-0.0007192407501861453
1783696423792228000,1.98522802734375,0.00043676019413396716,-0.0010977271012961864,0.0022682934068143368
1783696423802191000,1.995191162109375,-0.0007123821415007114,-0.0009639802156016231,-0.0003316409420222044
1783696423812154000,2.005154052734375,-0.0008612528326921165,0.001419016276486218,-0.0003132651327177882
1783696423822117000,2.0151171875,-0.002894910518079996,-0.00031854433473199606,0.0008325831731781363
1783696423832080100,2.025080078125,0.00028783330344595015,-0.0017494607018306851,-0.0009221737273037434
1783696423842044200,2.035044189453125,-0.0009647673578001559,0.0019556789193302393,0.0008008013828657568
1783696423852007200,2.045007080078125,-1.7038837540894747e-7,-0.0000262456014752388,0.0006950738606974483
1783696423861970200,2.05497021484375,0.000595893245190382,-0.0005597010022029281,0.001501995837315917
1783696423871933200,2.06493310546875,-0.00042329845018684864,0.0027815010398626328,0.0011850795708596706
1783696423881896000,2.07489599609375,-0.0014184507308527827,0.001685904455371201,0.0005262962658889592
1783696423891859000,2.08485888671875,-0.0008173753158189356,-0.0017391869332641363,-0.001405560877174139
1783696423901822200,2.094822265625,0.00011371706204954535,0.00019340170547366142,0.0003579210606403649
1783696423911785200,2.10478515625,-0.00029321396141313016,-0.0010209998581558466,0.0010823009070008993
1783696423921749000,2.1147490234375,-0.0005726040690205991,-0.000350415357388556,0.0004947111592628062
1783696423931712300,2.124712158203125,0.0000705493293935433,0.000774503918364644,-0.00006535160355269909
1783696423941675300,2.13467529296875,-0.000347969529684633,-0.0007271954091265798,0.0017641352023929358
1783696423951638300,2.14463818359375,-0.0005493045318871737,-0.0003261234378442168,-0.0023581720888614655
1783696423961601000,2.15460107421875,0.0009369211620651186,0.003491321112960577,-0.0009290509624406695
1783696423971564000,2.16456396484375,0.00044823106145486236,-0.002235540421679616,0.000768181518651545
1783696423981527000,2.174527099609375,-0.0012258817441761494,-0.0011099965777248144,-0.0004269983619451523
1783696423991490000,2.184489990234375,-0.00033212482230737805,0.001420272747054696,0.0002963162260130048
1783696424001453000,2.194453125,-0.0011995662935078144,-0.001510102767497301,0.001030922750942409
1783696424011417000,2.2044169921875,0.00026890067965723574,-0.0009087608195841312,-0.0007352856919169426
1783696424021380000,2.214380126953125,-0.00020066899014636874,0.0019063923973590136,-0.0003032304812222719
1783696424031343000,2.224343017578125,0.00027656948077492416,-0.0027296384796500206,-0.00026354938745498657
1783696424041306000,2.23430615234375,0.0004309411742724478,0.0001569441519677639,-0.0008328562835231423
1783696424051269000,2.24426904296875,-0.0009179499465972185,0.0006027572089806199,-0.000039234175346791744
1783696424061232000,2.254232177734375,0.0009603498037904501,-0.0014798387419432402,0.0010139753576368093
1783696424071195100,2.264195068359375,-0.0010090578580275178,0.0004975583869963884,0.0002701545017771423
1783696424081158100,2.274158203125,0.0006572926649823785,0.0034534167498350143,0.0014849900035187602
1783696424091122200,2.2841220703125,0.0013063049409538507,-0.0034542903304100037,-0.0012045364128425717
1783696424101085200,2.294085205078125,0.0005891189794056118,0.0017558151157572865,-0.0012571412371471524
1783696424111048200,2.304048095703125,-0.0008212911197915673,0.00019387109205126762,0.000498947047162801
1783696424121011000,2.314010986328125,-0.00047465538955293596,-0.001698462525382638,0.0003792359493672848
1783696424130974000,2.323973876953125,-0.0010496318573132157,0.001104514580219984,-0.00044368079397827387
1783696424140937200,2.333937255859375,-0.0016231669578701258,-0.0007401625625789165,0.0020211762748658657
1783696424150900200,2.343900146484375,-0.001835154602304101,-0.001524197170510888,0.0011551163624972105
1783696424160863200,2.35386328125,0.002063959604129195,0.0011643314501270652,0.00046597031177952886
1783696424170827300,2.3638271484375,0.0001709847419988364,-0.00045859895180910826,0.00015810888726264238
1783696424180790300,2.373790283203125,0.0007360496092587709,-0.0012560278410091996,-0.00161576340906322
1783696424190753300,2.383753173828125,-0.0008706353837624192,0.0015370955225080252,-0.00036913773510605097
1783696424200716000,2.393716064453125,0.0003376513777766377,-0.0008978111436590552,0.0009477800922468305
1783696424210679000,2.403678955078125,-0.00009910704102367163,-0.00045519357081502676,-0.00036489206831902266
1783696424220642000,2.41364208984375,0.0006362923886626959,0.0029803321231156588,-0.0005507110618054867
1783696424230605000,2.42360498046875,0.000013379016309045255,-0.001357158413156867,0.0005252060364000499
1783696424240568000,2.433568115234375,0.0002478886453900486,-0.0005193825345486403,-0.0018444348825141788
1783696424250532000,2.443531982421875,0.000014862060197629035,0.0021416479721665382,-0.00040712684858590364
1783696424260495000,2.4534951171875,0.0005641861353069544,-0.0011575071839615703,0.000677220115903765
1783696424270458000,2.4634580078125,-0.0006981522310525179,-0.0017391416477039456,0.0010617806110531092
1783696424280421000,2.473421142578125,0.00033036258537322283,0.000522085465490818,-0.00046796712558716536
1783696424290384100,2.483384033203125,0.00064621347701177,-0.0006726084975525737,0.00017385464161634445
1783696424300347100,2.49334716796875,0.0012081804452463984,0.00014092132914811373,-0.0005368934944272041
1783696424310310100,2.50331005859375,0.00011548545444384217,0.0015779631212353706,0.00038322864565998316
1783696424320273200,2.513273193359375,-0.001147742965258658,-0.0007098779315128922,0.0007760943844914436
1783696424330237200,2.5232373046875,0.0007537540514022112,-0.000020119245164096355,-0.0001261845463886857
1783696424340200200,2.5332001953125,0.00044524436816573143,0.0016032691346481442,0.001142861321568489
1783696424350163200,2.5431630859375,-0.00006262042734306306,-0.0027595211286097765,-0.00011068850290030241
1783696424360126000,2.5531259765625,-0.0007485991809517145,0.0001239007106050849,-0.0018556567374616861
1783696424370089000,2.5630888671875,0.0003797821409534663,0.001207274617627263,-0.0004708130145445466
1783696424380052000,2.573052001953125,0.0004360178718343377,-0.0022809614893049,0.0006182798533700407
1783696424390015200,2.58301513671875,0.0003499977756291628,0.002116450108587742,-0.0019253053469583392
1783696424399978200,2.592978271484375,-0.0003818610275629908,0.0008779427735134959,0.00039468955947086215
1783696424409942300,2.6029423828125,0.0005387937417253852,-0.0020752365235239267,0.0016921816859394312
1783696424419905300,2.6129052734375,0.000538496533408761,0.0023399698548018932,-0.000736474059522152
1783696424429868300,2.622868408203125,-0.0017656704876571894,0.0010243684519082308,0.0004909769631922245
1783696424439831000,2.6328310546875,0.0006255088374018669,-0.0001505962572991848,-0.0008208797080442309
1783696424449794000,2.6427939453125,0.00048702445928938687,0.0004736486589536071,-0.0014227541396394372
1783696424459757000,2.652757080078125,-0.0007836472359485924,0.0007359500741586089,0.00033124780748039484
1783696424469720000,2.662719970703125,0.0008645831840112805,-0.0012315934291109443,-0.0006485291523858905
1783696424479683000,2.67268310546875,0.00005246337968856096,0.0004899832420051098,-0.0009928966173902154
1783696424489646000,2.68264599609375,0.0008562054135836661,0.00005908380262553692,0.0006489422521553934
1783696424499610000,2.692610107421875,0.0012885411269962788,-0.0016648510936647654,-0.001152210053987801
1783696424509573000,2.702572998046875,-0.000040109982364811,0.0017405330436304212,0.0005570066277869046
1783696424519536000,2.7125361328125,0.0011535435914993286,-0.0003599780611693859,-0.0010401371400803328
1783696424529499100,2.7224990234375,-0.0003474139957688749,-0.0007059226045385003,-0.0009466602932661772
1783696424539462100,2.732462158203125,-0.00015185943630058318,0.0021294045727699995,0.0007535502663813531
1783696424549425200,2.742425048828125,-0.0008232423570007086,-0.00132072065025568,0.0018252062145620584
1783696424559388200,2.75238818359375,-0.0004570763558149338,-0.0008029425516724586,0.00174144993070513
1783696424569351200,2.76235107421875,-0.0004538805806078017,0.002287123119458556,0.0016338583081960678
1783696424579315200,2.772315185546875,0.00002552350633777678,-0.0015778220258653164,0.0008438067743554711
1783696424589278200,2.7822783203125,-0.0007204279536381364,0.0003708130680024624,-0.0005695328582078218
1783696424599241000,2.792240966796875,0.0005943960859440267,0.001593311782926321,0.0011345114326104522
1783696424609204000,2.802203857421875,-0.00043438305146992207,-0.0029961138498038054,0.0003177199396304786
1783696424619167000,2.8121669921875,0.00008270857506431639,0.0007537058554589748,0.00008575199171900749
1783696424629131000,2.822131103515625,0.00105875707231462,0.0012285474222153425,-0.000469517195597291
1783696424639093800,2.83209375,-0.0009667187696322799,-0.0010534940520301461,0.0009447160409763455
1783696424649057000,2.84205712890625,0.001279391348361969,0.0009294955525547266,-0.0007354723056778312
1783696424659020800,2.852020751953125,-0.0005542121361941099,0.00060129608027637,0.0010634188074618578
1783696424668984000,2.861984130859375,-0.0016445103101432323,-0.0006919348379597068,0.0008578228298574686
1783696424678947000,2.871947021484375,0.0003457118582446128,0.0009196191094815731,0.001644177595153451
1783696424688910000,2.88191015625,-0.0005610944936051965,0.0009433212107978761,-0.00006583810318261385
1783696424698873000,2.891873046875,0.0006276814383454621,-0.0007930044084787369,0.0003430820652283728
1783696424708836000,2.901836181640625,0.0005243507912382483,0.0004405716899782419,-0.0007930223364382982
1783696424718798800,2.911798828125,0.000009442956070415676,0.002027153503149748,-0.0005084859440103173
1783696424728761900,2.921761962890625,-0.0009293213370256126,0.0006265972042456269,0.00011895480565726757
1783696424738726000,2.931725830078125,0.0017116926610469818,0.0013675258960574865,-0.000909128924831748
1783696424748689000,2.94168896484375,0.0004229890473652631,-0.0006692596944049001,0.0007140677771531045
1783696424758652000,2.95165185546875,0.00038926006527617574,-0.00027601770125329494,-0.0005209266673773527
1783696424768615000,2.961614990234375,0.0010553166503086686,0.0022894053254276514,0.00008733931463211775
1783696424778578000,2.971577880859375,0.0008793693268671632,-0.0009202748769894242,0.0018555681454017758
1783696424788541200,2.981541259765625,-0.00002264331851620227,-0.0024374774657189846,-0.0013937547337263823
1783696424798504000,2.99150390625,0.0008455116767436266,0.0030895215459167957,0.0001256351824849844
1783696424808467000,3.001467041015625,-0.0003563728532753885,-0.0008191999513655901,0.00033815548522397876
1783696424818430000,3.011429931640625,-0.0010282335570082068,-0.0011221366003155708,0.0002931746421381831
1783696424828394000,3.02139404296875,0.00019096156756859273,0.0015601991908624768,-0.00021282595116645098
1783696424838357000,3.03135693359375,0.0001693324593361467,-0.0010986069682985544,0.00008969183545559645
1783696424848320000,3.041320068359375,-0.00009458678687224165,-0.0002882072003558278,0.0009429686469957232
1783696424858283000,3.051282958984375,-0.000006433736416511238,0.0026074894703924656,0.0007616954972036183
1783696424868246000,3.06124609375,0.00013125169789418578,-0.0021973855327814817,0.0009007125627249479
1783696424878208800,3.071208740234375,0.0002245385549031198,-0.00017691368702799082,-0.001214775606058538
1783696424888172000,3.081172119140625,-0.00010649237810866907,0.0014401576481759548,0.0005937771056778729
1783696424898135000,3.091135009765625,-0.0005373206222429872,-0.0011073775822296739,0.0012548182858154178
1783696424908098800,3.101098876953125,-0.0005213416297920048,-0.000057825702242553234,-0.0013633354101330042
1783696424918062000,3.11106201171875,0.00046961079351603985,0.00020109477918595076,0.0013254215009510517
1783696424928025000,3.121025146484375,-0.0006377315730787814,-0.0034298591781407595,0.0010042443173006177
1783696424937988000,3.130988037109375,0.0014613893581554294,-0.0005940934643149376,-0.00021828641183674335
1783696424947951000,3.140951171875,0.00008453510235995054,0.00048129085917025805,0.0009636245667934418
1783696424957913900,3.150913818359375,-0.0005258419550955296,-0.0025108575355261564,0.0007846747757866979
1783696424967876900,3.160876953125,-0.0006054705008864403,0.0004210162442177534,0.0005396639462560415
1783696424977839900,3.17083984375,-0.0018969329539686441,0.0007637235685251653,0.000264552712906152
1783696424987804000,3.180803955078125,-0.0007693505613133311,-0.003285346319898963,0.0006073015392757952
1783696424997767000,3.190766845703125,0.00007077271584421396,0.0016313117230311036,-0.0006577923195436597
1783696425007730000,3.20072998046875,0.00023322555352933705,0.0011647258652374148,-0.00017895596101880074
1783696425017693000,3.21069287109375,-0.0017546116141602397,-0.0009540814207866788,0.0008126029279083014
1783696425027656200,3.22065625,0.0017234766855835915,0.0009852324146777391,0.0006155290175229311
1783696425037619000,3.230618896484375,-0.0003147731476929039,-0.0005091069033369422,0.0021776775829494
1783696425047582000,3.24058203125,-0.00014939084940124303,-0.0015573272248730063,-0.0008306291420012712
1783696425057545000,3.250544921875,0.00006995201692916453,0.0005622504977509379,0.0011723708594217896
1783696425067509000,3.260509033203125,-0.0011215462582185864,-0.0020953179337084293,0.0015199133194983006
1783696425077472000,3.270471923828125,-0.0003607664839364588,-0.0014471743488684297,0.0004879169282503426
1783696425087435000,3.28043505859375,0.0006698768702335656,0.0012607277603819966,-0.001649536076001823
1783696425097398000,3.29039794921875,-0.001668704324401915,-0.0014396948972716928,0.0019039264880120754
1783696425107361000,3.300361083984375,0.0012786160223186016,-0.0018245215760543942,-0.00027400662656873465
1783696425117323800,3.31032373046875,-0.0003869444481097162,0.0016619206871837378,-0.002088607754558325
1783696425127286800,3.320286865234375,-0.0013755097752436996,-0.0010883258655667305,0.0015575260622426867
1783696425137250000,3.33025,0.0027321602683514357,-0.00006450351793318987,0.000053995405323803425
1783696425147213800,3.3402138671875,0.00015022563457023352,0.0018545703496783972,0.00023775349836796522
1783696425157177000,3.350177001953125,-0.0004175514623057097,-0.0011249276576563716,0.0005754139274358749
1783696425167140000,3.36014013671875,0.0005230770329944789,0.0009222442749887705,-0.0005087589379400015
1783696425177103000,3.37010302734375,1.711159711703658e-7,0.003315455513074994,-0.00023355125449597836
1783696425187066000,3.380066162109375,-0.00036042090505361557,-0.0021892983932048082,0.0002551387879066169
1783696425197028900,3.39002880859375,-0.001578843453899026,-0.00003370002377778292,-0.0006549363024532795
1783696425206992000,3.399991943359375,0.002439866540953517,0.0006003985763527453,0.0013626745203509927
1783696425216955000,3.409954833984375,-0.0006564183859154582,-0.0033442541025578976,-0.0005010206950828433
1783696425226918000,3.41991796875,0.000953462440520525,-0.0009109238162636757,-0.0024254207964986563
1783696425236882000,3.4298818359375,0.00044810547842644155,0.001014373148791492,-0.001380249042995274
1783696425246845000,3.439844970703125,0.00025529260165058076,-0.0022085844539105892,0.0003417507978156209
1783696425256808000,3.449807861328125,-0.0007318062707781792,0.0004304739413782954,-0.0023784725926816463
1783696425266771200,3.459771240234375,-0.0009483213070780039,0.0009657692862674594,0.0007060004281811416
1783696425276734000,3.46973388671875,-0.000195267639355734,-0.0025287745520472527,0.00019609613809734583
1783696425286697000,3.479697021484375,0.0010372432880103588,-0.00023739086464047432,-0.0007474618032574654
1783696425296660000,3.489659912109375,-0.0003181950596626848,0.00023848481941968203,-0.00042608927469700575
1783696425306623000,3.499623046875,0.0005308206891641021,-0.002323476132005453,-0.0004910703282803297
1783696425316587000,3.5095869140625,0.0006493795663118362,0.0012444211170077324,-0.001603190554305911
1783696425326550000,3.519550048828125,0.001124221133068204,-0.00042085349559783936,0.0006738121737726033
1783696425336513000,3.529512939453125,-0.00010111357551068068,0.0017131275963038206,-0.0017110027838498354
1783696425346476000,3.53947607421875,0.00026373949367552996,0.0014028692385181785,-0.00087397126480937
1783696425356438800,3.549438720703125,0.00021949340589344501,0.000406799023039639,0.0007302346639335155
1783696425366401800,3.55940185546875,-0.00047718954738229513,-0.002429201267659664,0.00022982677910476923
1783696425376365000,3.569364990234375,-0.0011205158662050962,0.0018813492497429252,0.00035148137249052525
1783696425386328000,3.579328125,-0.0017404998652637005,-0.0011440017260611057,0.0016921167261898518
1783696425396291000,3.589291015625,0.0010624539572745562,-0.003312502522021532,0.0005436099600046873
1783696425406255000,3.599255126953125,-0.00022518449986819178,0.0026849363930523396,0.0005550615023821592
1783696425416218000,3.609218017578125,0.000014169287169352174,-0.0011382088996469975,0.0006935334531590343
1783696425426181000,3.61918115234375,0.0005420077941380441,-0.0008159663993865252,-0.0014319353504106402
1783696425436143900,3.629143798828125,-0.0007933388696983457,0.001311705680564046,0.0002933132345788181
1783696425446107000,3.63910693359375,0.00010041796485893428,0.00012899574358016253,0.0003369890619069338
1783696425456070000,3.64906982421875,0.00018001630087383091,0.0008068230818025768,-0.0014389852294698358
1783696425466033000,3.659032958984375,0.00011929622269235551,0.0006401092396117747,-0.0003106038784608245
1783696425475996000,3.668995849609375,-0.0007671633502468467,-0.0003242687089368701,-0.0002370727015659213
1783696425485960000,3.6789599609375,0.0007665511220693588,0.000996925518848002,-0.0009452071972191334
1783696425495923000,3.6889228515625,0.001122493064031005,0.000934033072553575,-0.0006410824134945869
1783696425505886000,3.698885986328125,0.00022900252952240407,-0.0009528165683150291,0.0005235178978182375
1783696425515849000,3.708848876953125,-0.0005169369978830218,-0.000016495701856911182,-0.0006985093932598829
1783696425525812000,3.71881201171875,0.00025165124679915607,0.002745468635112047,0.00016755051910877228
1783696425535775000,3.72877490234375,0.0002754786401055753,-0.0012069045333191752,-0.0005383092211559415
1783696425545738000,3.738738037109375,0.00028027233202010393,0.0015185745432972908,-0.0019132992019876838
1783696425555701000,3.748700927734375,0.000026608002372086048,0.00026489689480513334,-0.0006832729559391737
1783696425565665000,3.7586650390625,0.0006894688121974468,-0.003686168696731329,0.0006831950740888715
1783696425575628000,3.7686279296875,0.0001849129912443459,0.001421390799805522,-0.0011632279492914677
1783696425585591000,3.778591064453125,-0.000256639119470492,0.0006306983414106071,-0.000907830661162734
1783696425595553800,3.7885537109375,0.0014836771879345179,-0.001223612343892455,-0.0005674671847373247
1783696425605516800,3.798516845703125,0.0003286642604507506,0.00008985877502709627,-0.00028890057001262903
1783696425615480000,3.80847998046875,-0.0003211259900126606,-0.00011635886039584875,0.00021955464035272598
1783696425625442000,3.818442138671875,0.00022934938897378743,-0.0010945380199700594,-0.00044224096927791834
1783696425635405000,3.828405029296875,0.001709208358079195,0.0020031717140227556,-0.00043599982745945454
1783696425645368000,3.8383681640625,0.00172492116689682,-0.00028048886451870203,0.0013997170608490705
1783696425655332000,3.84833203125,0.0007436419255100191,-0.0023517701774835587,0.0013516037724912167
1783696425665294800,3.858294921875,6.200280040502548e-7,0.001379318768158555,0.002168128965422511
1783696425675257900,3.8682578125,0.00021889767958782613,-0.0011279061436653137,0.0012186209205538034
1783696425685220900,3.878220947265625,0.000051118520786985755,-0.001310599036514759,0.00006840168498456478
1783696425695184000,3.888183837890625,-0.000486442178953439,0.0028456696309149265,0.0002206218196079135
1783696425705147100,3.898147216796875,-0.00016393337864428759,-0.0003008550265803933,0.0017282372573390603
1783696425715110100,3.908110107421875,-0.0004580161767080426,-0.0019669844768941402,0.00039889331674203277
1783696425725073200,3.9180732421875,0.0004003206267952919,0.0005473060300573707,-0.0008208344224840403
1783696425735037200,3.928037109375,-0.00047207175521180034,-0.002620624378323555,-0.0007314053364098072
1783696425745000000,3.938,-0.00007046705286484212,0.00002575875259935856,0.0006545037613250315
1783696425754963000,3.947962890625,0.0028071459382772446,0.001017354428768158,0.00022249913308769464
1783696425764926000,3.957926025390625,0.0011810199357569218,-0.0034285266883671284,0.0002949370536953211
1783696425774889000,3.967888916015625,0.00044658652041107416,-0.00006856897380203009,-0.0005808045389130712
1783696425784852000,3.97785205078125,0.0008420659578405321,0.00031332834623754025,0.0003044302575290203
1783696425794815000,3.98781494140625,-0.000508471392095089,-0.0012830487685278058,0.0000631050206720829
1783696425804778000,3.997778076171875,0.0007442795904353261,0.0012693246826529503,0.00021357357036322355
1783696425814742000,4.007741943359375,0.00026537192752584815,0.0017264233902096748,0.0016529413405805826
1783696425824704800,4.017704833984375,0.00011916438234038651,-0.001233147457242012,0.00012668361887335777
1783696425834668000,4.02766796875,-0.00011533420183695853,-0.0005708737298846245,-0.0004416598239913583
1783696425844631000,4.037631103515625,-0.0011337269097566605,0.00013193453196436167,0.0009410533821210265
1783696425854594000,4.047593994140625,-0.0009448471246287227,-0.0018226699903607368,0.001230651861988008
1783696425864557000,4.05755712890625,0.0005771494470536709,0.0006351612391881645,-0.0013025469379499555
1783696425874520000,4.06752001953125,-0.00021138190641067922,0.0005109936464577913,0.0018808143213391304
1783696425884483000,4.077483154296875,-0.0017429657746106386,-0.0023897213395684958,0.0014019778463989496
1783696425894445800,4.08744580078125,0.00041977863293141127,0.0011703083291649818,0.00042212550761178136
1783696425904409900,4.097409912109375,-0.0004364276537671685,-0.000043294159695506096,0.00041892973240464926
1783696425914372900,4.107372802734375,0.0003963917260989547,-0.0019735987298190594,-0.00022150971926748753
1783696425924335900,4.1173359375,0.00033966638147830963,0.0009731891332194209,0.00024694029707461596
1783696425934299000,4.127298828125,-0.0006124085048213601,0.00038184213917702436,-0.0008600187720730901
1783696425944262100,4.13726220703125,0.000833954312838614,-0.00017316057346761227,0.0002915321383625269
1783696425954225200,4.14722509765625,-0.00043479783926159143,0.0005227362271398306,0.00010331545490771532
1783696425964188200,4.157188232421875,0.00025069978437386453,0.0007773343822918832,0.0005624444456771016
1783696425974151000,4.16715087890625,0.0015943067846819758,-0.0010009169345721602,-0.0003799780970439315
1783696425984115000,4.177114990234375,0.0005500813713297248,0.002875846577808261,-0.0004646666347980499
1783696425994078000,4.187077880859375,-0.00009654210589360446,-0.0004413392161950469,0.0010491014691069722
1783696426004041000,4.197041015625,0.0011074729263782501,-0.000399527489207685,-0.00007182301487773657
1783696426014004000,4.20700390625,0.00010806563659571111,0.0029236096888780594,0.0009847474284470081
1783696426023967000,4.216967041015625,0.00015067620552144945,-0.0032232324592769146,0.00247798184864223
1783696426033930000,4.226929931640625,-0.0009429160854779184,-0.0007705660536885262,-0.0017182816518470645
1783696426043893000,4.23689306640625,0.0002323369262740016,0.0020843427628278732,-0.00003170175477862358
1783696426053856000,4.24685595703125,0.0010334139224141836,-0.0014628019416704774,-0.000856833066791296
1783696426063819800,4.25681982421875,-0.0000014904362615197897,-0.0011195203987881541,-0.0012483177706599236
1783696426073783000,4.266782958984375,-0.0004629307077266276,0.002028997056186199,0.001352939405478537
1783696426083746000,4.27674609375,-0.00013722611765842885,-0.0017995632952079177,-0.0003469563089311123
1783696426093709000,4.286708984375,-0.000569462776184082,0.00021340209059417248,0.0006832728977315128
1783696426103672000,4.296672119140625,-0.001181989791803062,0.0015481783775612712,0.0005328042898327112
1783696426113635000,4.306635009765625,-0.0009050582302734256,-0.0021268343552947044,-0.00034177617635577917
1783696426123598000,4.31659814453125,0.000013732293155044317,0.0015171688282862306,-0.0005638838047161698
1783696426133560800,4.326560791015625,0.0011615005787461996,-0.0008695025462657213,-0.0010206452570855618
1783696426143523800,4.33652392578125,0.0008768087136559188,-0.0023214579559862614,-0.00022915378212928772
1783696426153488000,4.34648779296875,-0.0005010919412598014,0.001714593730866909,0.0003365019802004099
1783696426163451000,4.356450927734375,-0.0004313171375542879,0.0004759575240314007,0.000985248014330864
1783696426173414000,4.366413818359375,0.00028688000747933984,-0.0009864849271252751,-0.0005165138281881809
1783696426183377200,4.376377197265625,-0.00044309243094176054,0.0017717510927468538,0.00048590003279969096
1783696426193340200,4.386340087890625,0.0018692573066800833,0.0021728924475610256,0.0009853222873061895
1783696426203303200,4.39630322265625,-0.0011691432446241379,-0.0006007897900417447,0.00018184655345976353
1783696426213266000,4.406265869140625,-0.0006488675717264414,0.0008029872551560402,-0.0006519034504890442
1783696426223229000,4.41622900390625,-0.00008747319225221872,-0.000470536295324564,0.0009300141828134656
1783696426233192000,4.42619189453125,-0.0008200075244531035,-0.0015046832850202918,-0.0013315952382981777
1783696426243156000,4.436156005859375,0.00006389559712260962,0.0014202664606273174,0.0006117133307270706
1783696426253119000,4.446118896484375,0.00014144193846732378,0.00011511065531522036,-0.0012387636816129088
1783696426263082000,4.45608203125,0.00023465257254429162,-0.00024361710529774427,0.00026352552231401205
1783696426273045000,4.466044921875,0.0013883847277611494,0.0006302007823251188,0.00006329827010631561
1783696426283008000,4.476008056640625,-0.0011722446652129292,-0.0015416069654747844,0.0017109960317611694
1783696426292971000,4.485970947265625,0.0009398754918947816,-0.000717630609869957,-0.0016454291762784123
1783696426302934000,4.49593408203125,-0.00022419221932068467,0.0018653693841770291,-0.0006643205415457487
1783696426312897000,4.50589697265625,-0.00016811973182484508,-0.001447931514121592,-0.0008126054890453815
1783696426322861000,4.515861083984375,-0.0006544129573740065,-0.0006359334802255034,-0.0008546833414584398
1783696426332824000,4.525823974609375,-0.002135948045179248,0.002355777658522129,0.00021289254073053598
1783696426342787000,4.535787109375,0.00037994017475284636,-0.0022387076169252396,0.0004885296802967787
1783696426352750000,4.54575,-0.0010908916592597961,-0.0006474752444773912,-0.0017441203817725182
1783696426362713000,4.555713134765625,0.001137907849624753,0.0011509574251249433,0.0010809608502313495
1783696426372675800,4.56567578125,0.0008762319339439273,-0.0021248082630336285,0.0017568434122949839
1783696426382638800,4.575638916015625,-0.002102513564750552,0.0007591290050186217,-0.000009364914149045944
1783696426392601900,4.585601806640625,0.0017252536490559578,0.0008461026009172201,0.0008821585215628147
1783696426402566000,4.59556591796875,0.000374498195014894,-0.0010391490068286657,-0.00045048724859952927
1783696426412529000,4.60552880859375,-0.0006235991604626179,0.00045046303421258926,-0.00012208300177007914
1783696426422492000,4.615491943359375,-0.0011341271456331015,0.0002568511990830302,0.0007983054965734482
1783696426432455200,4.625455078125,0.000416178023442626,-0.002532416954636574,-0.0005340321222320199
1783696426442418200,4.635418212890625,-0.0002951523056253791,0.0006130426190793514,-0.001468268921598792
1783696426452381000,4.645380859375,0.0011236199643462896,-0.0014349413104355335,0.0002545781899243593
1783696426462344000,4.655343994140625,0.001731886062771082,-0.0015899371355772018,-0.00004742422606796026
1783696426472307000,4.665306884765625,0.0003290942113380879,0.0009990797843784094,0.0004282206646166742
1783696426482270000,4.67527001953125,-0.0001305674231844023,0.0001521945232525468,-0.0000681926030665636
1783696426492234000,4.68523388671875,-0.0004232680657878518,-0.0014770927373319864,-0.00016243767458945513
1783696426502197000,4.695197021484375,-0.0005303271464072168,0.0020246978383511305,-0.001497480203397572
1783696426512160000,4.705159912109375,-0.0009953444823622704,0.00006448558997362852,0.002308946568518877
1783696426522123000,4.715123046875,-0.0001332793035544455,-0.002808266319334507,-0.0002926953602582216
1783696426532086000,4.7250859375,0.00039862655103206635,0.002183125354349613,0.0008667564252391458
1783696426542049000,4.735049072265625,-0.0010493340669199824,0.0007788405055180192,0.0004643527790904045
1783696426552012000,4.745011962890625,0.0003978207241743803,-0.0021116153802722692,0.0007473310688510537
1783696426561975000,4.75497509765625,-0.0005092519568279386,0.000817062973510474,-0.0015770758036524057
1783696426571938000,4.76493798828125,0.00020442085224203765,-0.0005296649178490043,-0.0003824961604550481
1783696426581902000,4.774902099609375,-0.0013346199411898851,-0.0005307301180437207,-0.0011723897187039256
1783696426591865000,4.784864990234375,-0.0010237842798233032,0.0020556801464408636,-0.0014020890230312943
1783696426601828000,4.794828125,-0.0006698501529172063,0.00024659489281475544,-0.000160523341037333
1783696426611790800,4.804790771484375,0.00037906455690972507,-0.00019685830920934677,-0.0011291493428871036
1783696426621753900,4.81475390625,-0.0005096322856843472,0.0011096884263679385,0.0002668796223588288
1783696426631717400,4.82471728515625,-0.0009665492107160389,-0.0022610605228692293,-0.0003639586502686143
1783696426641680400,4.834680419921875,-0.00018038404232356697,-0.0018325578421354294,-0.00004917301703244448
1783696426651643400,4.844643310546875,-0.001527584856376052,0.0017433231696486473,0.0001520398072898388
1783696426661607200,4.854607177734375,0.0005853671464137733,-0.0022855070419609547,-0.0006210758583620191
1783696426671570200,4.864570068359375,-0.0001585695135872811,0.0002914733486250043,0.0007838046294637024
1783696426681533400,4.874533447265625,-0.0006262206006795168,0.0004328872309997678,0.0006698213401250541
1783696426691496400,4.884496337890625,0.0008837211644276977,-0.0026165563613176346,0.0005683754570782185
1783696426701459500,4.89445947265625,-0.0001932611921802163,-0.00006631354335695505,-0.0009901064913719893
1783696426711422500,4.90442236328125,-0.0011687835212796926,0.0010763390455394983,-0.0008897410007193685
1783696426721385500,4.914385498046875,-0.0011714466381818056,-0.0019040044862776995,-0.00043913419358432293
1783696426731348200,4.92434814453125,0.00003333610948175192,0.001034314394928515,-0.0022198136430233717
1783696426741311200,4.934311279296875,-0.000659618410281837,0.00177467311732471,-0.00006158789619803429
1783696426751275300,4.944275146484375,-0.0004095162730664015,-0.00029545521829277277,0.00020322029013186693
1783696426761238300,4.95423828125,-0.0003517256991472095,0.001027336809784174,-0.0008428693981841207
1783696426771201300,4.964201171875,0.0004744731413666159,-0.0006541031179949641,0.0005156072438694537
1783696426781164300,4.974164306640625,0.0003301297838333994,-0.0017236286075785756,0.00035475229378789663
1783696426791127600,4.98412744140625,0.0003437504346948117,0.0020921227987855673,0.0018904258031398058
1783696426801090600,4.994090576171875,0.0006042075110599399,0.00008756143506616354,0.0008155739633366466
1783696426811053300,5.00405322265625,0.001843877718783915,-0.003384348936378956,-0.0005033131456002593
1783696426821016300,5.014016357421875,0.0012542539043352008,0.001694565755315125,-0.00009691482409834862
1783696426830980400,5.02398046875,0.000047834706492722034,0.00034644652623683214,0.000012003467418253422
1783696426840943400,5.033943359375,0.0004342593892943114,-0.00329542625695467,-0.0006332804914563894
1783696426850906400,5.04390625,0.0007917670300230384,0.002308204770088196,0.0003652314771898091
1783696426860869400,5.053869384765625,0.0012807233724743128,0.0005784817039966583,0.0003284798585809767
1783696426870832400,5.063832275390625,-0.0007012576097622514,-0.0017447570571675897,-0.001204171683639288
1783696426880795400,5.07379541015625,0.00044896171311847866,0.0018491789232939482,-0.00010588415898382664
1783696426890758400,5.08375830078125,-0.0005427750875242054,-0.0003233792958781123,0.0011224746704101562
1783696426900721400,5.093721435546875,-0.000170198836713098,-0.0010978265199810266,0.00013018090976402164
1783696426910684400,5.103684326171875,-0.0010711685754358768,-0.00018817500676959753,0.0012618803884834051
1783696426920648400,5.1136484375,-0.001681298715993762,-0.00005608226638287306,0.0006885018665343523
1783696426930611500,5.123611572265625,-0.00112484663259238,0.00011517433449625969,0.0006089563248679042
1783696426940574500,5.133574462890625,0.001976670930162072,0.0026992394123226404,-0.0005074407672509551
1783696426950537500,5.143537353515625,0.00016618185327388346,-0.0028669240418821573,-0.000395657611079514
1783696426960500500,5.15350048828125,-0.0012841756688430905,-0.00014863559044897556,0.0005076866364106536
1783696426970463200,5.163463134765625,0.0011420438531786203,0.002173137152567506,0.000988193554803729
1783696426980426200,5.17342626953125,0.00044429569970816374,-0.0025395925622433424,0.0004579582600854337
1783696426990389200,5.18338916015625,-0.000028534617740660906,-0.0018635395681485534,-0.001273354166187346
1783696427000353300,5.193353271484375,-0.00012467472697608173,0.0008544825832359493,0.0007208207389339805
1783696427010316300,5.20331640625,-0.0005307812825776637,-0.0029047606512904167,0.0025251854676753283
1783696427020279300,5.213279296875,-0.0002455567300785333,-0.00003573705907911062,-0.0013116307090967894
1783696427030242600,5.22324267578125,-0.0003054120170418173,0.0021125669591128826,0.0011937327217310667
1783696427040205600,5.23320556640625,0.0007654450018890202,-0.002550361678004265,-0.00041215342935174704
1783696427050168300,5.243168212890625,-0.00010521411604713649,0.00027648231480270624,-0.00017237267456948757
1783696427060131300,5.25313134765625,-0.0014972484204918146,0.0008288219105452299,0.0020212731324136257
1783696427070094300,5.26309423828125,-0.000336431956384331,-0.000971210771240294,-0.0012557506561279297
1783696427080057300,5.273057373046875,-0.0016432451084256172,0.0010746296029537916,-0.0011244569905102253
1783696427090021400,5.283021484375,-0.000910621602088213,-0.0008777359034866095,0.002158141229301691
1783696427099984400,5.292984375,-0.0003087472287006676,-0.0016873369459062815,-0.0000853055389598012
1783696427109947400,5.302947509765625,0.0006254421314224601,0.0017528323223814368,0.0002430959139019251
1783696427119910400,5.312910400390625,-0.00026751577388495207,-0.00015159416943788528,0.0013267361791804433
1783696427139214300,5.33221435546875,-0.00033115767291747034,0.0020188651978969574,0.0001626238226890564
1783696427149177300,5.34217724609375,-0.00027816076180897653,0.0005208371439948678,0.0010553153697401285
1783696427159140400,5.352140380859375,-0.0007469857227988541,-0.002116911578923464,0.0008236497524194419
1783696427169103400,5.362103271484375,0.0012818103423342109,0.0012583788484334946,-0.0008147269254550338
1783696427179066400,5.37206640625,-0.0003262224199716002,-0.0004745727637782693,0.0007010390982031822
1783696427189029400,5.382029296875,-0.0008319566841237247,-0.0017598142148926854,0.0006762717384845018
1783696427198992100,5.3919921875,0.0011043127160519361,0.001003849902190268,0.0003958330489695072
1783696427208955400,5.401955322265625,-0.0002850583987310529,-0.0018806197913363576,0.0008435104391537607
1783696427218919200,5.411919189453125,0.0007082234951667488,0.0006309596356004477,-0.001574016408994794
1783696427228882400,5.42188232421875,-0.002004472305998206,0.0030405877623707056,0.0005101735005155206
1783696427238845400,5.431845458984375,0.0006427275366149843,-0.001043634139932692,0.00018497853307053447
1783696427248808400,5.441808349609375,0.0005370000144466758,-0.0000071319518610835075,-0.0011655105045065284
1783696427258771500,5.451771484375,0.0008909304160624743,-0.0006007618503645062,0.000020457548089325428
1783696427268734500,5.461734375,0.00021448751795105636,-0.0027992012910544872,-0.00014652259415015578
1783696427278697200,5.471697265625,0.0001227467437274754,-0.0005434630438685417,-0.00046706164721399546
1783696427288660200,5.48166015625,0.0010631089098751545,0.0005742657231166959,0.000673570204526186
1783696427298623200,5.491623291015625,-0.0009213050943799317,-0.0024561919271945953,0.00030252570286393166
1783696427308587300,5.501587158203125,-0.0002789506106637418,-0.00015948188956826925,0.0007637852104380727
1783696427318550300,5.51155029296875,-0.0007390343816950917,0.0015101946191862226,-0.00037199800135567784
1783696427328513300,5.52151318359375,0.00033981213346123695,-0.0009790620533749461,-0.0009017007541842759
1783696427338476500,5.5314765625,0.0004316817794460803,0.0016288820188492537,-0.00020744407083839178
1783696427348439600,5.541439453125,0.0006942694308236241,0.0007375219720415771,0.0011283975327387452
1783696427358402300,5.55140234375,0.000018462480511516333,-0.0025437199510633945,0.0001654051011428237
1783696427368365300,5.561365234375,-0.00032934636692516506,0.0011061420664191246,0.00001120805973187089
1783696427378328300,5.571328369140625,-0.0002638488367665559,0.0025978400371968746,0.0004219847032800317
1783696427388291300,5.581291259765625,-0.0002936762466561049,-0.001102356007322669,-0.0005719070322811604
1783696427398255400,5.59125537109375,0.0017044884152710438,0.0016474649310112,-0.001889027189463377
1783696427408218400,5.60121826171875,0.0003129868709947914,0.0010298779234290123,0.0009054277907125652
1783696427418181400,5.611181396484375,-0.0012288012076169252,-0.000757396686822176,-0.0009368506725877523
1783696427428144400,5.621144287109375,-0.0014517076779156923,0.0016341219889000058,-0.0015488452045246959
1783696427438107100,5.631107177734375,0.0004911178257316351,-0.0010403409833088517,0.0009689360158517957
1783696427448692200,5.641692138671875,-0.00028625893173739314,-0.0027444977313280106,-0.0006057911086827517
1783696427458655200,5.6516552734375,0.0003779351245611906,0.00013281428255140781,0.00007199397077783942
1783696427468619300,5.661619384765625,-0.001816243282519281,-0.0009926377097144723,0.0011063657002523541
1783696427478582300,5.671582275390625,-0.0015519502339884639,-0.001094318344257772,-0.0008338115876540542
1783696427488545500,5.681545654296875,-0.00040199729846790433,0.0023760469630360603,-0.0005246185464784503
1783696427498508500,5.691508544921875,0.0006987960077822208,0.00016086571849882603,-0.00029810110572725534
1783696427508471300,5.70147119140625,-0.0010154807241633534,0.0004815103020519018,-0.0017780197085812688
1783696427518434300,5.711434326171875,-0.0007391316466964781,0.000983620760962367,0.00017716933507472277
1783696427528397300,5.721397216796875,-0.0009138350142166018,-0.00200098380446434,0.00116893055383116
1783696427538360300,5.7313603515625,0.00012410234194248915,0.0005148232448846102,-0.00022792175877839327
1783696427548324400,5.741324462890625,-0.00029827500111423433,0.0010815439745783806,-0.0007320580771192908
1783696427558287400,5.751287353515625,-0.0005109332269057631,-0.002418954623863101,0.0011407630518078804
1783696427568250400,5.76125048828125,-0.0004358321020845324,-0.0003691196907311678,-0.0005761768552474678
1783696427578213400,5.77121337890625,-0.00035214927629567683,0.002046704525128007,0.00044435224845074117
1783696427588176100,5.781176025390625,-0.000553484249394387,-0.0020870540756732225,0.00003742123953998089
1783696427598139400,5.791139404296875,0.0006985845393501222,0.00038486358243972063,-0.00028289773035794497
1783696427608102400,5.801102294921875,-0.000002093147486448288,0.0008929947507567704,0.0009898269781842828
1783696427618065400,5.8110654296875,0.000884035776834935,-0.0015650894492864609,0.0013810743112117052
1783696427628028200,5.821028076171875,-0.0017146768514066935,0.0010554611217230558,0.0014122333377599716
1783696427637992200,5.8309921875,-0.00017613364616408944,-0.000047409324906766415,0.0013845307985320687
1783696427647955200,5.840955078125,0.0005546377506107092,-0.0009888367494568229,0.00008677237201482058
1783696427657918200,5.850918212890625,0.000020667604985646904,0.0011184981558471918,-0.002068462548777461
1783696427667881000,5.860880859375,0.0007538358913734555,0.0006737502408213913,-0.0001832109410315752
1783696427677844000,5.870843994140625,0.000379259348846972,-0.002299756510183215,-0.0024205995723605156
1783696427687807000,5.880806884765625,0.0017960610566660762,0.0015373261412605643,0.00018450443167239428
1783696427697770200,5.890770263671875,-0.0003636275650933385,0.00009413110092282295,0.0007888354011811316
1783696427707733200,5.900733154296875,-0.0008429965237155557,-0.0031586538534611464,0.0003789748880080879
1783696427717697000,5.910697021484375,0.00027625157963484526,0.0007667024619877338,0.0008185577462427318
1783696427727660300,5.920660400390625,0.0008680059108883142,-0.001086058677174151,0.000575144833419472
1783696427737623300,5.930623291015625,-0.001441895728930831,-0.00220211548730731,-0.0022683385759592056
1783696427747586000,5.9405859375,0.0009413671214133501,0.003450710093602538,-0.0010246423771604896
1783696427757549000,5.950549072265625,0.00034016050631180406,-0.0005071633495390415,-0.00031542452052235603
1783696427767512000,5.960511962890625,-0.0010257747489959002,-0.0006057003047317266,-0.0012568519450724125
1783696427777475000,5.97047509765625,0.000156345748109743,0.0020166432950645685,0.0004913111915811896
1783696427787438000,5.98043798828125,-0.0006894741673022509,0.0002456412184983492,0.002113708993420005
1783696427797402000,5.990402099609375,-0.000763028918299824,-0.00034939462784677744,-0.0009951965184882283
1783696427807365000,6.000365234375,0.0006612295983359218,0.001520410762168467,0.00021707441192120314
1783696427817328000,6.010328125,0.000688185275066644,-0.0029548804741352797,-0.0001415181322954595
1783696427827291100,6.020291015625,0.001833078102208674,-0.00044511747546494007,0.00011174852261319757
1783696427837254100,6.030254150390625,0.0007049885462038219,0.000529478071257472,0.0005657122237607837
1783696427847217200,6.040217041015625,-0.0010028965771198273,-0.001850322587415576,0.0012016750406473875
1783696427857180200,6.05018017578125,0.0005180970765650272,-0.000053795287385582924,0.0006985239451751113
1783696427867143200,6.06014306640625,-0.0021828808821737766,0.0015038875862956047,0.0015326259890571237
1783696427877107200,6.070107177734375,0.0011134070809930563,-0.0004293458769097924,-0.0000911011011339724
1783696427887070200,6.0800703125,-0.00024267453409265727,-0.00011109805200248957,-0.0012604951625689864
1783696427897033200,6.090033203125,0.0004179702082183212,0.0018526935018599033,-0.00034973130095750093
1783696427906996000,6.099995849609375,-0.001529599423520267,-0.00014228036161512136,-0.001652549603022635
1783696427916959000,6.109958984375,-0.0007750904187560081,0.0012374859070405364,0.000037873571272939444
1783696427926922000,6.119921875,0.0003351815103087574,0.001453468226827681,-0.0007901032222434878
1783696427936885000,6.129885009765625,0.001496378448791802,-0.0005729444092139602,-0.0008534634835086763
1783696427946848300,6.13984814453125,0.00045881085679866374,0.0009240183862857521,-0.00023534375941380858
1783696427956812000,6.14981201171875,0.0014722710475325584,0.0004629994509741664,0.0011463596019893885
1783696427966775300,6.159775390625,0.0010237946407869458,-0.0022081509232521057,-0.00041718222200870514
1783696427976738300,6.16973828125,0.0013329017674550414,0.0019219235982745886,0.000174972927197814
1783696427986701000,6.179701171875,-0.0006463595782406628,-0.00006506091449409723,0.0007949568680487573
1783696427996664000,6.1896640625,0.0013702376745641232,-0.0008637435967102647,-0.0010967084672302008
1783696428006627000,6.199626953125,-0.0009320650133304298,0.0025432384572923183,0.00038613961078226566
1783696428016590000,6.209590087890625,-0.00030193536076694727,-0.0010202310513705015,0.00004356045974418521
1783696428026553000,6.219552978515625,0.0011638684663921595,-0.0015294274780899286,-0.001917324960231781
1783696428036517000,6.22951708984375,-0.00018170785915572196,0.002649142872542143,0.0008905114373192191
1783696428046480100,6.239480224609375,-0.0003721238754224032,-0.0007626329315826297,-0.0011113866930827498
1783696428056443100,6.249443115234375,-0.0012495113769546151,-0.0007690143538638949,-0.0009826172608882189
1783696428066406000,6.259406005859375,-0.00046441153972409666,0.0018528676591813564,-0.0006028504576534033
1783696428076369200,6.269369140625,0.0004004485090263188,-0.0018118168227374554,-0.000022344524040818214
1783696428086332200,6.279332275390625,0.0009882081067189574,-0.0002759717172011733,-0.002624785527586937
1783696428096295200,6.289295166015625,-0.000477612076792866,0.0023874640464782715,-0.0003964998759329319
1783696428106258200,6.299258056640625,0.0007663504802621901,-0.002835793886333704,0.0010679725091904402
1783696428116222200,6.30922216796875,-0.0005749172414653003,-0.0011824381072074175,0.0001447276445105672
1783696428126185200,6.319185302734375,5.922629497945309e-8,0.0014591513900086284,-0.00101934012491256
1783696428136148200,6.329148193359375,-0.0016978979110717773,-0.0026659476570785046,-0.0008803175296634436
1783696428146111000,6.339111083984375,-0.0002619214355945587,-0.0010179836535826325,0.0007258349214680493
1783696428156074000,6.349073974609375,-0.0013087221886962652,0.0018199115293100476,0.0002696138108149171
1783696428166037000,6.359037109375,0.0004447030078154057,-0.0014741524355486035,0.000528206757735461
1783696428176000000,6.369,0.001973686506971717,0.00011108489707112312,-0.0006206716643646359
1783696428185964000,6.378964111328125,-0.0015749756712466478,0.0018623796058818698,-0.0003687366843223572
1783696428195927000,6.388927001953125,0.0008355501922778785,-0.0021185323130339384,-0.0014254209818318486
1783696428205890300,6.398890380859375,-0.000561011431273073,0.001444244640879333,0.0009381345589645207
1783696428215853300,6.408853271484375,0.0009695314802229404,0.002412085887044668,-0.0006875040126033127
1783696428225816000,6.418816162109375,-0.0005420787492766976,-0.00009820971172302961,-0.0009911044035106897
1783696428235779000,6.428779052734375,0.00021822669077664614,0.0020938448142260313,-0.0007692567305639386
1783696428245742000,6.4387421875,0.0010448719840496778,-0.000022569322027266026,0.0009261115919798613
1783696428255705000,6.448705078125,-0.00035693065728992224,-0.002341907238587737,-0.0009248484275303781
1783696428265669000,6.458669189453125,-0.0002650515816640109,0.0013931762659922242,0.0006501449970528483
1783696428275632000,6.468632080078125,-0.001310461200773716,-0.0013598732184618711,-0.00043991062557324767
1783696428285595100,6.47859521484375,0.0003710587334353477,-0.0017279221210628748,-0.0004710696521215141
1783696428295558100,6.48855810546875,0.00017411804583389312,0.0019150138832628727,-0.0006912185926921666
1783696428305521000,6.49852099609375,0.0004265856696292758,0.0005003428086638451,0.0006683251122012734
1783696428315484200,6.508484130859375,0.0007462815847247839,-0.001863502198830247,0.0005655052373185754
1783696428325447200,6.518447265625,0.0012482873862609267,0.0023139321710914373,-0.00002065650187432766
1783696428335410200,6.52841015625,0.002018351573497057,-0.00016011320985853672,0.0013119743671268225
1783696428345374200,6.538374267578125,0.00019222209812141955,-0.0009758394444361329,-0.0006787385791540146
1783696428355337200,6.548337158203125,0.00007219803228508681,0.00020739296451210976,-0.0008777172770351171
1783696428365300200,6.55830029296875,0.0010815360583364964,-0.0014405710389837623,0.0006429476197808981
1783696428375263200,6.56826318359375,0.000010154748451896012,0.0005533789517357945,-0.0011523489374667406
1783696428385226000,6.57822607421875,0.0009454569662921131,0.0019834963604807854,-0.0006668547866865993
1783696428395189000,6.58818896484375,-0.0010849677491933107,-0.002254603896290064,0.0003282870166003704
1783696428405152000,6.598152099609375,0.0006125310901552439,0.000523605733178556,-0.00006213237065821886
1783696428415116000,6.608115966796875,-0.001743529923260212,0.0017552344361320138,0.0012189338449388742
1783696428425079000,6.6180791015625,-0.00003431304503465071,-0.0020086111035197973,-0.00010172766633331776
1783696428435042000,6.6280419921875,0.0010074768215417862,-0.000023578759282827377,-0.00048651336692273617
1783696428445005000,6.638005126953125,-0.0011422268580645323,0.0014366324758157134,-0.001062821364030242
1783696428454968300,6.64796826171875,-0.001052770297974348,-0.0008565492462366819,-0.00031928031239658594
1783696428464931000,6.65793115234375,0.002017588121816516,0.0016651978949084878,-0.0025973482988774776
1783696428474894000,6.66789404296875,0.0011836729245260358,0.0012020900612697005,0.0008054340141825378
1783696428484857000,6.677857177734375,0.0014324120711535215,-0.0033604376949369907,-0.000538929714821279
1783696428494821000,6.687821044921875,0.0005773872253485024,0.0018639458576217294,-0.00018792611081153154
1783696428504784100,6.6977841796875,-0.00013101359945721924,0.0018053563544526696,0.0004930441500619054
1783696428514747100,6.7077470703125,0.00017051557369995862,-0.0025524527300149202,-0.0005589312058873475
1783696428524710100,6.717710205078125,-0.0009307015570811927,0.0030529689975082874,-0.0019312582444399595
1783696428534673200,6.727673095703125,-0.0013264563167467713,0.0020780470222234726,0.0008584432071074843
1783696428544636000,6.737635986328125,-0.000029230592190288007,-0.0003321137046441436,-0.0010310696670785546
1783696428554599200,6.74759912109375,0.0005632094689644873,0.00039034755900502205,-0.0009464278118684888
1783696428564562200,6.757562255859375,0.0017685561906546354,0.0005642519099637866,-0.0005059409886598587
1783696428574526000,6.76752587890625,0.0009019076242111623,-0.000756308319978416,-0.0010614758357405663
1783696428584489200,6.7774892578125,0.00047713349340483546,0.0012453235685825348,-0.00007264415035024285
1783696428594452200,6.7874521484375,0.0013179974630475044,0.0015258181374520063,0.000026932742912322283
1783696428604415200,6.797415283203125,-0.0005917553207837045,-0.0007325424812734127,-0.00012726429849863052
1783696428614378200,6.807378173828125,-0.002696446841582656,0.000953929906245321,-0.001581936958245933
1783696428624341000,6.817341064453125,0.00010013856808654964,-0.000589904491789639,0.0012050610966980457
1783696428634304800,6.8273046875,-0.0025066903326660395,-0.0006194089073687792,-0.0017602535663172603
1783696428644268800,6.837268798828125,0.0003112004487775266,0.0028080791234970093,-0.0006150943227112293
1783696428654231600,6.8472314453125,-0.0005483557470142841,-0.0011669343803077936,-0.0010116486810147762
1783696428664194600,6.857194580078125,0.0018567448714748025,-0.0011932996567338705,-0.0015860924031585455
1783696428674157600,6.867157470703125,0.0004384007188491523,0.0025871912948787212,0.0006606747629120946
1783696428684120600,6.87712060546875,0.00010790242231450975,-0.00040087534580379725,0.00106973631773144
1783696428694083600,6.88708349609375,-0.00029953851480968297,0.0006609411211684346,-0.0009412664221599698
1783696428704046800,6.897046875,-0.00046971451956778765,0.0023408629931509495,0.00010722002480179071
1783696428714009900,6.907009765625,-0.0009557499433867633,-0.002473557600751519,0.001237172051332891
1783696428723973600,6.9169736328125,-0.00008462995174340904,-0.001239449018612504,-0.0005993437953293324
1783696428733936600,6.9269365234375,-0.0008228705846704543,0.0020080888643860817,-0.00025510916020721197
1783696428743899600,6.936899658203125,0.00021150117390789092,-0.001909421058371663,0.00010521651711314917
1783696428753862700,6.946862548828125,0.0014302197378128767,0.00019166653510183096,0.0002576615079306066
1783696428763825700,6.95682568359375,0.0018278296338394284,0.0034428536891937256,0.0006384935695677996
1783696428773788700,6.96678857421875,0.00003592399298213422,-0.001282350393012166,0.00021296105114743114
1783696428783751700,6.976751708984375,-0.0006849936908110976,0.0003752009943127632,-0.0006448430940508842
1783696428793714700,6.986714599609375,-0.00020864683028776199,0.0013336872216314077,0.0013726582983508706
1783696428803678700,6.9966787109375,0.0006909689982421696,-0.001471154042519629,-0.00046598806511610746
1783696428813641500,7.006641357421875,-0.001244432176463306,0.0015182128408923745,0.00047578063094988465
1783696428823604500,7.0166044921875,-0.00018103196634911,0.0009477637358941138,0.0010305170435458422
1783696428833567700,7.026567626953125,0.0006358608370646834,-0.0031802537851035595,0.0002902948181144893
1783696428843530800,7.03653076171875,0.00010109803406521678,0.0018959976732730865,-0.0005960051203146577
1783696428853493800,7.04649365234375,-0.00041002908255904913,0.00007441721390932798,0.0008306556846946478
1783696428863456800,7.056456787109375,0.000747647020034492,-0.002582618733868003,0.001114016049541533
1783696428873420800,7.0664208984375,0.0018287479178979993,0.001370270736515522,-0.0006757638184353709
1783696428883383800,7.0763837890625,0.000013537428458221257,0.0005875676870346069,0.0012169447727501392
1783696428893346600,7.0863466796875,0.0009400811395607889,-0.0011797486804425716,0.00019894359866157174
1783696428903309600,7.0963095703125,0.0006412744405679405,0.0008162904996424913,0.00017311092233285308
1783696428913272600,7.1062724609375,0.0005258712917566299,-0.0009599765762686729,-0.0008133728988468647
1783696428923235600,7.116235595703125,-0.0000991726410575211,-0.0012515927664935589,-0.0001811385154724121
1783696428933198600,7.126198486328125,0.0005095405504107475,0.0012337336083874106,0.0013170669553801417
1783696428943161600,7.13616162109375,-0.0009107232326641679,-0.000604113913141191,0.000002264278009533882
1783696428953125600,7.146125732421875,-0.0004162048571743071,0.000965787039604038,-0.0007250963244587183
1783696428963088600,7.156088623046875,-0.0001285834441659972,0.0010597966611385345,0.0003633376327343285
1783696428973051600,7.1660517578125,0.0012413924559950829,-0.0006042742170393467,0.000031460775062441826
1783696428983014700,7.1760146484375,-0.0003988484386354685,-0.0002090610796585679,-0.0012130343820899725
1783696428992977700,7.185977783203125,0.0007347984937950969,0.0013436282752081752,-0.00166627811267972
1783696429002940700,7.195940673828125,0.0012011179933324456,-0.0018681440269574523,0.0001918093767017126
1783696429012903700,7.205903564453125,0.0019390463130548596,-0.000524207716807723,0.0005891436594538391
1783696429022866700,7.21586669921875,-0.0017552906647324562,0.001326422905549407,-0.0007123431423678994
1783696429032830700,7.225830810546875,-0.00137772923335433,-0.0013647127198055387,0.0015542820328846574
1783696429042793700,7.235793701171875,-0.0008088779868558049,0.0004592863842844963,-0.0007048775441944599
1783696429052756500,7.245756591796875,-0.0017302752239629626,0.001889940002001822,0.0003361437702551484
1783696429062719500,7.255719482421875,-0.0008975046803243458,-0.001552461995743215,0.0010927479015663266
1783696429072682500,7.2656826171875,-0.0005507504101842642,0.0019652245100587606,-0.0000011177035048604012
1783696429082645800,7.275645751953125,0.0001366114302072674,0.0003604036755859852,0.00013949722051620483
1783696429092608800,7.28560888671875,0.0005376306944526732,-0.0016489860136061907,-0.000027005677111446857
1783696429102571800,7.29557177734375,-0.00004160685057286173,0.002521257847547531,-0.0016454086871817708
1783696429112535800,7.305535888671875,-0.0011276811128482223,0.0009615703602321446,-0.0006838981062173843
1783696429122498800,7.315498779296875,-0.0010893315775319934,-0.0022400817833840847,0.0012466273037716746
1783696429132461600,7.325461669921875,0.0014531079214066267,0.0013386680511757731,0.0001111859455704689
1783696429142424600,7.335424560546875,-0.0001807414082577452,0.000841722241602838,-0.0009924279293045402
1783696429152387600,7.3453876953125,0.0012775720097124577,-0.002999938791617751,0.00011340237688273191
1783696429162350600,7.3553505859375,0.0010812970576807857,0.002551420358940959,-0.001070106285624206
1783696429172313600,7.365313720703125,-0.0016769953072071075,0.0004050239222124219,0.001102174399420619
1783696429182277600,7.375277587890625,0.000200533278984949,-0.0013654454378411174,-0.0005537791876122355
1783696429192240600,7.38524072265625,-0.0024829679168760777,0.0004001546185463667,0.0006779615650884807
1783696429202203600,7.39520361328125,-0.00017906728317029774,-0.0017450216691941023,-0.0005305808736011386
1783696429212166700,7.405166748046875,-0.0005720077315345407,-0.00015743589028716087,0.000005443114787340164
1783696429222129700,7.415129638671875,0.0006072399555705488,0.0016902652569115162,0.001822784310206771
1783696429232092700,7.4250927734375,-0.0003356228116899729,-0.0006604976952075958,0.00013072311412543058
1783696429242055700,7.4350556640625,0.0007235163357108831,-0.0013691647909581661,-0.0001619582762941718
1783696429252018700,7.445018798828125,0.0006702341488562524,0.004178948234766722,-0.00004848430398851633
1783696429261982700,7.454982666015625,-0.002023819601163268,-0.001452305936254561,0.0008292936254292727
1783696429271945700,7.46494580078125,0.00045512462384067476,-0.00022054067812860012,-0.0006658306811004877
1783696429281908700,7.47490869140625,0.0018357073422521353,0.0016553899040445685,-0.000029068905860185623
1783696429291871500,7.48487158203125,0.0023288759402930737,-0.000802727066911757,0.0003706731367856264
1783696429301834500,7.49483447265625,0.0006550793768838048,-0.0003747571026906371,0.00020955194486305118
1783696429311797500,7.504797607421875,-0.002489069476723671,0.0011903343256562948,-0.00014182156883180141
1783696429321760800,7.5147607421875,-0.0010144772240892053,-0.0031074751168489456,0.0008715111762285233
1783696429331724500,7.524724609375,0.0003960941394325346,-0.0004123679827898741,-0.0007745006587356329
1783696429341687600,7.5346875,-0.0000736874935682863,-0.00007201603148132563,0.0010420415783300996
1783696429351650800,7.54465087890625,0.0007905879756435752,-0.0015148326056078076,0.0021702065132558346
1783696429361613800,7.55461376953125,0.00019031151896342635,0.001405589864589274,-0.0011385049438104033
1783696429371576600,7.56457666015625,0.0012049947399646044,0.0018982902402058244,0.00105867360252887
1783696429381539600,7.57453955078125,0.00032481993548572063,-0.0028112437576055527,0.0002333599841222167
1783696429391502600,7.584502685546875,-0.0010754797840490937,-0.00010494864545762539,-0.0013981134397909045
1783696429401466600,7.594466552734375,0.002765331184491515,0.0014814963797107339,0.0014131193747743964
1783696429411429600,7.6044296875,0.0018061711452901363,-0.0034350771456956863,-0.0006682995008304715
1783696429421392600,7.614392578125,-0.0005587157793343067,0.0013271874049678445,0.0002803185489028692
1783696429431355600,7.624355712890625,-0.00015247163537424058,0.0027677896432578564,0.00048357160994783044
1783696429441318700,7.634318603515625,0.0006584608927369118,-0.0021502701565623283,0.00009421748109161854
1783696429451281700,7.64428173828125,0.0004279401618987322,0.001490444061346352,0.0014502934645861387
1783696429461244700,7.65424462890625,-0.0004623545682989061,0.0008981570135802031,-0.0005143204471096396
1783696429471207700,7.664207763671875,0.0005574497045017779,-0.0019345442997291684,0.0018363583367317915
1783696429481171700,7.674171630859375,-0.0004337788559496403,0.0006135681178420782,0.0002030416508205235
1783696429491134700,7.684134765625,0.0006969594396650791,-0.0013331405352801085,-0.000007116817869246006
1783696429501097700,7.69409765625,0.0012032263912260532,-0.0005083596333861351,-0.0007171155884861946
1783696429511060700,7.704060791015625,0.00004788831574842334,0.0016052377177402377,-0.0002754937158897519
1783696429521023700,7.714023681640625,0.00019995481125079095,-0.0009324883576482534,-0.0005466035800054669
1783696429530986500,7.723986572265625,-0.00017773968284018338,0.0001904699020087719,-0.000353511655703187
1783696429540949500,7.733949462890625,0.0010470481356605887,0.002931395312771201,-0.001094403094612062
1783696429550913500,7.74391357421875,-0.0005641728639602661,-0.00010819314047694206,0.000838095904327929
1783696429560876500,7.75387646484375,0.000986319500952959,0.0004984749248251319,-0.0009504831396043301
1783696429570839600,7.763839599609375,-0.00013674011279363185,0.001192313153296709,0.000768153287936002
1783696429580802600,7.773802490234375,-0.0011066633742302656,-0.0000793462386354804,0.001960716675966978
1783696429590765800,7.783765869140625,-0.0012956687714904547,0.00018771528266370296,-0.00027604843489825726
1783696429600728800,7.793728759765625,0.0010905235540121794,0.002600805601105094,0.0014070693869143724
1783696429610691600,7.803691650390625,0.0008193358080461621,-0.0020950869657099247,0.0005465362337417901
1783696429620655600,7.813655517578125,-0.0004078488564118743,0.0007398478919640183,-0.0010329846991226077
1783696429630619100,7.823619140625,0.0003061400493606925,0.0013175532221794128,-0.00011210725642740726
1783696429640582100,7.83358203125,-0.0006510000675916672,-0.0009048546198755503,0.0009747287258505821
1783696429650545200,7.843545166015625,0.0014506918378174305,0.0009842009749263525,0.0001291806111112237
1783696429660508000,7.8535078125,-0.001344295684248209,-0.000204101437702775,0.0012322620023041964
1783696429670471000,7.863470947265625,0.0007329773507080972,-0.0026270360685884953,0.0008607260533608496
1783696429680434000,7.873433837890625,-0.0027917162515223026,-0.0000094148563221097,-0.0009622076759114861
1783696429690397000,7.88339697265625,0.0006666101980954409,0.0008942558779381216,-0.00027970061637461185
1783696429700361000,7.89336083984375,-0.00014645287592429668,-0.00025969184935092926,0.000695815309882164
1783696429710324000,7.903323974609375,-0.0007348358631134033,0.00042622582986950874,-0.0013620145618915558
1783696429720287000,7.913286865234375,-0.0010496214963495731,-0.00017298536840826273,0.0009567997185513377
1783696429730250200,7.923250244140625,-0.0006901482120156288,0.0006399876438081264,0.00021876883693039417
1783696429740213000,7.933212890625,-0.00015911387163214386,0.0008445184212177992,0.00006270757876336575
1783696429750176000,7.943176025390625,-0.0010091472649946809,-0.001619924558326602,0.0007272552466019988
1783696429760139000,7.953138916015625,-0.0015401816926896572,-0.0022974328603595495,-0.0006155105074867606
1783696429770103000,7.96310302734375,0.00003775072400458157,0.0032839232590049505,-0.0009148692479357123
1783696429780066000,7.973066162109375,-0.0001585242571309209,-0.0007750004297122359,-0.0004512129817157984
1783696429790029000,7.983029052734375,-0.0011044892016798258,-0.0030577494762837887,-0.002057089935988188
1783696429799992000,7.992991943359375,0.0017315110890194774,0.002090673428028822,-0.0014384376117959619
1783696429809955000,8.002955078125,0.00030018173856660724,0.0001417398452758789,0.0009548304369673133
1783696429819917800,8.012917724609375,-0.000334183219820261,-0.0006114020943641663,-0.0013884848449379206
1783696429829880800,8.022880859375,-0.00008042075205594301,0.0022846348583698273,-0.000771773629821837
1783696429839844900,8.032844970703126,0.00007191207259893417,-0.0002637439174577594,-0.00031584047246724367
1783696429849808000,8.042807861328125,0.0007068715058267117,-0.00012540491297841072,-0.0009281035745516419
1783696429859771100,8.052771240234375,-0.0004987415159121156,0.0019337512785568833,0.000916135439183563
1783696429869734100,8.062734130859376,-0.00016586716810707003,-0.0022066961973905563,0.001981099136173725
1783696429879697200,8.072697265625,-0.000916345976293087,-0.00024368020240217447,-0.0006964430212974548
1783696429889660200,8.08266015625,-0.00039160443702712655,0.0026541855186223984,0.0011905169812962413
1783696429899623000,8.092622802734375,0.00013144037802703679,-0.001788233406841755,0.00039556343108415604
1783696429909587200,8.102587158203125,0.00025326659670099616,0.00006832880899310112,7.705530151724815e-7
1783696429919550000,8.112550048828124,-0.0010673949727788568,0.000806024472694844,-0.00029670458752661943
1783696429929513000,8.122512939453125,-0.0005678428569808602,-0.002454924862831831,-0.0001865938538685441
1783696429939476000,8.13247607421875,0.0012486992636695504,0.0011145098833367229,0.0012078372528776526
1783696429949439000,8.14243896484375,0.0011045344872400165,-0.00015199591871351004,0.00038143148412927985
1783696429959402000,8.152402099609375,0.00018654283485375345,-0.0009024746250361204,-0.0005330980056896806
1783696429969365000,8.162364990234375,0.0005631452077068388,-0.00030595704447478056,-0.0007352619431912899
1783696429979328000,8.172327880859376,-0.0011367504484951496,-0.00004017353057861328,0.0009941948810592294
1783696429989292000,8.1822919921875,0.0003077686415053904,-0.0013422481715679169,0.0005969583289697766
1783696429999255000,8.192255126953125,0.00033013918437063694,0.001108392607420683,0.0006984247593209147
1783696430009218000,8.202218017578126,0.0010344854090362787,-0.0006629775743931532,0.0017036186764016747
1783696430019181000,8.21218115234375,-0.0007405114592984319,-0.00134368147701025,-0.0011683341581374407
1783696430029144000,8.22214404296875,-0.0006887708441354334,0.0008441786631010473,0.0016879456816241145
1783696430039107000,8.232107177734376,-0.0008458973607048392,0.00009982520714402199,-0.0006212812149897218
1783696430049070000,8.242070068359375,-0.000013441647752188146,-0.002708979183807969,0.0008109473856166005
1783696430059034000,8.2520341796875,-0.0004475369059946388,0.001872190274298191,0.0006290535093285143
1783696430068997000,8.2619970703125,-0.0016336770495399833,-0.00004514411557465792,0.0020668550860136747
1783696430078959900,8.2719599609375,-0.0003479028819128871,-0.003415907034650445,0.00013925903476774693
1783696430088923000,8.2819228515625,0.0004346652131062001,0.002217112109065056,-0.001071220962330699
1783696430098886000,8.291885986328126,-0.0000692048342898488,-0.0007248817710205913,0.0016025927616283298
1783696430108849200,8.30184912109375,-0.0006939276354387403,-0.0015318336663767695,-0.0009653918677940965
1783696430118812200,8.311812255859374,0.00033698196057230234,0.0009382481221109629,0.0010136031778529286
1783696430128776200,8.321776123046876,0.00021158758318051696,-0.00043259584344923496,0.00048252096166834235
1783696430138739200,8.3317392578125,0.0011205244809389114,-0.0010171597823500633,0.000014337245374917984
1783696430148702200,8.3417021484375,-0.00022398574219550937,0.0006136116571724415,0.0010451803682371974
1783696430158665000,8.3516650390625,-0.000602953601628542,-0.000979224918410182,-0.0016992072341963649
1783696430168628000,8.3616279296875,0.0017344659427180886,-0.0011293001007288694,-0.0015085593331605196
1783696430178591000,8.371591064453124,0.00033657270250841975,0.0024012525100260973,0.0004968008724972606
1783696430188554000,8.381553955078125,-0.00019112029985990375,-0.001913329353556037,0.0012336585205048323
1783696430198517000,8.39151708984375,0.0008895905339159071,0.0001524846302345395,-0.0010422789491713047
1783696430208481000,8.40148095703125,-0.00040597328916192055,0.0014319337205961347,0.0008647818467579782
1783696430218444000,8.411444091796875,-0.0011854806216433644,-0.001896484987810254,0.0005792909651063383
1783696430228407000,8.421406982421875,-0.0010477638570591807,-0.0014182047452777624,-0.0009344473946839571
1783696430238370000,8.4313701171875,-0.0005114031955599785,0.0012641310459002852,-0.000013792538084089756
1783696430248333000,8.4413330078125,-0.0003266712883487344,-0.0019034792203456163,-0.00040604453533887863
1783696430258296000,8.451296142578125,0.0016967984847724438,-0.0011016016360372305,0.0003777238307520747
1783696430268259000,8.461259033203126,0.0014025140553712845,0.0008392590680159628,-0.00035291456151753664
1783696430278223000,8.47122314453125,-0.0005977862747386098,-0.0015024584718048573,-0.00221925787627697
1783696430288186000,8.48118603515625,0.00025343254674226046,0.0014017801731824875,-0.0006459490396082401
1783696430298149000,8.491149169921876,-0.0004890567506663501,0.001685673138126731,0.00009494228288531303
1783696430308112100,8.501112060546875,-0.0002152777014998719,-0.0018431255593895912,0.0011416194029152393
1783696430318075000,8.511074951171874,0.0007330739754252136,0.0015777047956362367,-0.00029622134752571583
1783696430328038000,8.521037841796876,-0.0004836482694372535,0.0006422674050554633,0.00033937726402655244
1783696430338001000,8.5310009765625,0.0012775001814588904,-0.0020736241713166237,-0.00091470533516258
1783696430347965000,8.54096484375,0.0002949446497950703,0.0006357659003697336,-0.00021598057355731726
1783696430357928000,8.550927978515626,-0.0002541991416364908,-0.00017223716713488102,0.0007739164866507053
1783696430367891200,8.56089111328125,-0.0010739986319094896,-0.0016712574288249016,-0.0012214636662974954
1783696430377854200,8.570854248046874,0.0007358855800703168,0.0014137483667582273,0.0006382216233760118
1783696430387817200,8.580817138671875,0.0005256757140159607,-0.00023468665312975645,0.0002696834271773696
1783696430397780000,8.590780029296875,0.00025536486646160483,-0.0015654682647436857,0.0006569070974364877
1783696430407743000,8.600742919921874,0.00017379687051288784,0.002364069689065218,0.0008015198400244117
1783696430417706000,8.6107060546875,-0.0005862693069502711,-0.0009542291518300772,-0.0008083611028268933
1783696430427670000,8.620669921875,-0.0004323447647038847,-0.002340237610042095,0.0005571289220824838
1783696430437633000,8.630633056640624,0.0020627707708626986,0.0018324028933420777,0.0005344920209608972
1783696430447596000,8.640595947265625,0.000046827044570818543,-0.0022104689851403236,-0.00008157128468155861
1783696430457559000,8.65055908203125,0.00010861238115467131,-0.0013265659799799323,-0.001291179098188877
1783696430467522000,8.66052197265625,0.0007748747011646628,0.002166958525776863,-0.0005923105636611581
1783696430477485000,8.670485107421875,-0.000015551471733488142,-0.0022472310811281204,-0.001403775648213923
1783696430487448000,8.680447998046875,-0.0009270211448892951,0.0010295168031007051,-0.0019398685544729233
1783696430497411800,8.690411865234376,0.00039417308289557695,0.0020540347322821617,0.0005075765657238662
1783696430507375000,8.700375,0.0002614632830955088,-0.0014854976907372475,-0.0014307050732895732
1783696430517338000,8.710338134765625,-0.0010123266838490963,-0.0004591152537614107,0.0008361776708625257
1783696430527301000,8.720301025390626,0.0005929560866206884,-0.00006136135198175907,0.0007996626663953066
1783696430537264000,8.73026416015625,-0.0014395683538168669,-0.0027397023513913155,0.0019544092938303947
1783696430547227100,8.74022705078125,0.0017619170248508453,-0.0002512343926355243,-0.0007266298634931445
1783696430557190000,8.75018994140625,-0.000048499845433980227,0.0026372300926595926,0.0015445139724761248
1783696430567154000,8.76015380859375,-0.0006643631495535374,-0.0015155898872762918,-0.0004885132657364011
1783696430577117000,8.770116943359374,0.00016441258776467294,0.0009033592650666833,0.0012915435945615172
1783696430587080000,8.780079833984376,-0.0009302461403422058,-0.0008125819731503725,0.0015292838215827942
1783696430597043000,8.79004296875,0.00126180169172585,-0.0003515888238325715,0.0007196827791631222
1783696430607006000,8.800005859375,-0.0005669736419804394,0.0010072033619508147,0.0002252957783639431
1783696430616969200,8.80996923828125,-0.0010466089006513357,0.0008801705553196371,0.0020138747058808804
1783696430626932200,8.81993212890625,-0.001019343500956893,-0.000355309690348804,-0.00010519998613744974
1783696430636895200,8.829895263671874,-0.0007892462890595198,0.002374962903559208,0.00044580805115401745
1783696430646858200,8.839858154296875,0.002385533880442381,-0.001938235480338335,0.0011929426109418273
1783696430656821000,8.849821044921875,0.0005242506740614772,-0.0021060146391391754,-0.00027898652479052544
1783696430666784000,8.859783935546876,-0.0011562495492398739,0.0006932644173502922,-0.0009566006483510137
1783696430676747000,8.8697470703125,-0.00036795390769839287,-0.0005946403834968805,0.0006303770933300257
1783696430686710000,8.8797099609375,-0.0009602918289601803,-0.0006318164523690939,0.0001486188848502934
1783696430696673300,8.88967333984375,0.00044079721556045115,0.001777811674401164,0.0009544914355501533
1783696430706637000,8.899636962890625,0.0006516898283734918,-0.0022309920750558376,0.0014954061480239034
1783696430716600000,8.90960009765625,-0.00021969647787045687,0.0002830319572240114,-0.0002702695783227682
1783696430726563300,8.919563232421876,-0.0009513524128124118,0.003316332120448351,-0.0005740884225815535
1783696430736526000,8.929526123046875,-0.0016669437754899263,-0.0018805606523528695,-0.00037275347858667374
1783696430746489000,8.939489013671874,-0.001280326279811561,-0.001288247061893344,-0.0016886695520952344
1783696430756452000,8.9494521484375,0.0005415421910583973,0.0014271119143813848,-0.0010497771436348557
1783696430766415000,8.9594150390625,0.0007438423344865441,-0.0019072835566475987,0.00029519846430048347
1783696430776379100,8.969379150390624,0.00022931958665139973,-0.0004425450460985303,-0.0005096087697893381
1783696430786342100,8.979342041015625,0.00017707122606225312,0.004007443785667419,-0.0006692511960864067
1783696430796305200,8.98930517578125,-0.0002519640256650746,-0.0009747978765517473,-0.0009640632197260857
1783696430806268200,8.99926806640625,-0.0010653394274413586,0.00018618570175021887,-0.0021277442574501038
1783696430816231000,9.00923095703125,-0.0012648103293031454,0.0012394660152494907,0.0013604640262201428
1783696430826194000,9.01919384765625,-0.00045370456064119935,-0.0005404105177149177,0.0006330274045467377
1783696430836157200,9.0291572265625,0.0010033107828348875,0.0016721435822546482,-0.0008487554732710123
1783696430846121000,9.039120849609375,-0.0000048044603317976,0.0019764495082199574,-0.0003568725660443306
1783696430856084200,9.049084228515625,-0.0002527447650209069,-0.0019248150056228042,-0.0007994900224730372
1783696430866047200,9.059047119140626,-0.00014539108087774366,0.0010245568118989468,0.0005748727126047015
1783696430876010200,9.06901025390625,0.0015246772672981024,0.0003318686503916979,0.0012550440151244402
1783696430885973200,9.07897314453125,-0.0010408225934952497,-0.0020398064516484737,-0.001738131046295166
1783696430895936000,9.08893603515625,-0.0005380178336054087,0.0023096681106835604,-0.0015596994198858738
1783696430905899000,9.09889892578125,-0.0005368622951209545,0.0024226948153227568,-0.0015500428853556514
1783696430915863000,9.108863037109375,-0.0007645625155419111,-0.001527838408946991,0.000611378694884479
1783696430925826000,9.118825927734376,-0.001967895543202758,0.0018778573721647263,-0.0009044351754710078
1783696430935789000,9.1287890625,-0.00015881014405749738,-0.0014119454426690936,0.0009595112060196698
1783696430945752000,9.138751953125,0.0001623521384317428,-0.000789851532317698,-0.0003440933069214225
1783696430955715000,9.148715087890626,-0.0005266076186671853,0.0010418705642223358,0.00005458190571516752
1783696430965678300,9.15867822265625,-0.00019262629211880267,-0.00035118870437145233,-0.0005603774916380644
1783696430975641000,9.16864111328125,0.00019646153668873012,-0.00026410329155623913,-0.0012802298879250884
1783696430985605000,9.178605224609376,0.0002315384626854211,0.002959920559078455,-0.001990577904507518
1783696430995568000,9.188568115234375,-0.0013447866076603532,-0.0007759617874398828,-0.0004906856920570135
1783696431005531100,9.19853125,0.0009194850572384894,-0.00041141477413475513,-0.00046370632480829954
1783696431015494100,9.208494140625,0.0001279935531783849,0.002159867202863097,0.000727791921235621
1783696431025457200,9.21845703125,-0.0007537725614383817,-0.0025315475650131702,0.0016623641131445765
1783696431035420200,9.228420166015624,-0.001376685919240117,-0.0005277851596474648,-0.001921984483487904
1783696431045383200,9.238383056640625,0.00008643884211778641,0.0008999061537906528,-0.000541628454811871
1783696431055347200,9.24834716796875,-0.00039985435432754457,-0.0003981185145676136,-0.00031472707632929087
1783696431065310000,9.25831005859375,0.0008851253660395741,-0.0016794768162071705,-0.0021103094331920147
1783696431075273000,9.26827294921875,0.0007881863275542855,0.0006771543412469327,0.000327281653881073
1783696431085236000,9.278236083984375,0.0003095460997428745,-0.0011338276090100408,0.0008595592807978392
1783696431095199200,9.28819921875,0.001645121374167502,0.0008060189429670572,-0.000765235279686749
1783696431105162200,9.298162353515625,0.0006053302204236388,-0.00023725838400423527,0.00002641312312334776
1783696431115125200,9.308125244140625,0.00046444902545772493,-0.0019230394391342998,-0.0002795840846374631
1783696431125088300,9.318088134765626,0.0005042285192757845,0.0001368009252473712,-0.000010971329174935818
1783696431138166300,9.331166259765626,0.00009942802716977894,0.00013147469144314528,0.001964295282959938
1783696431148129300,9.34112939453125,0.0007232856005430222,-0.0013781877933070064,0.0006960790487937629
1783696431158092000,9.351092041015624,-0.0014360053464770317,0.0014532849891111255,-0.0009119376773014665
1783696431168055000,9.361054931640625,-0.00084040651563555,-0.0011337475152686238,-0.0015047129709273577
1783696431178018000,9.37101806640625,0.0008714734576642513,-0.0020506740547716618,0.0007858718745410442
1783696431187981000,9.38098095703125,-0.0005718463798984885,0.0012481610756367445,-0.0011353291338309646
1783696431197944000,9.390944091796875,-0.0001848890824476257,-0.0021668104454874992,-0.0002626111963763833
1783696431207908000,9.400908203125,0.0002969318884424865,-0.002428892068564892,0.00047214707592502236
1783696431217871000,9.41087109375,-0.0017928506713360548,-0.0000837123952805996,-0.0007385259959846735
1783696431227834000,9.420834228515625,0.0005279736360535026,-0.0009000810096040368,0.0016505869571119547
1783696431237797000,9.430797119140625,-0.0007652573403902352,-0.0008641284657642245,-0.0010597120271995664
1783696431247760100,9.440760009765626,-0.0002851186436600983,0.0015525524504482746,0.0010228848550468683
1783696431257723100,9.45072314453125,0.00026242726016789675,-0.0009169967379420996,-0.00029830937273800373
1783696431267686100,9.46068603515625,-0.0003767315356526524,0.00004512001760303974,-0.0001106219133362174
1783696431277650200,9.470650146484376,-0.001144520821981132,0.0017764410004019737,-0.0010027808602899313
1783696431287613200,9.48061328125,-0.0002357031626161188,-0.00004502083174884319,-0.0009470403892919421
1783696431297576200,9.490576171875,-0.001052760984748602,-0.0005755224265158176,-0.0008445087587460876
1783696431307539200,9.500539306640626,0.0007344544865190983,0.0016368101350963116,0.0005660788156092167
1783696431317502000,9.510501953125,0.0014742807252332568,-0.0012247563572600484,0.001090721576474607
1783696431327465000,9.52046484375,-0.0003577382885850966,0.0011400928488001227,-0.0007795634446665645
1783696431337428000,9.530427978515625,0.0009578632889315486,0.001485771150328219,0.000950425979681313
1783696431347392000,9.54039208984375,-0.00013821772881783545,-0.0004238113760948181,-0.00021347019355744123
1783696431357355000,9.55035498046875,0.00015419736155308783,0.002593017416074872,-0.002161572454497218
1783696431367318300,9.560318359375,0.000994956586509943,-0.000019939616322517395,-0.0007172859041020274
1783696431377281300,9.57028125,0.00050147291040048,-0.0026852311566472054,-0.0007298027630895376
1783696431387244300,9.580244384765624,-0.0010507770348340273,0.0006383716245181859,-0.0010987094137817621
1783696431397207000,9.59020703125,0.0011053180787712336,0.0017278707819059491,0.0002637638826854527
1783696431407170000,9.600170166015625,0.0005673090927302837,-0.0020308662205934525,-0.001098794979043305
1783696431417134000,9.610134033203124,0.001528710126876831,0.0019393741386011243,0.0001201339764520526
1783696431427097000,9.62009716796875,-0.0001391329860780388,0.0005028661107644439,-0.000021849526092410088
1783696431437060000,9.63006005859375,0.00021719795768149197,-0.0021563000045716763,-0.0008988284971565008
1783696431447023000,9.640023193359376,-0.0004944984684698284,0.0021625873632729053,-0.0002771733561530709
1783696431457609200,9.650609130859374,-0.0008380462531931698,-0.002050799783319235,0.0010184545535594225
1783696431467572200,9.660572265625,0.0005051764892414212,0.000024758046492934227,-0.00045314535964280367
1783696431477535000,9.670534912109375,0.0005951913772150874,0.0028200119268149137,0.0006850897334516048
1783696431487498000,9.680498046875,0.0006497933063656092,-0.002065812237560749,0.0008369553834199905
1783696431497461000,9.6904609375,0.0003033160755876452,-0.0002460743999108672,-0.0006205927347764373
1783696431507424000,9.700424072265625,-0.0012719020014628768,0.0021008900366723537,-0.00011616596020758152
1783696431517387300,9.71038720703125,-0.000007433118298649788,-0.0025841426104307175,-0.0003603778313845396
1783696431527350300,9.720350341796875,0.0005880753160454333,0.00005415547639131546,-0.0005840602098032832
1783696431537314300,9.730314208984375,-0.0002116719406330958,0.0015356719959527254,0.0008553783409297466
1783696431547277300,9.74027734375,0.000270197750069201,-0.0005889321910217404,-0.00022926635574549437
1783696431557240000,9.750239990234375,0.0012300009839236736,-0.00032394775189459324,0.0010336046107113361
1783696431567203000,9.760203125,0.002298143692314625,0.002564495662227273,-0.00041513238102197647
1783696431577166000,9.770166015625,-0.0010859350441023707,-0.0014475565403699875,0.0012863611336797476
1783696431587129000,9.780129150390625,-0.0006737809162586927,-0.00018262933008372784,0.000026186928153038025
1783696431597092000,9.790092041015624,-0.0009829739574342966,0.0016000906471163034,0.0000426985789090395
1783696431607056100,9.80005615234375,0.00024954983382485807,-0.0005804505199193954,-0.001490690978243947
1783696431617019100,9.81001904296875,0.00007031907443888485,0.0005527245812118053,-0.0015460846479982138
1783696431626982100,9.819982177734374,0.0014916915679350495,0.001939769135788083,0.0002609178773127496
1783696431636945200,9.829945068359375,0.00046051552635617554,-0.0034981395583599806,0.0014303119387477636
1783696431646908200,9.839908203125,0.00037026149220764637,0.00018464657478034496,-0.001199408550746739
1783696431656871400,9.849871337890624,-0.0013642553240060806,0.00037452997639775276,0.002692268695682287
1783696431666835200,9.859835205078125,0.0008403586689382792,-0.0015528396470472217,0.00019151216838508844
1783696431676798500,9.869798583984375,-0.0018680761568248272,0.0016613294137641788,-0.0005222150357440114
1783696431686761500,9.879761474609374,0.0008259619353339076,0.00014512555208057165,0.00019203271949663758
1783696431696724500,9.889724365234375,-0.0008214695262722671,-0.0015736784553155303,0.000022389343939721584
1783696431706687500,9.8996875,0.00010663930152077228,0.00162694847676903,-0.0006957544246688485
1783696431716650200,9.909650146484376,0.0009370128973387182,-0.00040238024666905403,0.00040333211654797196
1783696431726613200,9.91961328125,0.00004538201028481126,-0.0023823953233659267,0.001136121223680675
1783696431736577300,9.929577392578125,-0.0005604871548712254,0.00008848565630614758,-0.001604271586984396
1783696431746540300,9.939540283203126,-0.000345453096088022,-0.00031515955924987793,-0.0003233053721487522
1783696431756503300,9.94950341796875,-0.0013651774497702718,-0.0015679106581956148,-0.0014458278892561793
1783696431766466300,9.95946630859375,-0.0002532024809625,0.0015682731755077839,-0.00006766815204173326
1783696431776429300,9.96942919921875,0.0005473437486216426,-0.0010711858049035072,-0.0008905848953872919
1783696431786392600,9.979392578125,-0.0002778435591608286,-0.0007547368295490742,-0.0014628340722993016
1783696431796355300,9.989355224609374,0.00009286846034228802,0.0019819275476038456,0.000654645380564034
1783696431806319400,9.9993193359375,-0.00035655597457662225,-0.00012190849520266056,0.0003626766847446561
1783696431816282400,10.009282470703125,0.001107916352339089,-0.0014598807319998741,-0.0013081906363368034
1783696431826245400,10.019245361328124,-0.00009335100912721828,-0.0005964324809610844,-0.0005713967839255929
1783696431836208400,10.02920849609375,0.0001418061146978289,-0.00217222492210567,0.000487209705170244
1783696431846171400,10.03917138671875,0.002017041202634573,0.00004933064337819815,-0.0012373283971101046
1783696431856134400,10.049134521484374,-0.0005449196323752403,0.0020762626081705093,0.0001989144366234541
1783696431866097400,10.059097412109375,-0.00526084890589118,0.08060548454523087,0.07447732985019684
1783696431876061400,10.0690615234375,-0.007240909151732922,0.11978564411401749,0.1484737992286682
1783696431886024400,10.0790244140625,-0.002518767723813653,0.05542802810668945,0.09291011840105057
1783696431895987200,10.0889873046875,0.0018450880888849497,-0.019296810030937195,0.00743436673656106
1783696431905950200,10.0989501953125,0.0015249988064169884,-0.02005268819630146,-0.04859872907400131
1783696431915913200,10.108913330078124,0.005624669138342142,-0.014320500195026398,-0.05666384473443031
1783696431925876500,10.11887646484375,0.004031520336866379,-0.026956789195537567,-0.06834515929222107
1783696431935840300,10.12884033203125,0.0014154971577227116,-0.05661774426698685,-0.05794418603181839
1783696431945803500,10.138803466796874,-0.0007590862223878503,-0.06997362524271011,-0.03740086406469345
1783696431955766500,10.1487666015625,0.0001799443707568571,-0.04878312349319458,-0.025734882801771164
1783696431965729500,10.1587294921875,-0.0005353715969249606,0.01256653480231762,-0.009049900807440281
