time,seconds_elapsed,z,y,x
1783696347764266000,0.060265869140625,0.00092101632617414,-0.00014108908362686634,-0.017629684880375862
1783696347774230000,0.07022998046875,-0.0008547795005142689,0.018884800374507904,-0.0023663088213652372
1783696347784193000,0.080193115234375,-0.0018960018642246723,-0.0023399614728987217,0.011623233556747437
1783696347794156000,0.090156005859375,0.0008126992033794522,-0.012800591066479683,0.0035820850171148777
1783696347804120000,0.1001201171875,0.0011350495042279363,-0.0015942009631544352,-0.0030416757799685
1783696347814083000,0.1100830078125,-0.00007908564293757081,0.008214487694203854,-0.0040102675557136536
1783696347824046000,0.120046142578125,0.000021965272026136518,0.0037302873097360134,0.0027896668761968613
1783696347834009000,0.130009033203125,-0.00028855929849669337,-0.0051239244639873505,0.0009246551780961454
1783696347843973000,0.13997314453125,-0.0006959058810025454,-0.0058059291914105415,-0.0008366742404177785
1783696347853935900,0.149935791015625,-0.00023118426906876266,0.0043124849908053875,0.002667513210326433
1783696347863899000,0.15989892578125,0.0006646823603659868,0.0033311631996184587,-0.00087109359446913
1783696347873862100,0.169862060546875,-0.00007248058682307601,-0.0017791766440495849,-0.006064523942768574
1783696347883826000,0.179825927734375,0.0016754898242652416,-0.0018500394653528929,-0.0015290109440684319
1783696347893789000,0.189788818359375,0.0011990503408014774,0.0007550646550953388,0.005498271901160479
1783696347903752200,0.199752197265625,0.0005044771824032068,0.000435272348113358,0.001452333526685834
1783696347913715200,0.209715087890625,0.001385184470564127,-0.0005469013703987002,-0.0036657294258475304
1783696347923679200,0.21967919921875,-0.0008066290756687522,-0.0010802717879414558,-0.0017235816922038794
1783696347933642200,0.229642333984375,0.0002711521810851991,-0.0004421782214194536,0.0030392154585570097
1783696347943605000,0.23960498046875,-0.00007808461668901145,0.0002648072550073266,0.0015395685331895947
1783696347953569300,0.2495693359375,-0.0006264294497668743,-0.0030569531954824924,-0.002740930300205946
1783696347963532000,0.259531982421875,-0.00021880524582229555,0.0006826192839071155,-0.0031151582952588797
1783696347973495000,0.2694951171875,0.0005761482752859592,0.002558549866080284,0.0004098015488125384
1783696347983458000,0.2794580078125,0.00025029454263858497,-0.000933889183215797,0.0009619601769372821
1783696347993422000,0.289422119140625,0.00046627692063339055,0.0005553504452109337,0.00003890856169164181
1783696348003385000,0.299385009765625,-0.0002540024579502642,0.0019189270678907633,0.0005311147542670369
1783696348013348000,0.30934814453125,-0.00018049919162876904,-0.00017271970864385366,0.0012704082764685154
1783696348023311000,0.31931103515625,0.000881121726706624,0.002209302969276905,0.0006109988898970187
1783696348033275100,0.329275146484375,-0.0010179784148931503,-0.0003739631501957774,0.0012166016967967153
1783696348043238100,0.339238037109375,0.0005251421243883669,-0.001913711428642273,0.0007191125769168139
1783696348053201000,0.349200927734375,0.0003472429234534502,0.00327252852730453,-0.000607408001087606
1783696348063165000,0.3591650390625,0.000004707573680207133,0.001035320688970387,0.00020150060299783945
1783696348073128000,0.3691279296875,-0.00038677710108458996,-0.004028679803013802,-0.000010487041436135769
1783696348083091000,0.379091064453125,0.0002583047316875309,0.0003283958649262786,-0.0013432075502350926
1783696348093054000,0.389053955078125,0.00005404028343036771,0.0011095009976997972,0.0004136798670515418
1783696348103018000,0.39901806640625,-0.00015434566012118012,-0.0016665620496496558,0.0006809418555349112
1783696348112981000,0.40898095703125,0.0015892258379608393,0.0012855519307777286,-0.000944119063206017
1783696348122944000,0.418944091796875,0.000999910058453679,0.0011397696798667312,-0.0009461198933422565
1783696348132907300,0.4289072265625,-0.0017053289338946342,0.00039541616570204496,0.0011444615665823221
1783696348142871000,0.43887109375,-0.0020171322394162416,0.0031125254463404417,-0.0003555369330570102
1783696348152834300,0.448834228515625,-0.00019553001038730145,-0.001530429464764893,-0.0009909671498462558
1783696348162797000,0.458797119140625,-0.0006915805861353874,-0.0007095597684383392,0.00014089734759181738
1783696348172761000,0.468760986328125,0.00027061952278018,0.002432970330119133,0.0012471744557842612
1783696348182724000,0.47872412109375,0.00020910054445266724,-0.0014211563393473625,0.0015784716233611107
1783696348192687000,0.48868701171875,-0.0009499071747995913,-0.0005993046797811985,-0.0009893481619656086
1783696348202650000,0.498650146484375,0.0009721393580548465,0.002477110829204321,-0.0018355745123699307
1783696348212614100,0.5086142578125,-0.0010571894235908985,-0.0004102883394807577,-0.0008483406854793429
1783696348222577200,0.5185771484375,0.00023840638459660113,-0.001318898401223123,-0.0013317998964339495
1783696348232540200,0.5285400390625,0.0008147144690155983,0.0016183020779863,0.001251998939551413
1783696348242503200,0.538503173828125,0.00036509751225821674,-0.0021336963400244713,0.002539148787036538
1783696348252467200,0.54846728515625,-0.001119881053455174,-0.0003970492398366332,0.0002972997026517987
1783696348262430000,0.558429931640625,0.0013044151710346341,0.002876987913623452,-0.0009428702760487795
1783696348272393000,0.56839306640625,0.0003366224409546703,-0.0014269467210397124,0.0011434500338509679
1783696348282357000,0.57835693359375,0.0012067848583683372,0.0022616074420511723,-0.00009326962754130363
1783696348292320000,0.588320068359375,0.0003644270182121545,0.00004878698382526636,0.0016007672529667616
1783696348302283000,0.598282958984375,-0.0003253848117310554,-0.0011231560492888093,0.0006455971742980182
1783696348312246000,0.60824609375,0.00029007173725403845,0.001252650050446391,-0.00020208698697388172
1783696348322210000,0.6182099609375,-0.0013437776360660791,0.0011980552226305008,0.00028527143876999617
1783696348332173000,0.628173095703125,-0.0010809235973283648,-0.0018464705208316445,-0.0010111553128808737
1783696348342136000,0.638135986328125,-0.0008807613630779088,0.0010294008534401655,0.000394675531424582
1783696348352099000,0.64809912109375,-0.0015678568743169308,0.00009143550414592028,-0.00003595754969865084
1783696348362063000,0.65806298828125,0.000029773422284051776,-0.002945633139461279,-0.00016831664834171534
1783696348372025900,0.66802587890625,0.0007184668793343008,0.001965502044185996,-0.00013955449685454369
1783696348381989000,0.677989013671875,0.0007592887850478292,0.0008577641565352678,0.00005800824146717787
1783696348391952100,0.6879521484375,-0.0008793541928753257,-0.0012666394468396902,0.0008833219180814922
1783696348401916000,0.697916015625,-0.0014076082734391093,0.0019638051744550467,-0.0005504386499524117
1783696348411879200,0.707879150390625,-0.0003388816840015352,-0.0001968173310160637,0.0017414777539670467
1783696348421842200,0.71784228515625,-0.00040376672404818237,0.00039102649316191673,-0.00003642833326011896
1783696348431805200,0.72780517578125,0.00040716578951105475,0.00010207353625446558,-0.0010697346879169345
1783696348441769200,0.737769287109375,-0.0007342536700889468,0.0007364318007603288,0.0024251616559922695
1783696348451732200,0.747732177734375,0.0018868295010179281,-0.00078316789586097,-0.0004079092759639025
1783696348461695000,0.757695068359375,0.00044169899774715304,0.0015682021621614695,0.0007665334269404411
1783696348471659000,0.767658935546875,-0.000602792832069099,-0.0009165270021185279,0.00045574252726510167
1783696348481622000,0.7776220703125,-0.0013077666517347097,-0.0004714581882581115,-0.0009752443293109536
1783696348491585000,0.7875849609375,0.00018600048497319221,-0.0003702581161633134,0.0021449150517582893
1783696348501548000,0.797548095703125,0.0002031846670433879,-0.001146271824836731,-0.0005306476959958673
1783696348511512000,0.807511962890625,-0.0004820466856472194,-0.0011673106346279383,-0.0009751291945576668
1783696348521475000,0.81747509765625,0.0010297514963895082,0.002115650335326791,-0.00016740860883146524
1783696348531438000,0.82743798828125,-0.0010845320066437125,-0.0014604423195123672,-0.00042520253919065
1783696348541401000,0.837401123046875,0.0005867179716005921,0.0006367655005306005,-0.000725177233107388
1783696348551365400,0.847365478515625,0.00017685751663520932,0.0007297097472473979,-0.0013443621573969722
1783696348561328400,0.857328369140625,0.00016709731426090002,-0.0016564344987273216,-0.00018921028822660446
1783696348571291100,0.867291015625,0.0004797524306923151,0.0009518653969280422,-0.0018259889911860228
1783696348581254100,0.877254150390625,-0.0017784959636628628,0.0020828614942729473,0.00042839132947847247
1783696348591218200,0.88721826171875,0.000018871418433263898,-0.0022269319742918015,-0.0007276867982000113
1783696348601181200,0.89718115234375,0.0010417603189125657,0.001386001124046743,-0.00016180367674678564
1783696348611144200,0.907144287109375,-0.0010552126914262772,0.001332737971097231,-0.0010097541380673647
1783696348621107500,0.917107421875,0.00030759983928874135,-0.00215075071901083,0.0009594803559593856
1783696348631071200,0.9270712890625,-0.0018077489221468568,0.0019901986233890057,-0.000642677303403616
1783696348641034200,0.9370341796875,0.0006796995876356959,0.0002060027327388525,-0.00004385341890156269
1783696348650997500,0.94699755859375,-0.0014297902816906571,-0.0011407578131183982,-0.0006936646532267332
1783696348660961300,0.956961181640625,-0.0005426617572084069,0.0024626811500638723,0.0008941524429246783
1783696348670924500,0.966924560546875,0.00006160949124023318,0.00039819872472435236,0.0006318310624919832
1783696348680887300,0.97688720703125,-0.0013497262261807919,-0.001052592066116631,-0.00025444768834859133
1783696348690850300,0.986850341796875,-0.0004341315070632845,0.001702448003925383,0.0003333119093440473
1783696348700814300,0.996814453125,-0.0012302364921197295,0.00006899202708154917,0.0018735721241682768
1783696348710777300,1.00677734375,0.0005154655082151294,-0.00019039981998503208,-0.0009741459507495165
1783696348720740400,1.016740234375,0.001048373756930232,0.0028704656288027763,0.0008665602654218674
1783696348730703400,1.026703369140625,0.0006323879351839423,-0.0012760760728269815,0.0001368541270494461
1783696348740667400,1.03666748046875,0.0001722891756799072,-0.0011448559816926718,-0.0010841645998880267
1783696348750630400,1.04663037109375,-0.00003703529364429414,0.0015012607909739017,0.0002380948280915618
1783696348760593400,1.056593505859375,-0.0008254444692283869,-0.0014017007779330015,-0.0004728760104626417
1783696348770556200,1.06655615234375,-0.0013887030072510242,-0.001433392520993948,0.0005449841264635324
1783696348780520200,1.076520263671875,0.0002818457141984254,0.0005067476304247975,0.0011277066078037024
1783696348790483200,1.086483154296875,0.00021659830235876143,-0.00048314931336790323,0.0006608545081689954
1783696348800446200,1.0964462890625,-0.0005106598255224526,-0.00042157922871410847,-0.0009020783472806215
1783696348810409200,1.1064091796875,0.0003697812499012798,0.0005038693780079484,-0.00041312200482934713
1783696348820373200,1.116373291015625,-0.0012651648139581084,-0.0019466880476102233,0.0006882474408484995
1783696348830336300,1.126336181640625,0.0002059653343167156,0.0014869255246594548,-0.0004933971213176847
1783696348840299300,1.13629931640625,0.0006568358512595296,0.0014036218635737896,0.0010423794155940413
1783696348850262500,1.146262451171875,-0.00005156497354619205,-0.0018435704987496138,0.0002519532572478056
1783696348860226300,1.156226318359375,0.00009854542440734804,0.00041525415144860744,0.00019980431534349918
1783696348870189300,1.166189208984375,-0.0003563224745448679,0.0006690534064546227,-0.0005839640507474542
1783696348880152300,1.17615234375,-0.0009211288415826857,-0.003183735301718116,0.0014106925809755921
1783696348890115300,1.186115234375,0.00011963449651375413,0.001805430743843317,-0.0008159762946888804
1783696348900079400,1.196079345703125,-0.0019979842472821474,0.0019234918290749192,0.0013600409729406238
1783696348910042400,1.20604248046875,-0.0009369809413328767,-0.0011340834898874164,-0.0018812923226505518
1783696348920005400,1.21600537109375,0.0006838770932517946,0.00027238577604293823,-0.0011072901543229818
1783696348929968400,1.225968505859375,-0.0015244160313159227,-0.0004269604105502367,-0.00046120735350996256
1783696348939932400,1.235932373046875,-0.001085525145754218,-0.0017148192273452878,-0.0007303589954972267
1783696348949895400,1.2458955078125,0.0007840138860046864,0.002045031636953354,0.0011474359780550003
1783696348959858400,1.2558583984375,0.0008275837171822786,-0.0003920644521713257,0.0011865295236930251
1783696348969821200,1.2658212890625,0.0003799062978941947,-0.0018203177023679018,0.0007119541987776756
1783696348979785200,1.27578515625,0.0007877423777244985,0.0008492253837175667,-0.0006951430113986135
1783696348989748200,1.285748291015625,0.0006005221512168646,-0.0003409412456676364,-0.000663451268337667
1783696348999711200,1.295711181640625,-0.00025032207486219704,-0.00011609576176851988,-0.0009463783353567123
1783696349009675300,1.30567529296875,0.0010620836401358247,0.002911918330937624,-0.00020735105499625206
1783696349019638300,1.31563818359375,0.0001980321540031582,-0.0009569413959980011,0.0007035916787572205
1783696349029601300,1.325601318359375,0.0005101546412333846,-0.0015380431432276964,-0.0002290473785251379
1783696349039564300,1.335564208984375,-0.00011204332986380905,0.0018446939066052437,-0.001622338080778718
1783696349049528300,1.3455283203125,0.0008099430706351995,-0.0015170143451541662,0.0015058108838275075
1783696349059491300,1.3554912109375,0.000616548815742135,-0.0006758146919310093,-0.0015470562502741814
1783696349069454300,1.365454345703125,-0.001236744923517108,0.00016707577742636204,0.000027404516004025936
1783696349079417300,1.375417236328125,0.0010826886864379048,-0.0021868282929062843,0.001111147808842361
1783696349089381000,1.385381103515625,-0.0014640921726822853,0.000009214389137923717,-0.00023800961207598448
1783696349099344100,1.39534423828125,-0.001905368291772902,0.0017700494499877095,0.0006621737265959382
1783696349109307400,1.405307373046875,0.00008933935896493495,-0.002175956266000867,0.0002320732455700636
1783696349119270400,1.4152705078125,0.00009469781070947647,0.0002610414521768689,-0.0015553449047729373
1783696349129234400,1.425234375,-0.0018845635931938887,0.001213387819007039,0.00018769409507513046
1783696349139197400,1.435197509765625,0.0013817601138725877,-0.0004970921436324716,-0.0007059233030304313
1783696349149160400,1.445160400390625,-0.0010297322878614068,0.000905594730284065,-0.0002728934632614255
1783696349159123500,1.45512353515625,-0.0007725238101556897,0.001209043082781136,0.00028993887826800346
1783696349169087500,1.46508740234375,-0.0005437582731246948,-0.0020027291029691696,0.0003466641646809876
1783696349179050200,1.47505029296875,0.0004568137810565531,0.0026420759968459606,-0.0007313222158700228
1783696349189013200,1.48501318359375,0.00021073769312351942,0.0007227357709780335,0.0017233132384717464
1783696349198976300,1.494976318359375,-0.00006895842670928687,-0.000746941426768899,0.0011420206865295768
1783696349208940300,1.504940185546875,0.001490056049078703,0.0010331154335290194,0.00011537200771272182
1783696349218903300,1.5149033203125,-0.00009781689732335508,-0.0006080087041482329,0.0007561082020401955
1783696349228866300,1.5248662109375,-0.00036573089892044663,-0.0011041556717827916,-0.0016535199247300625
1783696349238829300,1.534829345703125,-0.00034578904160298407,0.0013734438689425588,-0.0007164491107687354
1783696349248793300,1.54479345703125,0.00042093501542694867,-0.002366965636610985,0.0011224636109545827
1783696349258756400,1.55475634765625,0.0005285267252475023,-0.0023935972712934017,0.00029342155903577805
1783696349268719000,1.564718994140625,-0.00014099196414463222,0.002480786293745041,-0.0006125858053565025
1783696349278683400,1.574683349609375,-0.001636970671825111,0.0002677587326616049,-0.00023650273215025663
1783696349288646100,1.584646240234375,0.0005380329675972462,-0.0007634172216057777,-0.0011198732536286116
1783696349298609200,1.594609130859375,0.00022584825637750328,0.002247760072350502,0.0002676006406545639
1783696349308572400,1.604572509765625,-0.000698801246471703,-0.00038024713285267353,0.0014883936382830143
1783696349318536200,1.6145361328125,-0.0011417361674830317,-0.0015744917327538133,-0.0009034447139129043
1783696349328499200,1.624499267578125,-0.000758773647248745,0.001514508738182485,0.0005881916731595993
1783696349338462500,1.63446240234375,0.0007468425901606679,-0.00037227163556963205,0.000983810517936945
1783696349348425500,1.644425537109375,0.0003279272932559252,-0.0003008990315720439,-0.0010164898121729493
1783696349358389500,1.654389404296875,0.00013003547792322934,0.0008140988065861166,0.0005954810767434537
1783696349368352500,1.6643525390625,-0.001127775525674224,-0.003465068293735385,0.0001259658019989729
1783696349378315300,1.674315185546875,0.00024683072115294635,-0.0008423504186794162,-0.0012191253481432796
1783696349388278300,1.6842783203125,-0.000945732812397182,0.0015038945712149143,0.0012754576746374369
1783696349398242300,1.6942421875,-0.0015545666683465242,-0.0020334424916654825,0.0016217962838709354
1783696349408205300,1.704205322265625,0.0006161759374663234,0.0007844481733627617,-0.0021977091673761606
1783696349418168300,1.714168212890625,0.0008081549894995987,0.0008756914758123457,0.0006102068000473082
1783696349428132400,1.72413232421875,-0.0013524675741791725,-0.0014790756395086646,-0.000005782349035143852
1783696349438095400,1.734095458984375,0.00038458951166830957,0.00006807583849877119,-0.0000286162830889225
1783696349448058400,1.744058349609375,0.00037926321965642273,0.0015152376145124435,0.001076595624908805
1783696349458021400,1.754021484375,-0.0005726621020585299,-0.002715758979320526,0.0012364648282527924
1783696349467985400,1.7639853515625,-0.0014080957043915987,0.0004470112035050988,-0.0006724890554323792
1783696349477948400,1.773948486328125,0.0007657073438167572,-0.000021594343706965446,0.0015080042649060488
1783696349487911200,1.7839111328125,-0.001126468530856073,-0.0013100317446514964,-0.0003117336891591549
1783696349497874200,1.793874267578125,-0.0010220455005764961,0.001796102267690003,0.00017679703887552023
1783696349507838200,1.803838134765625,-0.0003892784588970244,-0.0011397665366530418,0.0018159726168960333
1783696349517801200,1.81380126953125,-0.0018146238289773464,-0.0020010359585285187,-0.0005465463036671281
1783696349527764200,1.82376416015625,-0.0007160699460655451,0.0028400581795722246,0.0002460103714838624
1783696349537727200,1.833727294921875,-0.0013648796593770385,-0.0013138422509655356,0.0005900864489376545
1783696349547691500,1.84369140625,-0.0008466285071335733,-0.002451810985803604,-0.0004967496497556567
1783696349557654500,1.853654541015625,0.0010940720094367862,0.0018345627468079329,-0.001303389435634017
1783696349567617500,1.863617431640625,-0.0016439238097518682,0.00033174094278365374,0.00043885066406801343
1783696349577580800,1.873580810546875,0.0005195070989429951,-0.0014792145229876041,0.0002640699967741966
1783696349587544600,1.883544677734375,0.001242555328644812,0.001371166785247624,-0.0007330175722017884
1783696349597507800,1.8935078125,0.0011380616342648864,0.0008179316646419466,0.0017946446314454079
1783696349607470600,1.903470703125,-0.0015666447579860687,-0.0009533367119729519,-0.001997963059693575
1783696349617433600,1.91343359375,-0.00018234463641420007,0.00246771820820868,0.0016497420147061348
1783696349627397600,1.923397705078125,-0.00035385219962336123,-0.0015624433290213346,0.0011168435448780656
1783696349637360600,1.933360595703125,-0.0021924804896116257,-0.0006589028052985668,-0.0003572179703041911
1783696349647323600,1.94332373046875,0.0004416521987877786,0.0010236825328320265,0.00042841461254283786
1783696349657286700,1.95328662109375,-0.0007300335564650595,-0.0008944487199187279,0.0011629931395873427
1783696349667250700,1.963250732421875,-0.0002860845997929573,-0.000032916199415922165,-0.0012655433965846896
1783696349677213700,1.973213623046875,0.0003653459425549954,0.0010499053169041872,0.00008497072849422693
1783696349687176700,1.9831767578125,-0.001089006313122809,-0.0026415023021399975,-0.0001384684583172202
1783696349697140700,1.993140625,0.0002318809856660664,0.0006042784079909325,0.0010858392342925072
1783696349707103500,2.003103515625,-0.0014091588091105223,0.002595790196210146,0.0005614628316834569
1783696349717066500,2.01306640625,-0.00005208184302318841,-0.0031853956170380116,-0.00034941197372972965
1783696349727029500,2.023029541015625,0.0007692370563745499,0.000704417354427278,-0.0020003055687993765
1783696349736993500,2.03299365234375,0.0005476238438859582,0.0017534618964418769,-0.0010211133630946279
1783696349746956500,2.04295654296875,-0.00020258862059563398,-0.0005166167393326759,0.00002098164986819029
1783696349756919600,2.05291943359375,-0.00013118426431901753,0.0009338442469015718,0.00014563975855708122
1783696349766882600,2.062882568359375,0.00004857909516431391,-0.0001492633018642664,-0.0006663580425083637
1783696349776846600,2.0728466796875,-0.0011294656433165073,-0.0028121010400354862,-0.00004476052708923817
1783696349786809600,2.0828095703125,-0.001848252722993493,0.00014747015666216612,-0.0004729968495666981
1783696349796772600,2.092772705078125,0.00039064695010893047,-0.00039462046697735786,0.00030530791264027357
1783696349806735600,2.102735595703125,0.0013283459702506661,-0.0013704027514904737,0.0014880177332088351
1783696349816699400,2.112699462890625,0.00042355593177489936,0.00310699176043272,0.0009489702060818672
1783696349826662700,2.12266259765625,-0.0008648814400658011,-0.001147940754890442,0.0008461722172796726
1783696349836625700,2.132625732421875,-0.0017431597225368023,-0.0009439747082069516,0.0017715429421514273
1783696349846588700,2.142588623046875,0.0012560923350974917,0.0025101450737565756,0.00020986527670174837
1783696349856552700,2.152552734375,0.00048377859639003873,0.00025178189389407635,0.000520288769621402
1783696349866515700,2.162515625,0.001130394171923399,-0.0020268186926841736,-0.0015399326803162694
1783696349876478700,2.172478759765625,0.0005554843228310347,0.0021553109399974346,0.0013439045287668705
1783696349886441700,2.182441650390625,-0.0008996669203042984,-0.0012767048319801688,0.000524183502420783
1783696349896405800,2.19240576171875,-0.00014689360978081822,0.00004538660869002342,0.00027583225164562464
1783696349906368500,2.202368408203125,-0.0001247893669642508,0.002257674466818571,-0.0005023434059694409
1783696349916331500,2.21233154296875,0.0014042737893760204,-0.00025867042131721973,-0.0012910416116937995
1783696349926295600,2.222295654296875,0.0014868318103253841,-0.00003256811760365963,-0.0013006291119381785
1783696349936258600,2.232258544921875,0.0000905050546862185,0.0022041168995201588,0.00011336652096360922
1783696349946221600,2.2422216796875,0.0009323302656412125,0.00005840812809765339,-0.00021313701290637255
1783696349956184600,2.2521845703125,0.00007879834447521716,0.0011075639631599188,-0.0008124096784740686
1783696349966148600,2.262148681640625,-0.00038432536530308425,0.001016217633150518,-0.0002808426506817341
1783696349976111600,2.272111572265625,0.00021062686573714018,-0.0007744774920865893,-0.0007991658058017492
1783696349986074600,2.28207470703125,-0.000697244715411216,0.0009049118380062282,-0.00021540094166994095
1783696349996037600,2.29203759765625,-0.0006810961058363318,0.0023214404936879873,0.0007538528880104423
1783696350006001700,2.302001708984375,-0.00022942395298741758,-0.0007124325493350625,0.001467580092139542
1783696350015964400,2.31196435546875,0.00029318389715626836,0.00008507003076374531,0.00045481283450499177
1783696350025927400,2.321927490234375,-0.00031614734325557947,-0.00008350808639079332,-0.0013944862876087427
1783696350035890700,2.331890625,-0.00031828758073970675,-0.0032173877116292715,-0.0005314304726198316
1783696350045854500,2.3418544921875,-0.00017048213339876384,0.0016479414189234376,-0.0007748432690277696
1783696350055817700,2.351817626953125,-0.00012040637375321239,0.0009341996046714485,0.0005670567043125629
1783696350065780700,2.36178076171875,-0.0009710200247354805,-0.00300434953533113,-0.00014427362475544214
1783696350075743700,2.37174365234375,-0.000556242885068059,0.0018489044159650803,0.0006885418551973999
1783696350085707800,2.381707763671875,0.0008634882979094982,0.0009040149161592126,-0.0003429003991186619
1783696350095670800,2.3916708984375,-0.000894980039447546,-0.0021545516792684793,0.000311186071485281
1783696350105633500,2.401633544921875,-0.0013756805565208197,0.0008894414640963078,0.0009103972697630525
1783696350115596500,2.411596435546875,0.001338816829957068,0.00030693935696035624,0.00021369464229792356
1783696350125560600,2.421560546875,0.00019498911569826305,-0.0017295799916610122,0.0013255643425509334
1783696350135523600,2.431523681640625,0.0010751117952167988,0.0014667450450360775,-0.0005840968806296587
1783696350145486600,2.441486572265625,0.0010514096356928349,-0.0003987993113696575,0.0006303045665845275
1783696350155450600,2.45145068359375,-0.0006365559529513121,-0.0010641185799613595,-0.00018746720161288977
1783696350165413600,2.46141357421875,0.0005514801596291363,0.002433943562209606,0.0003526218351908028
1783696350175376600,2.471376708984375,0.0014726733788847923,-0.00020378234330564737,-0.0005153060192242265
1783696350185339600,2.481339599609375,0.0002252486883662641,-0.001725512556731701,-0.00020850985310971737
1783696350195303700,2.4913037109375,-0.0015564286150038242,0.0013127474812790751,0.0015586473746225238
1783696350205266700,2.5012666015625,-0.0000011425581760704517,-0.00045292836148291826,0.0006494441768154502
1783696350215229400,2.5112294921875,-0.001094070146791637,-0.0007547276327386498,-0.00010265316814184189
1783696350225192400,2.5211923828125,0.0005879824166186154,0.002538271015509963,0.0011423745891079307
1783696350235156500,2.531156494140625,0.00015867812908254564,-0.0017697486327961087,0.00014581787399947643
1783696350245119500,2.541119384765625,0.00035841521457768977,0.0006497333524748683,-0.00042995752301067114
1783696350255082500,2.55108251953125,0.001382348476909101,0.0016117302002385259,0.0016089449636638165
1783696350265045800,2.561045654296875,0.001584482379257679,-0.0014285343931987882,0.0005170488730072975
1783696350275009500,2.571009521484375,-0.001587837003171444,0.0025048181414604187,-0.0007496033795177937
1783696350284972500,2.58097265625,0.0006641319487243891,0.000696531729772687,-0.0003048555226996541
1783696350294935800,2.590935791015625,-0.0013747591292485595,-0.0007346265483647585,-0.0007104339310899377
1783696350304898600,2.600898681640625,0.0007080991053953767,0.001542642479762435,-0.0014430696610361338
1783696350314862600,2.610862548828125,0.0008133974624797702,0.0008731625275686383,0.0006723584374412894
1783696350324825600,2.62082568359375,0.001428853953257203,-0.0009745386196300387,-0.0007039632182568312
1783696350334788600,2.63078857421875,0.0012219037162140012,0.0024462039582431316,-0.0010561082744970918
1783696350344751600,2.640751708984375,-0.0002686674415599555,0.0016280808486044407,-0.00015702506061643362
1783696350354715600,2.650715576171875,0.00034632126335054636,-0.002128265332430601,0.0008132976363413036
1783696350364678700,2.6606787109375,-0.0004297238774597645,0.0018941732123494148,0.00014511053450405598
1783696350374641700,2.6706416015625,-0.0006677907076664269,0.0003708351869136095,0.0004104689578525722
1783696350384604700,2.680604736328125,-0.00044515045010484755,-0.0019221464172005653,-0.0008041987894102931
1783696350394568700,2.690568603515625,-0.0002391761663602665,0.001886267913505435,-0.0004299642750993371
1783696350404531700,2.70053173828125,0.00034059397876262665,-0.001582765718922019,0.001117598614655435
1783696350414494500,2.710494384765625,-0.0015501263551414013,-0.001918272697366774,-0.0005828903522342443
1783696350424457500,2.72045751953125,-0.00008139303827192634,0.0018857866525650024,-0.0010683845030143857
1783696350434421500,2.73042138671875,-0.0005593058303929865,-0.00020233145914971828,-0.00048544874880462885
1783696350444384500,2.740384521484375,0.00006467281491495669,-0.0022827929351478815,-0.00098958529997617
1783696350454347500,2.750347412109375,-0.0013042364735156298,0.0018439746927469969,-0.0005048032617196441
1783696350464310500,2.760310546875,-0.0002509562764316797,0.00010732735972851515,0.0006243770476430655
1783696350474274600,2.770274658203125,-0.0006927296635694802,-0.0000694377813488245,0.00041713647078722715
1783696350484237600,2.780237548828125,0.00011873550829477608,0.0008264495991170406,-0.00033627182710915804
1783696350494200800,2.790200927734375,-0.0009821929270401597,-0.0031110811978578568,0.0003197811311110854
1783696350504164600,2.80016455078125,-0.0006719346856698394,0.0004154769703745842,-0.0004061965737491846
1783696350514127600,2.810127685546875,0.00035356965963728726,0.0012841722927987576,0.0006131355767138302
1783696350524090600,2.820090576171875,-0.00042354073957540095,-0.0011765885865315795,0.001373734325170517
1783696350534053600,2.8300537109375,-0.0004387047665659338,-0.00040800205897539854,0.0008366418769583106
1783696350544017700,2.840017578125,0.001011120155453682,0.0010807049693539739,-0.0011668541701510549
1783696350553979600,2.849979736328125,0.0009100784081965685,-0.0009605343220755458,0.0005110225174576044
1783696350563942700,2.859942626953125,0.0005835748161189258,0.002112220972776413,0.0009989136597141623
1783696350573905700,2.86990576171875,-0.0005959948757663369,0.0021092365495860577,-0.00015109858941286802
1783696350583869700,2.87986962890625,-0.0009352816268801689,-0.0017653964459896088,-0.0006917202845215797
1783696350593832700,2.889832763671875,-0.0008826713310554624,0.00005157245323061943,-0.0005384176038205624
1783696350603795700,2.899795654296875,-0.0005721467896364629,0.0000664861872792244,0.0012336497893556952
1783696350613758700,2.9097587890625,-0.0014683397021144629,-0.0037850395310670137,-0.0006208969280123711
1783696350623722800,2.91972265625,-0.00027497726841829717,0.00014551973436027765,0.00031946523813530803
1783696350633685800,2.929685791015625,-0.0005057326634414494,-0.0001340014860033989,0.0014550734777003527
1783696350643648500,2.9396484375,0.0008213204564526677,-0.002400617580860853,-0.0002951559145003557
1783696350653611800,2.94961181640625,-0.0024334443733096123,0.0014515490038320422,-0.0013122927630320191
1783696350663575600,2.959575439453125,0.00043930765241384506,-0.0011575499083846807,-0.00009549444075673819
1783696350673538600,2.96953857421875,-0.000060336256865412,-0.0011866039130836725,-0.0004681653808802366
1783696350683501800,2.979501708984375,-0.0005639400333166122,0.0007910595741122961,0.0005121441790834069
1783696350693464800,2.98946484375,-0.0007489384734071791,-0.0007106708362698555,0.00045283191138878465
1783696350703428900,2.999428955078125,0.0018268709536641836,0.00005791732110083103,0.001224615960381925
1783696350713391900,3.009391845703125,-0.0002920542028732598,0.0010420953622087836,-0.00026423134841024876
1783696350723355000,3.01935498046875,-0.0008180285221897066,-0.0005406212294474244,0.00010035536251962185
1783696350733317600,3.029317626953125,-0.0006820530397817492,-0.0005435856292024255,-0.0006003760499879718
1783696350743282000,3.039281982421875,-0.00027725251857191324,0.002747815102338791,-0.00028106302488595247
1783696350753244700,3.04924462890625,-0.00006769882747903466,-0.0016512310830876231,0.0006611732533201575
1783696350763207700,3.059207763671875,-0.000306850706692785,-0.0012285873526707292,-0.0014813399175181985
1783696350773170700,3.069170654296875,-0.000640502548776567,0.002619693521410227,0.00021459005074575543
1783696350783134700,3.079134765625,0.0005166409537196159,-0.0004498659400269389,0.0007823760388419032
1783696350793097700,3.08909765625,0.0001137405342888087,0.0006721495883539319,-0.00005087337922304869
1783696350803060700,3.099060791015625,-0.0005113033694215119,0.0017744319047778845,0.0006511358078569174
1783696350813023700,3.109023681640625,0.0006596195744350553,-0.0011217610444873571,0.00031014252454042435
1783696350822987800,3.11898779296875,0.0008031639736145735,0.0019675057847052813,-0.0005013226764276624
1783696350832950800,3.12895068359375,0.001603288110345602,0.002546816598623991,-0.000027701957151293755
1783696350842913500,3.13891357421875,-0.0004686511820182204,-0.002806403674185276,0.0009632601868361235
1783696350852876500,3.14887646484375,-0.0001852873247116804,0.0017083192942664027,-0.0011521566193550825
1783696350862840600,3.158840576171875,-0.0014763877261430025,0.0014031210448592901,0.000631362316198647
1783696350872803600,3.168803466796875,0.0004558642685879022,-0.0030031350906938314,-0.0009060518350452185
1783696350882766800,3.178766845703125,-0.0007199213141575456,0.0001228833571076393,-0.000681014615111053
1783696350892729900,3.188729736328125,0.00010170659516006708,-0.0006482673343271017,0.0011983427684754133
1783696350902693600,3.198693603515625,-0.0003883150639012456,-0.0015878304839134216,-0.00041100545786321163
1783696350912657000,3.208656982421875,-0.0011642645113170147,-0.00043993256986141205,-0.0010269299382343888
1783696350922620000,3.218619873046875,-0.00021458133414853364,0.0008514343644492328,0.000838348176330328
1783696350932582700,3.228582763671875,-0.0000020879379007965326,-0.0004936816403642297,-0.0012074982514604926
1783696350942547000,3.238546875,0.0007755551487207413,0.0010533486492931843,-0.0009132189443334937
1783696350952509700,3.248509765625,0.0011614140821620822,0.0014972364297136664,0.0006932115647941828
1783696350962472700,3.25847265625,0.00048044376308098435,-0.0012719185324385762,-0.0009768567979335785
1783696350972435700,3.268435791015625,0.0001610645849723369,0.0009923377074301243,-0.0003551199333742261
1783696350982399700,3.278399658203125,-0.0005521299317479134,-0.0005847862921655178,0.001641185604967177
1783696350992362800,3.28836279296875,0.00114295887760818,0.0004628503229469061,0.000026333262212574482
1783696351002325800,3.29832568359375,0.0002955410454887897,0.002828269964084029,-0.00018964905757457018
1783696351012288800,3.308288818359375,-0.0000017201818991452456,-0.0009289305889979005,0.0007964110700413585
1783696351022252800,3.318252685546875,-0.001868063467554748,-0.002137472853064537,-0.0013729999773204327
1783696351032215800,3.3282158203125,-0.00014116631064098328,0.0022980463691055775,0.00008263648487627506
1783696351042178600,3.338178466796875,0.0003240879450459033,-0.0007914867019280791,0.000755084678530693
1783696351052141600,3.3481416015625,-0.001741804531775415,-0.0010088615817949176,0.00021180289331823587
1783696351062105600,3.358105712890625,-0.0004637535021174699,0.0017499069217592478,0.0006245928234420717
1783696351072068600,3.368068603515625,-0.00025528474361635745,-0.0008829260477796197,-0.0009716792264953256
1783696351082031600,3.378031494140625,0.00007601248216815293,-0.0004123455146327615,-0.00022306456230580807
1783696351091995000,3.387994873046875,0.000305106834275648,0.0005844758125022054,0.0006552351987920702
1783696351101958700,3.397958740234375,-0.0012565708020702004,-0.002183613833039999,-0.00018366053700447083
1783696351111921700,3.407921630859375,-0.0005832550814375281,-0.0008827814599499106,-0.0001010518753901124
1783696351121885000,3.417885009765625,-0.0011260072933509946,0.0015156614826992154,0.0010475694434717298
1783696351131847700,3.42784765625,0.00016642367700114846,-0.0016248984029516578,-0.0004369547823444009
1783696351141812000,3.43781201171875,0.00008945830632001162,0.0021240334026515484,-0.001501952763646841
1783696351151774700,3.447774658203125,0.0003207639674656093,0.0008616420673206449,0.0007975817425176501
1783696351161737700,3.45773779296875,0.00006190472049638629,-0.0017418641364201903,0.00012353563215583563
1783696351171700700,3.46770068359375,-0.0005193615797907114,0.0014413754688575864,-0.001326103345490992
1783696351181664800,3.477664794921875,0.0005720018525607884,0.0007814441341906786,0.0004672693321481347
1783696351191627800,3.487627685546875,0.0011418216163292527,-0.0028301477432250977,-0.0002658929442986846
1783696351201590800,3.4975908203125,0.0004323554749134928,-0.00016991596203297377,-0.0012150435941293836
1783696351211553800,3.5075537109375,-0.0014225993072614074,0.0027515916153788567,-0.0001141569809988141
1783696351221517800,3.517517822265625,-0.000372781214537099,-0.000752063118852675,-0.0007975241169333458
1783696351231480800,3.527480712890625,0.0005485194269567728,-0.00037556677125394344,-0.0009032571688294411
1783696351241443600,3.537443603515625,-0.00036867326707579195,-0.0008035367354750633,0.0003391074133105576
1783696351251406600,3.547406494140625,0.0005679972236976027,-0.0009062195895239711,-0.00023175845853984356
1783696351261370600,3.55737060546875,0.0005560129648074508,0.001786768902093172,-0.00036518287379294634
1783696351271333600,3.567333740234375,-0.0005423537222668529,-0.0011345027014613152,0.00079853500938043
1783696351281296600,3.577296630859375,-0.000971122644841671,-0.0009297055657953024,-0.001021735486574471
1783696351291259600,3.587259765625,0.00033959728898480535,0.001289954292587936,-0.0003424258902668953
1783696351301223700,3.5972236328125,-0.0002995613613165915,-0.002020621206611395,0.0018701283261179924
1783696351311186700,3.607186767578125,-0.000954704184550792,-0.001084792078472674,0.00016486167442053556
1783696351321150000,3.61714990234375,-0.0005621542222797871,0.0013227055314928293,0.0005960274720564485
1783696351331112700,3.62711279296875,-0.0004469474661163986,-0.0006469999207183719,0.0003161790082231164
1783696351341076700,3.63707666015625,-0.00014760816702619195,-0.0014217133866623044,-0.000595421064645052
1783696351351039700,3.647039794921875,-0.00005950464401394129,-0.00005925074219703674,0.0009839904960244894
1783696351361002800,3.657002685546875,-0.00011010470916517079,-0.0011306405067443848,-0.0011406794656068087
1783696351370965800,3.6669658203125,-0.001988418400287628,-0.0008427886059507728,-0.0008101293351501226
1783696351380929800,3.6769296875,0.0009000460267998278,0.0007790764211677015,-0.00047217425890266895
1783696351390892800,3.686892822265625,-0.000496086198836565,-0.002425883896648884,-0.0010436715092509985
1783696351400855800,3.696855712890625,0.00009167345706373453,0.001148610608652234,-0.0005190287483856082
1783696351410818800,3.70681884765625,0.000802560243755579,0.002710922621190548,-0.00010734947863966227
1783696351420782800,3.716782958984375,-0.001045407261699438,-0.0025131343863904476,0.00018932664534077048
1783696351430745900,3.726745849609375,-0.0006058819126337767,0.0013205348514020443,-0.0020923686679452658
1783696351440708600,3.73670849609375,-0.0017779391491785645,0.0011389072751626372,0.001144170993939042
1783696351450671600,3.746671630859375,0.0003395277017261833,-0.0012415061937645078,0.00002829649019986391
1783696351460635600,3.7566357421875,0.00041542775579728186,0.0027782691176980734,0.0003081946633756161
1783696351470598700,3.7665986328125,-0.00022031432308722287,0.0004740632139146328,0.0012522789184004068
1783696351480561700,3.776561767578125,-0.0002663870109245181,-0.0028293216601014137,-0.0020843956153839827
1783696351490524700,3.786524658203125,0.000575393671169877,0.0019106119871139526,0.0009694311302155256
1783696351500488700,3.79648876953125,0.00006752883200533688,0.00013774563558399677,0.0005811422597616911
1783696351510451700,3.80645166015625,-0.00010803483019117266,-0.0024432456120848656,-0.0005340857896953821
1783696351520414700,3.816414794921875,0.002125025726854801,0.0015610831324011087,-0.0006328891031444073
1783696351530377700,3.826377685546875,-0.00022864708444103599,-0.00028584315441548824,0.00007094803731888533
1783696351540341500,3.836341552734375,-0.0019296081736683846,-0.001100504188798368,0.00035137886879965663
1783696351550304800,3.8463046875,-0.0006215967005118728,0.000750951818190515,0.0017412691377103329
1783696351560268000,3.85626806640625,-0.000565936672501266,-0.0015793140046298504,0.0010610978351905942
1783696351570231000,3.86623095703125,-0.0005277841119095683,-0.0012777127558365464,0.0018369820900261402
1783696351580195000,3.876195068359375,0.0015074035618454218,0.0007090054568834603,0.0005568006308749318
1783696351590158000,3.886157958984375,0.0005741500644944608,0.00011459214147180319,0.00084784219507128
1783696351600121000,3.89612109375,-0.0015422641299664974,0.0002437555231153965,-0.0012872141087427735
1783696351610084000,3.906083984375,-0.00001803203485906124,0.0012392629869282246,-0.0007159740198403597
1783696351620048100,3.916048095703125,-0.0007448086980730295,-0.002042017877101898,0.00019988708663731813
1783696351630011000,3.926010986328125,-0.0007051231805235147,-0.0013716951943933964,0.0009828520705923438
1783696351639974000,3.935973876953125,0.0023684310726821423,0.0019391466630622745,0.0008331824792549014
1783696351649937000,3.94593701171875,-0.00000388410990126431,-0.0009936182759702206,-0.0001083125825971365
1783696351659901000,3.95590087890625,-0.00020228959328960627,-0.0011715174186974764,-0.0003972656559199095
1783696351669864000,3.965864013671875,0.0007349223014898598,0.00043001514859497547,0.0010560107184574008
1783696351679827000,3.975826904296875,-0.000814504805020988,-0.0016381958266720176,-0.0005509406328201294
1783696351689790000,3.9857900390625,-0.0009430459467694163,-0.0006537183653563261,-0.00010555959306657314
1783696351699754000,3.99575390625,0.000664438062813133,0.000008343486115336418,0.0014670370146632195
1783696351709717000,4.005717041015625,-0.0009440036956220865,-0.0019271888304501772,0.0008469094755128026
1783696351719679700,4.0156796875,0.001059225993230939,0.00028323475271463394,-0.00021649070549756289
1783696351729642800,4.025642822265625,-0.0007171155884861946,0.0005501453997567296,0.0008493786444887519
1783696351739606800,4.035606689453125,-0.0008207125356420875,-0.003211303148418665,0.0006792026106268167
1783696351749569800,4.04556982421875,0.001014400739222765,0.0017197267152369022,-0.00021118775475770235
1783696351759533000,4.055532958984375,0.0008815090404823422,0.0008656510035507381,0.0004775057313963771
1783696351769496000,4.06549609375,-0.000635230157058686,-0.003914237953722477,-0.00001581409014761448
1783696351779459800,4.0754599609375,-0.00010499478958081454,0.0025694938376545906,0.0005498412647284567
1783696351789423000,4.085423095703125,0.0024631177075207233,0.0007541912491433322,0.00041950203012675047
1783696351799386000,4.09538623046875,-0.0005326722166500986,-0.0009427749319002032,0.00012442376464605331
1783696351809348900,4.105348876953125,-0.00012327860167715698,0.0008694864809513092,0.00042335991747677326
1783696351819313200,4.115313232421875,0.0008466446306556463,-0.00096117053180933,0.000598063284996897
1783696351829276000,4.12527587890625,-0.001725008012726903,-0.000665237894281745,-0.0017155909445136786
1783696351839239000,4.135239013671875,0.0005725011578761041,0.0017790113342925906,-0.00006949109956622124
1783696351849202000,4.145201904296875,-0.000822422793135047,-0.0006478973664343357,0.0017613830277696252
1783696351859165000,4.1551650390625,0.0006686811102554202,-0.0014484436251223087,0.0003709466545842588
1783696351869129000,4.16512890625,-0.00036716682370752096,0.0022838192526251078,0.0004452757420949638
1783696351879092000,4.175092041015625,0.00013723588199354708,-0.00020730169489979744,0.001683645648881793
1783696351889055000,4.185054931640625,-0.001420646789483726,-0.0016861387994140387,-0.0005627950886264443
1783696351899018000,4.19501806640625,-0.00018334208289161325,0.0020934194326400757,0.0017650739755481482
1783696351908982000,4.20498193359375,0.00039740969077683985,-0.001815335126593709,0.0004877050523646176
1783696351918944800,4.21494482421875,-0.0007786422502249479,-0.0005599209107458591,0.0005252556293271482
1783696351928907800,4.22490771484375,-0.00028273038333281875,0.0024595216382294893,-0.0007990832673385739
1783696351938870800,4.234870849609375,-0.002083027269691229,-0.0001072329469025135,0.0012483549071475863
1783696351948834800,4.244834716796875,-0.0004123114631511271,0.0000036241253837943077,-0.00036900711711496115
1783696351958797800,4.2547978515625,-0.00014812588051427156,0.0009596989839337766,-0.00008538039401173592
1783696351968761000,4.264760986328125,-0.00005290249828249216,-0.001217666664160788,0.0009217236074618995
1783696351978724000,4.27472412109375,-0.000686202198266983,-0.000708736595697701,-0.0008167879423126578
1783696351988688000,4.28468798828125,0.000028589071007445455,0.001304493984207511,0.0007099276408553123
1783696351998651100,4.294651123046875,0.001840603887103498,-0.0011544026201590896,-0.0018120859749615192
1783696352008614000,4.30461376953125,0.0005485660512931645,0.0004535847110673785,-0.0002704791259020567
1783696352018577000,4.314576904296875,-0.00035850662970915437,-0.0009898486314341426,0.00013085920363664627
1783696352028541000,4.324541015625,-0.002083627739921212,-0.0026690405793488026,-0.0008600980509072542
1783696352038504000,4.33450390625,-0.00028599402867257595,0.0005485904403030872,0.00015030521899461746
1783696352048467000,4.344467041015625,-0.00006194724119268358,0.0004932021256536245,-0.0003345021978020668
1783696352058430000,4.354429931640625,-0.00010775361442938447,-0.002171290572732687,0.0009645877871662378
1783696352068394000,4.36439404296875,-0.00021717821073252708,0.001596523798070848,-0.000033531105145812035
1783696352078357000,4.37435693359375,0.0006547407247126102,0.0016007848316803575,0.0005299937329255044
1783696352088320000,4.384320068359375,-0.0014045907882973552,-0.002190917730331421,0.001947759068571031
1783696352098283000,4.394282958984375,0.00018451735377311707,0.001185437897220254,-0.00027171929832547903
1783696352108247000,4.4042470703125,-0.0008357003680430353,-0.0012720752274617553,0.0006948148366063833
1783696352118209800,4.414209716796875,-0.0003499397716950625,-0.0008819223148748279,0.0003778986865654588
1783696352128172800,4.4241728515625,0.001019131625071168,0.0018381359986960888,-1.4202669262886047e-7
1783696352138135800,4.4341357421875,0.0006076731951907277,-0.00007534516043961048,0.0008680485188961029
1783696352148099800,4.444099853515625,0.00006050799856893718,-0.0016678700922057033,-0.000670989160425961
1783696352158062800,4.454062744140625,-0.0010588185396045446,0.0022483081556856632,-0.00034794770181179047
1783696352168025900,4.46402587890625,0.0006742860423400998,-0.0006055501289665699,-0.001075133215636015
1783696352177989000,4.473989013671875,0.0009222263470292091,-0.0000745158176869154,-0.0005100105190649629
1783696352187952000,4.4839521484375,0.00007237089448608458,0.0035324953496456146,0.00044365302892401814
1783696352197916000,4.493916015625,-0.0001848904648795724,-0.0013903578510507941,-0.0002373172901570797
1783696352207879000,4.50387890625,-0.0013921525096520782,-0.0011317337630316615,-0.0002662474289536476
1783696352217842000,4.513842041015625,0.002363970037549734,0.0036755381152033806,-0.0011701243929564953
1783696352227805000,4.523804931640625,-0.0011326093226671219,-0.0007199556566774845,0.0005455368664115667
1783696352237769000,4.53376904296875,0.00043146521784365177,-0.00028665922582149506,-0.0005242549814283848
1783696352247732000,4.54373193359375,0.00044523205724544823,0.0010272490326315165,-0.0008112645009532571
1783696352257695000,4.553695068359375,0.001189585542306304,-0.001155211590230465,-0.00021391746122390032
1783696352267658000,4.563657958984375,-0.0008613298996351659,0.0014173832023516297,-0.0022835792042315006
1783696352277622000,4.5736220703125,0.00026252405950799584,0.0012458756100386381,0.0003513522678986192
1783696352287585000,4.5835849609375,-0.0016303728334605694,-0.001249481807462871,0.0009152977727353573
1783696352297548000,4.593548095703125,0.001042375573888421,0.0006948921363800764,-0.0008589001372456551
1783696352307510800,4.6035107421875,-0.0015292069874703884,0.0007970965816639364,-0.00031404849141836166
1783696352317474800,4.613474853515625,-0.0001899033522931859,-0.003034925786778331,-0.0005388192366808653
1783696352327437800,4.623437744140625,-0.0006256718770600855,0.0011213608086109161,-0.0016761901788413525
1783696352337400800,4.63340087890625,0.0021860937122255564,-0.0008459161035716534,0.000702012563124299
1783696352347363800,4.64336376953125,-0.00008087969035841525,-0.001967817544937134,0.0008798017515800893
1783696352357328000,4.653327880859375,0.0013084914535284042,0.0019755251705646515,-0.00047734519466757774
1783696352367291000,4.663290771484375,-0.0003197507467120886,0.0004991188179701567,0.001530465786345303
1783696352377254000,4.67325390625,-0.00030510337091982365,-0.0013230160111561418,-0.0015811716439202428
1783696352387217200,4.683217041015625,0.000338620477123186,0.0014010712038725615,-0.0019639807287603617
1783696352397181000,4.693180908203125,0.00005046642036177218,0.00093555060448125,0.0010352710960432887
1783696352407144000,4.70314404296875,0.00008194110705517232,-0.0014664542395621538,-0.0016961961518973112
1783696352417107000,4.71310693359375,-0.00021899609419051558,0.0006004250608384609,-0.0004863220965489745
1783696352427070000,4.723070068359375,-0.000828917371109128,-0.00026853091549128294,0.0017758195754140615
1783696352437034000,4.733033935546875,0.0004411441332194954,-0.0011561625869944692,-0.0013163767289370298
1783696352446997000,4.7429970703125,0.0006851413054391742,0.0015965860802680254,-0.00008156360127031803
1783696352456960000,4.7529599609375,-0.0006762666162103415,-0.00023753289133310318,0.0005996730178594589
1783696352466923000,4.762923095703125,-0.0012755726929754019,0.0006908039795234799,-0.0018169076647609472
1783696352476886000,4.772885986328125,0.0006371095078065991,0.002124649938195944,-0.000922884326428175
1783696352486850000,4.78285009765625,0.00010649074101820588,-0.0017465511336922646,-0.00025052193086594343
1783696352496812800,4.792812744140625,0.00044417957542464137,-0.00021869561169296503,-0.0014422864187508821
1783696352506775800,4.80277587890625,-0.0003689808363560587,0.001933818100951612,-0.00008715933654457331
1783696352516738800,4.81273876953125,0.00019374507246538997,-0.0009274821495637298,-0.00003602658398449421
1783696352526702800,4.822702880859375,-0.00021374695643316954,-0.000263390364125371,0.0006500367308035493
1783696352536665900,4.832665771484375,0.0014954698272049427,0.0002921449486166239,0.0012191542191430926
1783696352546628900,4.84262890625,-0.00008105215965770185,-0.0010944833047688007,-0.00014253531116992235
1783696352556592400,4.85259228515625,0.00017088284948840737,-0.0003591845743358135,0.00011738919420167804
1783696352566556400,4.862556396484375,-0.0005678785382770002,0.0015236708568409085,0.00023958092788234353
1783696352576519400,4.87251953125,0.0003913920954801142,-0.0005802263040095568,0.0004427800886332989
1783696352586482400,4.882482421875,-0.0011860907543450594,0.00020933267660439014,-0.001989066833630204
1783696352596445400,4.892445556640625,-0.0014457488432526588,-0.00030625530052930117,0.0005758234765380621
1783696352606409500,4.902409423828125,0.00034539864282123744,-0.001012803171761334,0.0021476070396602154
1783696352616372200,4.912372314453125,-0.00004848287790082395,0.0008578011766076088,-0.0017619134159758687
1783696352626335500,4.92233544921875,-0.0010418520541861653,0.0021777688525617123,0.001880246214568615
1783696352636298500,4.932298583984375,-0.0006493020919151604,-0.0025474780704826117,0.000026419758796691895
1783696352646262500,4.942262451171875,0.0002898219390772283,0.002328850794583559,-0.00013479182962328196
1783696352656225500,4.9522255859375,-0.0010699881240725517,-0.0005713317077606916,0.00027560128364712
1783696352666188500,4.9621884765625,0.0007369851227849722,-0.0007514471653848886,-0.000010722549632191658
1783696352676151600,4.972151611328125,-0.0002390634035691619,0.001246988889761269,-0.0003822335274890065
1783696352686114600,4.982114501953125,-0.0014349184930324554,0.000020811217837035656,0.00022333499509841204
1783696352696078600,4.99207861328125,-0.001644509262405336,-0.002599739469587803,-0.0004515099572017789
1783696352706041300,5.002041259765625,0.0014024415286257863,0.001700309687294066,0.0014111214550212026
1783696352716004400,5.01200439453125,0.0006232005544006824,-0.0011902854312211275,0.0009280240046791732
1783696352725967400,5.02196728515625,-0.0014186418848112226,-0.00030131719540804625,-0.00048084137961268425
1783696352735931400,5.031931396484375,-0.0011355478782206774,0.00239406805485487,0.0003221016377210617
1783696352745894400,5.041894287109375,-0.0018601990304887295,-0.0018941485323011875,0.0013940684730187058
1783696352755857400,5.051857421875,0.00019815811538137496,-0.0004786783829331398,-0.0019777598790824413
1783696352765820400,5.0618203125,-0.0008641055901534855,0.0025963776279240847,0.0003559035249054432
1783696352775784400,5.071784423828125,-0.0001208173343911767,-0.001436713500879705,0.00039904669392853975
1783696352785747500,5.08174755859375,-0.0003611060092225671,0.0004869449185207486,-0.0002761454088613391
1783696352795710200,5.091710205078125,0.0015632942086085677,0.003081928938627243,-0.0005334067391231656
1783696352805673500,5.101673583984375,-0.0008646828937344253,-0.001365968957543373,0.001037776586599648
1783696352815637200,5.11163720703125,0.00011243089102208614,0.0010785465128719807,-0.00029460282530635595
1783696352825600500,5.1216005859375,-0.0012656530598178506,0.0016268639592453837,0.0011531045893207192
1783696352835563500,5.1315634765625,-0.0011759045301005244,-0.0010131275048479438,-0.00011828856077045202
1783696352845526500,5.141526611328125,-0.0010992861352860928,0.0012106532230973244,-0.0004648783942684531
1783696352855490600,5.151490478515625,0.00035985978320240974,0.001998416380956769,0.0009737612563185394
1783696352865453600,5.16145361328125,-0.0012167661916464567,-0.0006038770079612732,0.000019963947124779224
1783696352875416600,5.17141650390625,-0.0011379366042092443,-0.000534901162609458,-0.0021411911584436893
1783696352885379600,5.181379638671875,0.00046816037502139807,-0.0005182251334190369,0.0008959866827353835
1783696352895343600,5.191343505859375,-0.000039704464143142104,-0.0009294173214584589,0.0015085136983543634
1783696352905306400,5.201306396484375,0.00016508111730217934,0.0013255339581519365,-0.0005162222078070045
1783696352915269400,5.211269287109375,0.0005642889300361276,-0.00008540879935026169,0.0011429270962253213
1783696352925232400,5.221232421875,-0.0005372533341869712,-0.0012293969048187137,0.0008017930667847395
1783696352935195400,5.2311953125,0.0015983355697244406,0.0020404323004186153,0.0010127155110239983
1783696352945159400,5.241159423828125,-0.001266892533749342,-0.0010201435070484877,-0.0000825515016913414
1783696352955122400,5.251122314453125,-0.0007142865797504783,-0.0003559510223567486,-0.001196818077005446
1783696352965085400,5.26108544921875,0.001261448604054749,0.0017458518268540502,0.000038357917219400406
1783696352975048400,5.27104833984375,0.0000513082486577332,0.0002661994658410549,-0.0006727060535922647
1783696352985012500,5.281012451171875,0.0006204665405675769,-0.0016896488377824426,-0.0008338969200849533
1783696352994975200,5.290975341796875,-0.001054661814123392,0.0012587367091327906,0.0005245815846137702
1783696353004938200,5.300938232421875,-0.00013743748422712088,-0.001132580335251987,0.0006965486682020128
1783696353018015500,5.314015380859375,-0.0008000319357961416,-0.00015866232570260763,0.00046725053107365966
1783696353027979300,5.323979248046875,0.0016774142859503627,0.00012817024253308773,0.00211044168099761
1783696353037942500,5.333942626953125,0.0003679379587993026,-0.0028172859456390142,0.0007341200252994895
1783696353047905500,5.343905517578125,-0.0006306651048362255,-0.00029910041484981775,0.0005806291592307389
1783696353057868500,5.35386865234375,-0.0010698203695937991,0.0005754815647378564,-0.0002484129508957267
1783696353067832600,5.36383251953125,0.00031397611019201577,-0.002109011635184288,0.0013631967594847083
1783696353077795600,5.373795654296875,-0.00092146429233253,0.002687075175344944,-0.00084562913980335
1783696353087758600,5.383758544921875,0.00035731703974306583,0.0006808699108660221,0.0014886604622006416
1783696353097721300,5.393721435546875,-0.0016075631137937307,-0.0013974609319120646,0.0018662966322153807
1783696353107684400,5.403684326171875,0.001178613631054759,0.0007185710710473359,-0.0008369318675249815
1783696353117648400,5.4136484375,-0.0011170310899615288,0.0004940666258335114,-0.00022413837723433971
1783696353127611400,5.423611328125,-0.00016723711451049894,-0.0022353557869791985,0.000546836934518069
1783696353137574400,5.433574462890625,-0.00034540260094217956,0.0024374264758080244,-0.0006864729803055525
1783696353147537400,5.443537353515625,-0.0004432207497302443,-0.00022320460993796587,0.00012531259562820196
1783696353157501400,5.45350146484375,0.00025000007008202374,-0.00268210144713521,-0.00111225841101259
1783696353167464400,5.46346435546875,-0.0016942548099905252,0.0013748017372563481,-0.000980905955657363
1783696353177427500,5.473427490234375,-0.0002545499010011554,-0.0008031313773244619,0.00002177420537918806
1783696353187390200,5.48339013671875,-0.00003156688762828708,-0.0002929813927039504,-0.001023056567646563
1783696353197354500,5.4933544921875,0.00014766384265385568,0.00019970338325947523,-0.0008102700812742114
1783696353207317200,5.503317138671875,0.0008701006881892681,-0.000568235176615417,0.0011973673244938254
1783696353217280500,5.513280517578125,0.0008714322466403246,-0.0002443947596475482,0.0011472998885437846
1783696353227243500,5.523243408203125,-0.000014308752724900842,0.002187201753258705,-0.00045806507114320993
1783696353237207300,5.533207275390625,-0.00019194159540347755,-0.000978497788310051,0.001880190335214138
1783696353247170600,5.543170654296875,0.0002872071345336735,0.00037052459083497524,0.0006900869193486869
1783696353257133600,5.553133544921875,-0.000018257444025948644,0.0030430066399276257,0.00015958526637405157
1783696353267096600,5.5630966796875,0.00044239877024665475,0.0003366438904777169,-0.0003912056563422084
1783696353277059600,5.5730595703125,0.0009776942897588015,-0.0005797498160973191,-0.001237824559211731
1783696353287023600,5.583023681640625,0.0013945861719548702,0.0022348398342728615,-0.00008689321111887693
1783696353296986400,5.592986328125,-0.00021449582709465176,-0.0008301923517137766,0.0003951388644054532
1783696353306949400,5.602949462890625,0.0004777595750056207,0.0008984701125882566,0.0014243649784475565
1783696353316912400,5.612912353515625,-0.0003699245862662792,0.0005871466128155589,0.00021795311477035284
1783696353326876400,5.62287646484375,-0.0009088848019018769,-0.0022669362369924784,0.0013515460304915905
1783696353337461500,5.63346142578125,0.0008834226755425334,0.00013044150546193123,-0.001300163334235549
1783696353347424500,5.643424560546875,0.00004705131868831813,0.0013445033691823483,0.0011446945136412978
1783696353357388500,5.653388427734375,0.0006659699138253927,-0.0011423564283177257,-0.0008689216338098049
1783696353367351600,5.6633515625,0.0013896524906158447,0.0014154689852148294,-0.00137186492793262
1783696353377314300,5.673314208984375,-0.0005517918616533279,0.0009912274545058608,0.0015600090846419334
1783696353387277300,5.68327734375,-0.0012573963031172752,-0.0023885765112936497,0.0002455786452628672
1783696353397241300,5.693241455078125,-0.0008781621581874788,0.0011313233990222216,0.0009097709553316236
1783696353407204400,5.703204345703125,-0.00044080428779125214,0.0010046345414593816,0.0004826396470889449
1783696353417167400,5.71316748046875,-0.0012594599975273013,-0.001764520420692861,0.0008022189140319824
1783696353427130400,5.72313037109375,-0.00007268390618264675,0.0015340271638706326,-0.00025038374587893486
1783696353437093400,5.73309326171875,-0.001664987881667912,-0.00003670516889542341,0.000713147921487689
1783696353447057400,5.743057373046875,-0.0012855407549068332,-0.0023713414557278156,0.0000680023804306984
1783696353457020400,5.7530205078125,0.0011299463221803308,0.0011855766642838717,-0.00018047052435576916
1783696353466983700,5.762983642578125,-0.0001292525848839432,-0.0014520722907036543,-0.00025354791432619095
1783696353476946400,5.772946533203125,-0.00044536980567499995,-0.0013221099507063627,0.001096941065043211
1783696353486910500,5.782910400390625,-0.000653155439067632,0.002096625743433833,-0.00025523954536765814
1783696353496873500,5.79287353515625,-0.0008797904010862112,-0.0013827942311763763,-0.0011780249187722802
1783696353506836500,5.80283642578125,-0.0004419394244905561,-0.0005905635189265013,0.0005025448626838624
1783696353516799500,5.812799560546875,0.0008486284059472382,0.0006563285132870078,-0.00009906315244734287
1783696353526763500,5.822763427734375,0.0008335820166394114,-0.0014121262356638908,0.0029016095213592052
1783696353536726500,5.8327265625,0.000024513719836249948,-0.0015186527743935585,-0.0011346773244440556
1783696353546689500,5.842689453125,0.00141429144423455,0.00277916481718421,0.000056429533287882805
1783696353556651500,5.852651611328125,-0.000009434443200007081,-0.0017956133233383298,-0.00045329949352890253
1783696353566615600,5.862615478515625,-0.001687416690401733,0.0002509617479518056,-0.0011012564646080136
1783696353576578600,5.87257861328125,0.00041994263301603496,0.000564682180993259,0.0012143620988354087
1783696353586541600,5.88254150390625,0.0002057075616903603,-0.0016380174783989787,0.00023141963174566627
1783696353596504600,5.892504638671875,0.000359371944796294,0.00009516777936369181,0.0009856268297880888
1783696353606467800,5.9024677734375,0.0010953290620818734,0.0005889509338885546,-0.0004194139037281275
1783696353616431600,5.912431640625,-0.001050912425853312,-0.0010299845598638058,0.00008685304783284664
1783696353626394600,5.92239453125,-0.0004192513006273657,0.0016790927620604634,-0.0013697901740670204
1783696353636358000,5.93235791015625,-0.0018989035161212087,0.00021861516870558262,-0.0018760571256279945
1783696353646320600,5.942320556640625,0.0001859006006270647,-0.0015366057632490993,-0.00141539063770324
1783696353656284700,5.95228466796875,0.00008177099516615272,0.00171511375810951,-0.0014516095397993922
1783696353666247700,5.96224755859375,0.0023902994580566883,0.0014623790048062801,0.0015448698541149497
1783696353676210700,5.972210693359375,0.0006078457809053361,-0.001822630176320672,-0.001051445840857923
1783696353686173700,5.982173583984375,0.0008712150738574564,0.0011698424350470304,0.0006900005391798913
1783696353696137700,5.9921376953125,-0.00032960428507067263,-0.000012068543583154678,-0.00018138578161597252
1783696353706100700,6.002100830078125,-0.0012359595857560635,-0.001264206599444151,-0.0011647917563095689
1783696353716063700,6.012063720703125,-0.0008857538923621178,0.001243692240677774,-0.00013468111865222454
1783696353726026800,6.02202685546875,-0.0013506070245057344,-0.0016034108120948076,-0.0000795524101704359
1783696353735990800,6.03199072265625,0.0002696601441130042,-0.0006862182635813951,-0.0007328258361667395
1783696353745953800,6.041953857421875,-0.0009232077863998711,0.002435890259221196,0.0007185292197391391
1783696353755916500,6.05191650390625,0.0003303421544842422,0.00007606321014463902,0.000751019804738462
1783696353765879600,6.061879638671875,0.00012982060434296727,0.00039908895269036293,-0.0010528616840019822
1783696353775843600,6.071843505859375,0.00020412279991433024,0.0004925657995045185,0.0003234599716961384
1783696353785806600,6.081806640625,-0.00003482421743683517,0.00017743173521012068,0.0001564648700878024
1783696353795769600,6.09176953125,0.0005702460184693336,0.0013721258146688342,-0.0015508877113461494
1783696353805732600,6.101732666015625,0.0011627273634076118,0.0015776355285197496,-0.0002697145100682974
1783696353815696600,6.111696533203125,-0.0009062825702130795,-0.0016732851509004831,0.00046132324496284127
1783696353825659600,6.12165966796875,0.0004323545435909182,0.0010636176448315382,-0.001687249168753624
1783696353835623000,6.131622802734375,0.002102422760799527,0.0032551330514252186,-0.00033249915577471256
1783696353845585700,6.141585693359375,-0.0008021508110687137,-0.001386416843160987,0.0001243463484570384
1783696353855549700,6.1515498046875,-0.0005038767703808844,-0.0007230232004076242,-0.0004961701342836022
1783696353865512700,6.1615126953125,-0.0004894441226497293,0.0013511672150343657,0.0011075549991801381
1783696353875475700,6.171475830078125,-0.00035575346555560827,-0.0005532593932002783,-0.0008818262722343206
1783696353885438700,6.181438720703125,0.0006674848264083266,-0.00006757292430847883,0.0000809497432783246
1783696353895401700,6.191401611328125,-0.0009056443814188242,-0.00020738888997584581,0.0014498145319521427
1783696353905365800,6.20136572265625,0.00021063844906166196,-0.0012789792381227016,0.00039486121386289597
1783696353915328800,6.211328857421875,0.0009968036320060492,0.00164144323207438,-0.0006355157820507884
1783696353925291800,6.221291748046875,0.001188088906928897,-0.00027594168204814196,-0.0006305692950263619
1783696353935254500,6.231254638671875,-0.00045108661288395524,-0.0012453322997316718,0.0014197984710335732
1783696353945218800,6.24121875,0.0008651935495436192,0.0033683753572404385,-0.0021903933957219124
1783696353955181600,6.251181640625,0.0010292442748323083,0.0022858004085719585,0.0004780940944328904
1783696353965144600,6.26114453125,0.00013443417265079916,-0.002666302490979433,-0.00013167026918381453
1783696353975107600,6.271107666015625,0.0016484411899000406,0.0025891796685755253,0.0007788644870743155
1783696353985071600,6.281071533203125,0.000005544046871364117,0.0012930482625961304,0.0008843039395287633
1783696353995034600,6.29103466796875,-0.0007398747256956995,-0.002828193362802267,0.0006419562269002199
1783696354004997600,6.30099755859375,-0.00026403830270282924,0.0006901065353304148,0.0010707353940233588
1783696354014960600,6.310960693359375,-0.00008667177462484688,0.00041260512080043554,0.0012931093806400895
1783696354024924700,6.320924560546875,-0.0014333007857203484,0.0002139394637197256,0.0003480836167000234
1783696354034887700,6.3308876953125,0.0016109584830701351,0.0009921151213347912,0.0004074720782227814
1783696354044850700,6.3408505859375,-0.0005424720584414899,-0.0011142375878989697,-0.00026660587172955275
1783696354054813700,6.350813720703125,0.0012112194672226906,-0.0004596326034516096,-0.0012652912409976125
1783696354064777700,6.36077783203125,0.0008182814926840365,0.0009590431000106037,0.0007531192968599498
1783696354074740700,6.37074072265625,0.001090722857043147,-0.0028444835916161537,0.0006569792167283595
1783696354084703700,6.380703857421875,-0.0007002627244219184,-0.0006963688647374511,0.0003820691490545869
1783696354094666800,6.390666748046875,0.00047472392907366157,0.002647496061399579,0.0005344019737094641
1783696354104630800,6.400630859375,-0.0005675675347447395,-0.0018135125283151865,0.0004088360583409667
1783696354114593800,6.41059375,-0.0001848712854553014,0.0006999790202826262,-0.00048252393025904894
1783696354124556800,6.420556884765625,-0.00042356443009339273,0.0029517151415348053,0.0012792997295036912
1783696354134519600,6.43051953125,0.0006193294539116323,-0.0004091940354555845,-0.0006799879483878613
1783696354144483800,6.44048388671875,0.0002184776240028441,0.0005756203318014741,-0.0007841221522539854
1783696354154446600,6.450446533203125,-0.0011368050472810864,0.0028768577612936497,-0.0014368630945682526
1783696354164409600,6.46040966796875,-0.0003719158994499594,-0.0007372732507064939,-0.0007107449928298593
1783696354174372600,6.47037255859375,-0.0008278490859083831,0.000023591797798871994,0.0003172352444380522
1783696354184336600,6.480336669921875,0.0009930168744176626,-0.00035800482146441936,0.00017466291319578886
1783696354194299600,6.490299560546875,0.00034080882323905826,-0.0014688093215227127,-0.0011912724003195763
1783696354204262700,6.5002626953125,-0.0003247915010433644,-0.0016778780845925212,0.0009088581427931786
1783696354214225700,6.5102255859375,-0.0006560887559317052,-0.000029381480999290943,-0.0010610820027068257
1783696354224189700,6.520189697265625,0.0006724534323439002,-0.0032953971531242132,-0.0008698441088199615
1783696354234152700,6.530152587890625,-0.0006047985516488552,0.001536908675916493,-0.00044799945317208767
1783696354244115700,6.54011572265625,0.000855281890835613,0.0010920017957687378,0.000051463604904711246
1783696354254078700,6.55007861328125,-0.0022936398163437843,-0.00048245908692479134,0.000047468929551541805
1783696354264041700,6.560041748046875,-0.0006788386963307858,0.0030444771982729435,-0.0009409377817064524
1783696354274005800,6.570005859375,0.0004647226887755096,0.00002072413917630911,-0.0003092358820140362
1783696354283968800,6.57996875,-0.000029219663701951504,-0.000736503629013896,0.0013024320360273123
1783696354293931800,6.589931884765625,0.00014202159945853055,0.0010222479468211532,-0.0014147910987958312
1783696354303894800,6.599894775390625,0.000449139392003417,-0.0006741256220266223,-0.0006162793142721057
1783696354313858800,6.60985888671875,0.0006592627614736557,0.00022362591698765755,0.0007888044929131866
1783696354323821800,6.61982177734375,-0.0005052562919445336,0.00035649840719997883,0.00020250026136636734
1783696354333784600,6.62978466796875,-0.0018743873806670308,-0.001404117327183485,0.0006666892440989614
1783696354343747600,6.63974755859375,-0.0006726423744112253,-0.0010494007728993893,0.00005701207555830479
1783696354353711600,6.649711669921875,-0.0006484076147899032,0.0018177584279328585,-0.0015981425531208515
1783696354363674600,6.659674560546875,-0.00007444727816618979,-0.00011174322571605444,0.0015036388067528605
1783696354373637600,6.6696376953125,0.00043368383194319904,-0.002303258515894413,0.0003542184713296592
1783696354383600600,6.6796005859375,0.0010601618560031056,0.0020647963974624872,0.00043856591219082475
1783696354393564700,6.689564697265625,0.001019681803882122,-0.0010463083162903786,0.0002883636625483632
1783696354403527700,6.699527587890625,-0.0005972156068310142,0.000547891017049551,-0.0013073893496766686
1783696354413490700,6.70949072265625,0.0006523395422846079,0.0008975640521384776,0.0005160770961083472
1783696354423453700,6.71945361328125,-0.0008700867183506489,-0.0009305017301812768,0.0006998314638622105
1783696354433417700,6.729417724609375,-0.0018338847439736128,0.0016801950987428427,-0.0014637205749750137
1783696354443380500,6.73938037109375,-0.0007945840479806066,0.002903150860220194,0.00043590832501649857
1783696354453343700,6.74934375,-0.0008539725677110255,-0.0015448607737198472,-0.000012834323570132256
1783696354463306800,6.759306640625,0.0006950731622055173,-0.00014836795162409544,0.0009624517406336963
1783696354473270500,6.7692705078125,-0.0005531504866667092,0.0005919907707720995,0.0006332850316539407
1783696354483233800,6.77923388671875,0.00016370145021937788,-0.0017344718798995018,-0.00004935020115226507
1783696354493196800,6.78919677734375,0.00026596683892421424,0.0005638360744342208,-0.00008024286944419146
1783696354503159800,6.799159912109375,-0.0005939951515756547,0.0007457071333192289,0.0011335497256368399
1783696354513123800,6.809123779296875,0.0002827174903359264,-0.0021254466846585274,0.0014126490568742156
1783696354523086800,6.8190869140625,-0.0003166876267641783,0.0009729982120916247,0.0002650078386068344
1783696354533049600,6.829049560546875,-0.002180900424718857,0.00036100379657000303,0.0006807273020967841
1783696354543012600,6.8390126953125,-0.0007994689512997866,-0.0011147374752908945,0.0010044220834970474
1783696354552977200,6.84897705078125,-0.001621586736291647,0.0017500249668955803,-0.0010368907824158669
1783696354562940200,6.858940185546875,-0.00026776682352647185,0.0006873398087918758,0.0005088203470222652
1783696354572903200,6.868903076171875,0.0003618044138420373,-0.0017891337629407644,-0.0003207543632015586
1783696354582866200,6.8788662109375,-0.002137748757377267,0.0021969927474856377,-0.0005604599136859179
1783696354592830200,6.888830322265625,-0.00029137925594113767,-0.0013575284974649549,0.00010692817158997059
1783696354602793200,6.898793212890625,-0.0002910899056587368,-0.0012253004824742675,-0.0004179789684712887
1783696354612756200,6.908756103515625,-0.00004048645496368408,0.0019172296160832047,-0.0006131886038929224
1783696354622719200,6.91871923828125,0.0012052630772814155,-0.0013612014008685946,0.0024188258685171604
1783696354632683300,6.928683349609375,0.0007709014462307096,0.00059196085203439,-0.0015737850917503238
1783696354642646000,6.93864599609375,-0.0009675195324234664,0.0038395188748836517,0.00014890253078192472
1783696354652609000,6.948609130859375,-0.0009784384164959192,0.00015823135618120432,0.0012794143985956907
1783696354662572000,6.958572021484375,0.0005071181803941727,-0.0005181854357942939,-0.0015652007423341274
1783696354672536000,6.9685361328125,-0.0003312449262011796,0.0008954204968176782,-0.00011910428293049335
1783696354682499000,6.9784990234375,-0.001146475551649928,-0.0010183202102780342,-0.00009501609019935131
1783696354692462000,6.988462158203125,0.0004591442411765456,-0.0008942168205976486,-0.00003882346209138632
1783696354702425300,6.99842529296875,0.00012948340736329556,0.0004078475758433342,0.0006374740623869002
1783696354712389000,7.00838916015625,0.00035372155252844095,-0.001184722757898271,0.0005669003003276885
1783696354722352400,7.018352294921875,0.0015569762326776981,-0.00007168401498347521,-0.0006339472020044923
1783696354732315400,7.0283154296875,-0.00247744657099247,-0.00015690515283495188,-0.0004584449343383312
1783696354742278100,7.038278076171875,0.0018135703867301345,-0.0003586619859561324,0.001326211029663682
1783696354752242200,7.0482421875,0.00036640861071646214,-0.0008164591854438186,-0.0002972519723698497
1783696354762205200,7.058205078125,-0.00002396304626017809,0.0010157367214560509,0.0003193990560248494
1783696354772168200,7.068168212890625,-0.0019267916213721037,-0.0006319609237834811,0.00041047914419323206
1783696354782131200,7.078131103515625,-0.000761372153647244,0.0019236670341342688,-0.002046620938926935
1783696354792095200,7.08809521484375,-0.0013773612445220351,-0.000009255250915884972,0.0012770039029419422
1783696354802058200,7.098058349609375,-0.00001467292895540595,-0.0003485800698399544,-0.0006417250260710716
1783696354812021200,7.108021240234375,0.0009781535482034087,0.0016916675958782434,0.0004017014871351421
1783696354821984300,7.117984375,0.0007881160126999021,-0.0000016888370737433434,0.002601627493277192
1783696354831948300,7.1279482421875,-0.0006537194130942225,-0.0009252731688320637,-0.0002468895399942994
1783696354841911000,7.1379111328125,0.0003258492797613144,0.0015656084287911654,0.0013354327529668808
1783696354851874000,7.1478740234375,0.0010065531823784113,0.000012985547073185444,0.0019972282461822033
1783696354861837000,7.157837158203125,-0.0013023251667618752,-0.0021122884936630726,-0.0009606331586837769
1783696354871801000,7.167801025390625,0.0012074378319084644,0.0012315765488892794,-0.00017153855878859758
1783696354881764000,7.17776416015625,-0.0011247368529438972,-0.001358194276690483,0.0004662963910959661
1783696354891727000,7.18772705078125,0.00021696370095014572,0.00027485599275678396,0.0006359397084452212
1783696354901690400,7.1976904296875,0.0009536818834021688,0.002171617466956377,0.0008731172420084476
1783696354911654100,7.207654052734375,0.0001331619860138744,-0.0006297617219388485,0.002210024045780301
1783696354921617200,7.2176171875,0.0008130442583933473,-0.001315807574428618,-0.0003590190317481756
1783696354931580400,7.227580322265625,0.0008945369627326727,0.0023124830331653357,-0.0004887150134891272
1783696354941543200,7.237543212890625,-0.0015236899489536881,-0.001432493096217513,0.0004336043493822217
1783696354951507200,7.247507080078125,-0.0009649586863815784,-0.001946483040228486,0.00014225451741367579
1783696354961470200,7.25747021484375,0.00022063340293243527,0.0029822001233696938,0.0009131227270700037
1783696354971433200,7.26743310546875,-0.00139270955696702,-0.00054542301222682,0.0006324255373328924
1783696354981396200,7.277396240234375,-0.0004627223825082183,0.00006017310079187155,-0.001576636335812509
1783696354991360300,7.2873603515625,0.0004017397004645318,0.0008015971397981048,-0.00021283153910189867
1783696355001323300,7.2973232421875,0.0003708882140927017,0.000059064943343400955,-0.0004322873428463936
1783696355011286300,7.307286376953125,-0.00008051762415561825,-0.0009577298769727349,0.00010753539390861988
1783696355021249300,7.317249267578125,0.00045014635543338954,0.002316025085747242,0.0015615944284945726
1783696355031213300,7.32721337890625,-0.0013474873267114162,-0.0018483599415048957,0.00043907202780246735
1783696355041176000,7.337176025390625,0.0006037144339643419,0.0008770344429649413,0.0005346598336473107
1783696355051139000,7.34713916015625,0.0020074667409062386,0.0006096530705690384,0.0011407952988520265
1783696355061102000,7.35710205078125,0.00048366302507929504,-0.0024320492520928383,0.0006555450963787735
1783696355071066000,7.367066162109375,0.0007041727658361197,-0.00014972023200243711,-0.0009079966694116592
1783696355081029000,7.377029052734375,0.0008417828939855099,0.000025074928998947144,-0.0007366137579083443
1783696355090992000,7.3869921875,0.0016857385635375977,-0.00023032212629914284,0.002379817422479391
1783696355100955100,7.396955078125,0.0008657806902192533,0.0008967737667262554,-0.0006285228300839663
1783696355110919200,7.406919189453125,0.0014468824956566095,-0.00033307389821857214,0.00005377910565584898
1783696355120882200,7.416882080078125,-0.0008721410413272679,-0.0026170779019594193,-0.0006863774033263326
1783696355130845200,7.42684521484375,0.0017201799200847745,0.0015550301177427173,-0.0001369672827422619
1783696355140808200,7.43680810546875,0.00017751450650393963,-0.00035842147190123796,0.0006756575312465429
1783696355150772000,7.44677197265625,0.0013080263743177056,-0.0007629556348547339,-0.001769390539266169
1783696355160735200,7.4567353515625,0.00005831624730490148,0.0023593707010149956,-0.0012870492646470666
1783696355170698200,7.4666982421875,-0.0008032163605093956,0.00046027067583054304,0.001627514255233109
1783696355180661200,7.4766611328125,0.0006222662632353604,-0.0007944833487272263,0.0007094547618180513
1783696355190625300,7.486625244140625,-0.000744201650377363,-0.00006371201016008854,0.0008002685499377549
1783696355200588300,7.49658837890625,-0.0011578301200643182,-0.00001370161771774292,0.002264690585434437
1783696355210551300,7.50655126953125,0.00032262111199088395,-0.0010315616382285953,-0.0005265683867037296
1783696355220514300,7.516514404296875,0.0012577747693285346,0.0029422722291201353,-0.0005764232482761145
1783696355230478300,7.526478271484375,-0.0003308008308522403,-0.0015014782547950745,0.0013032358838245273
1783696355240441000,7.536441162109375,-0.00010549275611992925,0.0007872438873164356,-0.0021575670689344406
1783696355250404000,7.546404052734375,0.0003477772406768054,0.002689806278795004,0.0006336921942420304
1783696355260367000,7.5563671875,-0.0005302175413817167,-0.0016409429954364896,-0.00009488232899457216
1783696355270331100,7.5663310546875,-0.0017044051783159375,-0.000015083118341863155,-0.0018030338687822223
1783696355280294100,7.576294189453125,0.00020542404672596604,0.0013710558414459229,0.00006835802923887968
1783696355290257200,7.586257080078125,0.0007409857353195548,-0.0006055422127246857,0.0013357563875615597
1783696355300220200,7.59622021484375,0.00027861574199050665,-0.0004897232865914702,-0.0008142858278006315
1783696355310184200,7.60618408203125,-0.0007698707631789148,0.0012075093109160662,0.0021641934290528297
1783696355320147200,7.616147216796875,0.00033786994754336774,-0.0033118927385658026,0.0006401894497685134
1783696355330110000,7.62610986328125,-0.0028326231986284256,0.0021774147171527147,0.00038798811146989465
1783696355340073200,7.6360732421875,0.000053742973250336945,0.0011140017304569483,0.0001970857265405357
1783696355350037000,7.646037109375,-0.0010426804656162858,-0.0010684587759897113,-0.0000564472284168005
1783696355360000300,7.656000244140625,-0.00031199108343571424,0.001944961491972208,0.000020823325030505657
1783696355369963300,7.66596337890625,-0.00028109841514378786,-0.00005533883813768625,0.0007127126445993781
1783696355379926300,7.67592626953125,-0.0005250315880402923,-0.00029107206501066685,-0.0009228693088516593
1783696355389890300,7.685890380859375,-0.0012528735678642988,0.0031883479095995426,0.0006497272988781333
1783696355399853300,7.695853271484375,-0.001722846645861864,0.0007449571276083589,-0.000570084317587316
1783696355409816300,7.70581640625,0.000007142749382182956,-0.000878772116266191,-0.00004916999023407698
1783696355419780400,7.7157802734375,-0.0006540405447594821,0.002695648930966854,0.0009838318219408393
1783696355429743400,7.725743408203125,-0.0006018425920046866,0.00020000082440674305,0.0006256366614252329
1783696355439706000,7.7357060546875,-0.00033466750755906105,-0.0007286597974598408,-0.0010902476496994495
1783696355449669000,7.745669189453125,0.00042513234075158834,0.0023899017833173275,-0.0007688039913773537
1783696355459633200,7.755633056640625,-0.0009882142767310143,-0.0010511978762224317,-0.000028290902264416218
1783696355469596200,7.76559619140625,0.000988384010270238,-0.0013571950839832425,0.0003645253600552678
1783696355479559200,7.77555908203125,-0.001268277526833117,0.0010345433838665485,-0.000044106156565248966
1783696355489522200,7.785522216796875,0.0021624064538627863,-0.0018722969107329845,-0.00026008847635239363
1783696355499486200,7.795486328125,-0.00018934044055640697,-0.0013764472678303719,0.0002606757916510105
1783696355509449200,7.80544921875,0.00046739508979953825,0.0018760712118819356,0.0011672158725559711
1783696355519412200,7.815412109375,0.0011207961943000555,-0.001671485137194395,0.00011366623220965266
1783696355529375000,7.825375,-0.00019054424774367362,0.00010670744813978672,-0.0010165793355554342
1783696355539339300,7.83533935546875,-0.0004966012202203274,0.0008972574141807854,0.00039442372508347034
1783696355549302000,7.845302001953125,-0.000980231212452054,-0.0015398013638332486,-0.00048228888772428036
1783696355559265300,7.855265380859375,0.0016539327334612608,0.0010543253738433123,0.0003843107260763645
1783696355569228300,7.865228271484375,-0.0008046975126489997,0.002332376316189766,-0.00023700471501797438
1783696355579192300,7.8751923828125,0.0008148960769176483,-0.000002450309693813324,-0.00041983730625361204
1783696355589155300,7.8851552734375,0.00021382063277997077,0.0011685416102409363,-0.0011916212970390916
1783696355599118600,7.89511865234375,-0.0015177185414358974,0.0014487756416201591,0.0006576565792784095
1783696355609081600,7.90508154296875,-0.000016228266758844256,-0.001918791444040835,-0.0003788457252085209
1783696355619045400,7.91504541015625,-0.00013662688434123993,0.0001939747016876936,0.00013843679334968328
1783696355629008600,7.925008544921875,0.0019843147601932287,-0.0008419948862865567,-0.0004400018369778991
1783696355638971400,7.934971435546875,-0.00043853334500454366,-0.0013581871753558517,-0.0012820421252399683
1783696355648934400,7.944934326171875,-0.000714703113771975,0.00044796871952712536,0.00015313533367589116
1783696355658898400,7.9548984375,-0.0013833813136443496,0.0010156146017834544,-0.001469095703214407
1783696355668861400,7.964861328125,0.0005079957190901041,-0.0022768513299524784,-0.0007005074294283986
1783696355678824400,7.974824462890625,0.0017602306324988604,0.0015132396947592497,0.0010659756371751428
1783696355688787500,7.984787353515625,-0.00023980338301043957,-0.00008625490590929985,0.00212831050157547
1783696355698751500,7.99475146484375,-0.0002029574243351817,-0.0016902831848710775,-0.0005436134524643421
1783696355708714500,8.004714599609375,0.0004311412340030074,0.0020847476553171873,-0.000015508616343140602
1783696355718677500,8.014677490234375,-0.0014920593239367008,-0.00024345878046005964,0.0016899592010304332
1783696355728640500,8.024640625,-0.0006028299685567617,0.0011464449344202876,-0.0009625492384657264
1783696355738604500,8.0346044921875,-0.00031583523377776146,0.0024933430831879377,-0.00047797965817153454
1783696355748567300,8.0445673828125,-0.0003475268604233861,-0.00037141924258321524,-0.0012665416579693556
1783696355758530300,8.0545302734375,-0.0013928002445027232,-0.00017539027612656355,-0.0007587259169667959
1783696355768493300,8.064493408203125,0.0011787480907514691,0.003277398180216551,-0.0015973553527146578
1783696355778457300,8.074457275390625,0.00013626492000184953,-0.0009759151143953204,0.0006472347304224968
1783696355788420400,8.08442041015625,0.00019165867706760764,-0.00030346703715622425,-0.0015583952190354466
1783696355798383400,8.09438330078125,-0.00046928744995966554,0.0025867209769785404,0.0008617028943262994
1783696355808346600,8.1043466796875,-0.0017041952814906836,-0.00022797391284257174,-0.0005489735631272197
1783696355818310400,8.114310302734374,0.0005754861631430686,-0.00021874811500310898,0.00015864410670474172
1783696355828273400,8.1242734375,-0.0003795233787968755,0.00005236163269728422,0.0013117928756400943
1783696355838236400,8.134236328125,0.0008607865311205387,-0.0025713853538036346,-0.00010778510477393866
1783696355848199400,8.144199462890626,-0.00034216325730085373,0.00041028985287994146,0.0006064746994525194
1783696355858163500,8.15416357421875,0.0002949307963717729,0.001566589344292879,-0.00025767681654542685
1783696355868126500,8.16412646484375,0.0006920081796124578,0.00037296058144420385,0.0002927986206486821
1783696355878089500,8.17408935546875,-0.0005632091779261827,0.00029845035169273615,-0.002138931304216385
1783696355888052500,8.184052490234375,0.0004522542003542185,0.0021709189750254154,-0.0002145310863852501
1783696355898015500,8.194015380859375,-0.0006085680797696114,-0.0019662014674395323,0.00029469450237229466
1783696355907979500,8.2039794921875,-0.00003146110975649208,0.0024144321214407682,-0.0020550123881548643
1783696355917942500,8.213942626953125,0.0009184419177472591,0.0009334603673778474,0.0003499585436657071
1783696355927905300,8.2239052734375,-0.0007961011724546552,-0.001257255906239152,-0.0005890720058232546
1783696355937868300,8.233868408203126,0.0023502674885094166,0.0017364080995321274,-0.00020344252698123455
1783696355947832300,8.243832275390625,0.0017433329485356808,-0.0016303601441904902,0.0010288020130246878
1783696355957795300,8.25379541015625,0.0015495459083467722,-0.001582717290148139,-0.0002814721083268523
1783696355967758300,8.26375830078125,-0.0006965640932321548,0.0022295978851616383,-0.0008495242800563574
1783696355977721300,8.273721435546875,0.0005209590890444815,-0.0009343335404992104,0.0015723926480859518
1783696355987685400,8.283685302734375,-0.00028757660766132176,-0.0028576685581356287,-0.0010047482792288065
1783696355997648400,8.2936484375,0.0007400085451081395,0.0018141553737223148,-0.0010526238474994898
1783696356007611400,8.303611328125,-0.0010573588078841567,0.001817351090721786,-0.000002273125573992729
1783696356017574700,8.31357470703125,-0.000998375820927322,-0.0012759077362716198,-0.0020102220587432384
1783696356027538400,8.323538330078126,0.0006852747173979878,0.0013342564925551414,-0.00017210852820426226
1783696356037501400,8.33350146484375,-0.001428299117833376,-0.00039365747943520546,-0.00033932621590793133
1783696356047464400,8.34346435546875,-0.0011958051472902298,-0.0014085881412029266,-0.001326293684542179
1783696356057427500,8.353427490234376,0.0012067612260580063,0.0005774599267169833,-0.00042077014222741127
1783696356067391500,8.3633916015625,-0.0014651883393526077,-0.0007663711439818144,0.0004551435122266412
1783696356077354500,8.3733544921875,0.0003285482816863805,-0.0019384546903893352,-0.0010360151063650846
1783696356087317500,8.3833173828125,-0.0008206057827919722,0.0007473432924598455,-0.0005593093810603023
1783696356097280500,8.393280517578125,-0.0009050965309143066,-0.0030445577576756477,0.001519143464975059
1783696356107244500,8.40324462890625,0.0008973308722488582,-0.00033958523999899626,-0.0018193951109424233
1783696356117207600,8.41320751953125,0.00035497325006872416,0.0005842235404998064,0.0003810890484601259
1783696356127170300,8.42317041015625,0.000622354622464627,-0.0011582828592509031,-0.0008287850068882108
1783696356137133300,8.43313330078125,-0.0002076395321637392,0.0009406234603375196,-0.00040189060382544994
1783696356147097300,8.443097412109376,0.0014930551405996084,0.0009398245019838214,0.0018492795061320066
1783696356157060400,8.453060302734375,0.0013749130303040147,-0.001181222964078188,-0.0004187558079138398
1783696356167023400,8.4630234375,-0.0007060810457915068,0.0006949739763513207,-0.0012203673832118511
1783696356176986400,8.472986328125,0.00017268655938096344,0.0004924527602270246,-0.000614448799751699
1783696356186950400,8.482950439453125,-0.0014811365399509668,-0.001809051027521491,-0.0013068706030026078
1783696356196913400,8.492913330078125,-0.0010398367885500193,0.0011382269440218806,0.00013621069956570864
1783696356206876400,8.50287646484375,0.0005529998452402651,0.00025911745615303516,0.0004440721240825951
1783696356216839400,8.51283935546875,-0.00006497935100924224,-0.001869085244834423,0.0005169290816411376
1783696356226803500,8.522803466796875,0.0016466343076899648,0.0007424106006510556,-0.00018641178030520678
1783696356236766500,8.532766357421876,-0.0006726080318912864,-0.0010402670595794916,0.0019819927401840687
1783696356246729500,8.5427294921875,-0.00037832875386811793,-0.0017270965036004782,0.00034947507083415985
1783696356256692500,8.5526923828125,-0.0016301331343129277,0.0014647380448877811,0.00016447249799966812
1783696356266656500,8.562656494140626,0.00048494935617782176,-0.00021172186825424433,0.0018190944101661444
1783696356276619500,8.57261962890625,0.000776515225879848,-0.0010306673357263207,0.0008249542443081737
1783696356286582500,8.58258251953125,-0.00015985225036274642,0.0028812498785555363,0.0008867395808920264
1783696356296545500,8.592545654296876,-0.0005157343111932278,-0.000745290657505393,0.000268711824901402
1783696356306509600,8.602509521484375,0.0004382100305519998,-0.002292587189003825,-0.0017494315980002284
1783696356316472600,8.61247265625,-0.0010246912715956569,0.0020266277715563774,-0.0007697585970163345
1783696356326435300,8.622435302734376,0.00013378381845541298,-0.00023519503884017467,0.0000342497369274497
1783696356336398300,8.6323984375,0.000023160770069807768,0.00035129173193126917,-0.000320419785566628
1783696356346362400,8.6423623046875,0.0006849563214927912,0.000907093461137265,-0.0006975234718993306
1783696356356325400,8.652325439453126,0.00012358371168375015,-0.0017563924193382263,-0.0010633665369823575
1783696356366288400,8.662288330078125,0.0012343882117420435,-0.0010860746260732412,-0.0022455439902842045
1783696356376251400,8.67225146484375,0.000009178431355394423,0.0014437418431043625,0.0009569266112521291
1783696356386215400,8.68221533203125,0.000049392154323868454,-0.0008029007585719228,0.0006509294034913182
1783696356396178400,8.692178466796875,0.0005323843797668815,-0.0001166642177850008,-0.0001234348164871335
1783696356406141400,8.702141357421874,0.0006026917835697532,0.0030919122509658337,-0.000015576835721731186
1783696356416104400,8.7121044921875,-0.00016616751963738352,-0.0003614275483414531,-0.0011104062432423234
1783696356426067500,8.7220673828125,0.0006887071649543941,0.001355512416921556,-0.0002869567833840847
1783696356436031200,8.73203125,-0.0004331000382080674,0.0019730525091290474,0.001170046627521515
1783696356445994500,8.741994384765626,-0.00012497228453867137,-0.0028355508111417294,-0.0002965561579912901
1783696356455957500,8.75195751953125,0.0002610769006423652,-0.0001401911722496152,0.0005350977880880237
1783696356465920500,8.76192041015625,0.0009236714104190469,0.002710989210754633,0.0011822459055110812
1783696356475884500,8.771884521484376,0.001570826512761414,-0.0022295985836535692,-0.0005701638292521238
1783696356485847600,8.78184765625,0.0006986412336118519,0.0003265033010393381,-0.001725176814943552
1783696356495810600,8.791810546875,-0.0006784925935789943,0.0003971019759774208,0.0007013001013547182
1783696356505773600,8.801773681640626,0.0018733483739197254,-0.0009299512021243572,0.00043098925380036235
1783696356515737600,8.811737548828125,0.0007695845561102033,0.0022809538058936596,-0.0010697651887312531
1783696356525700400,8.821700439453124,0.0021871852222830057,-0.00003280048258602619,-0.0006607036339119077
1783696356535663400,8.831663330078126,-0.0001897680340334773,-0.001210080343298614,-0.0018261454533785582
1783696356545626400,8.84162646484375,0.0007503277738578618,0.001542296726256609,0.00019759073620662093
1783696356555590400,8.85159033203125,0.0005881187971681356,0.0009555810247547925,0.000999762094579637
1783696356565553400,8.861553466796876,0.0003737343067768961,0.0003819360863417387,0.0012516971910372376
1783696356575516400,8.871516357421875,-0.0008374446770176291,0.001734845107421279,-0.0006660808576270938
1783696356585479200,8.881479248046874,-0.0003061440365854651,-0.000609002890996635,-0.000482322764582932
1783696356595443200,8.891443115234376,0.0011671395041048527,-0.0019966813270002604,-0.00025346141774207354
1783696356605406200,8.90140625,-0.000006249232683330774,0.002071297261863947,-0.0005120543064549565
1783696356615369200,8.911369140625,-0.0012823413126170635,-0.0000217013293877244,-0.0017713486449792981
1783696356625332500,8.92133251953125,-0.0019923399668186903,-0.0006960137980058789,0.00012482190504670143
1783696356635296300,8.931296142578125,-0.0007109683938324451,0.0019045635126531124,-0.0007878898177295923
1783696356645259300,8.94125927734375,-0.0007423936622217298,-0.000634494237601757,0.0011271893745288253
1783696356655222500,8.951222412109376,-0.00008709877147339284,-0.0009544632630422711,-0.0008839512011036277
1783696356665185500,8.961185546875,-0.001022933516651392,0.0015558323357254267,-0.0008045887807384133
1783696356675148300,8.971148193359374,-0.0005131525686010718,-0.0010473588481545448,0.0006726759602315724
1783696356685112300,8.9811123046875,0.0017337565077468753,-0.0012015558313578367,-0.001089537632651627
1783696356695075300,8.991075439453125,-0.00043347413884475827,0.00030554423574358225,0.0003804377047345042
1783696356705038300,9.001038330078124,0.0010941149666905403,-0.001962403766810894,0.0008970909402705729
1783696356715001300,9.01100146484375,0.0006668228888884187,-0.0002192335668951273,-0.00007369404193013906
1783696356724965400,9.02096533203125,0.001227418310008943,0.0010673394426703453,0.0019074315205216408
1783696356734928400,9.030928466796874,-0.0011175284162163734,-0.0026249552611261606,0.0005913364002481103
1783696356744891400,9.040891357421875,-0.0004522708186414093,-0.0004568758886307478,-0.0018981865141540766
1783696356754854400,9.0508544921875,0.000329248869093135,-0.0013353258837014437,0.0005841803504154086
1783696356764818400,9.060818359375,-0.0004372088878881186,-0.0027561222668737173,0.0009463702444918454
1783696356774781400,9.070781494140626,0.000849845411721617,-0.00005422125104814768,0.002208694815635681
1783696356784744200,9.080744140625,0.00002559710992500186,0.0014605846954509616,-0.0010781786404550076
1783696356794707200,9.090707275390624,-0.0008725787629373372,-0.0021805264987051487,0.000838971696794033
1783696356804671200,9.100671142578125,0.00005899494863115251,0.0007769138901494443,-0.0004356171702966094
1783696356814634200,9.11063427734375,0.0015428189653903246,-0.0004750443622469902,0.0003986383671872318
1783696356824597200,9.12059716796875,-0.000023652304662391543,-0.000509931705892086,0.0006444481550715864
1783696356834560500,9.130560546875,0.0003752644406631589,0.00013822969049215317,-0.0008086514426395297
1783696356844524300,9.140524169921875,-0.001019965624436736,-0.001498282654210925,0.0009050926892086864
1783696356854487300,9.1504873046875,-0.0005096495151519775,-0.0020943484269082546,0.00022511882707476616
1783696356864450600,9.160450439453125,-0.0005511948256753385,0.0012788113672286272,-0.0017195214750245214
1783696356874413300,9.170413330078125,-0.000646224245429039,-0.0010562536772340536,-0.0007135092746466398
1783696356884376300,9.180376220703126,0.0002195693668909371,-0.00105731887742877,-0.00036996148992329836
1783696356894340400,9.19034033203125,-0.0002621582825668156,0.003097941167652607,-0.0000076035503298044205
1783696356904303400,9.200303466796875,-0.0011748236138373613,0.0010766020277515054,-0.000052610994316637516
1783696356914266400,9.210266357421874,0.002161187119781971,-0.0010088784620165825,-0.0014016879722476006
1783696356924229400,9.2202294921875,0.0010325395269319415,0.0017155352979898453,-0.0008304398506879807
1783696356934193400,9.230193359375,-0.0007601823890581727,0.00037802523002028465,0.0012257215566933155
1783696356944156400,9.240156494140624,-0.0005194326513446867,-0.00009415321983397007,-0.001060335896909237
1783696356954119400,9.250119384765625,0.001067638979293406,0.0017987535102292895,-0.000817652209661901
1783696356964082200,9.260082275390625,0.0012356843799352646,-0.0004811786348000169,0.0005687893717549741
1783696356974046500,9.27004638671875,-0.00024642329663038254,0.0003102133050560951,-0.001032821019180119
1783696356984009200,9.28000927734375,-0.00016892531129997224,0.000050821457989513874,0.0013150216545909643
1783696356993972200,9.28997216796875,0.0004155219066888094,-0.0013585479464381933,0.0005782582447864115
1783696357003935200,9.299935302734376,-0.0015293846372514963,0.00035333214327692986,-0.0007424033246934414
1783696357013899300,9.309899169921875,0.0015390472253784537,0.001211332157254219,-0.0005304976366460323
1783696357031957500,9.32795751953125,0.00018996867584064603,0.0014991405187174678,-0.0007967196870595217
1783696357041921300,9.33792138671875,-0.0009727674187161028,0.001130559016019106,0.0012344731949269772
1783696357051884300,9.34788427734375,-0.0006927732611075044,-0.0008619107538834214,-0.0021136263385415077
1783696357061847600,9.35784765625,0.000018557067960500717,0.00040788447950035334,-0.0017309304093942046
1783696357071810300,9.367810302734375,0.00009312239126302302,0.000033908290788531303,-0.000488845631480217
1783696357081774600,9.377774658203125,0.0002739510382525623,-0.0025472273118793964,-0.0022712992504239082
1783696357091737300,9.3877373046875,0.00015459529822692275,0.0026079099625349045,0.0008567479671910405
1783696357101700400,9.397700439453125,-0.0012134704738855362,-0.00021876918617635965,-0.0014018788933753967
1783696357111663400,9.407663330078124,-0.00014703204215038568,-0.0008789227576926351,0.00040152715519070625
1783696357121627400,9.41762744140625,0.0014529951149597764,0.0007338876603171229,0.00020471960306167603
1783696357131590400,9.42759033203125,0.0006108425441198051,0.0007027224637567997,0.0010311354417353868
1783696357141553400,9.437553466796874,-0.0008150138892233372,-0.0016784097533673048,0.0015485876938328147
1783696357151516400,9.447516357421875,0.0003853015077766031,0.0018661865033209324,-0.0006655126344412565
1783696357161479400,9.4574794921875,0.0002902266860473901,0.0023191901855170727,0.0016969775315374136
1783696357171443500,9.467443359375,-0.0004226494929753244,-0.00011885049752891064,-0.00022066268138587475
1783696357181406200,9.47740625,-0.000027170084649696946,0.0011339003685861826,-0.0006038915598765016
1783696357191369200,9.487369140625,-0.0010605341522023082,-0.0012384383007884026,0.0007031384739093482
1783696357201332200,9.497332275390624,-0.0011939584510400891,-0.0008546768222004175,-0.0000025992048904299736
1783696357211296300,9.507296142578125,0.0009642732329666615,0.0006509075174108148,0.0002510054036974907
1783696357221259300,9.51725927734375,-0.0008685141801834106,-0.0007597688818350434,0.001245696097612381
1783696357231222300,9.52722216796875,-0.000790037214756012,-0.0012800678377971053,-0.0006072043906897306
1783696357241185500,9.537185546875,-0.0004510167636908591,0.0012512666871771216,0.00024021347053349018
1783696357251149300,9.5471494140625,-0.0008721249178051949,-0.0011245609493926167,0.0012522258330136538
1783696357261112600,9.557112548828124,-0.0011626757914200425,-0.0009892723755910993,-0.0006585922092199326
1783696357271075300,9.567075439453125,-0.0005089582409709692,0.002346653491258621,-0.00015641609206795692
1783696357281038300,9.577038330078125,-0.0011284095235168934,-0.001137293758802116,0.0008057840168476105
1783696357291001300,9.58700146484375,0.0006026534829288721,-0.0003296510549262166,-0.0004576443461701274
1783696357300965400,9.59696533203125,-0.000204550611670129,0.0019500148482620716,0.000009474111720919609
1783696357310928400,9.606928466796875,0.0003751336189452559,-0.0005124103045091033,0.0008472534827888012
1783696357320891400,9.616891357421874,0.0006579612381756306,0.002414669841527939,-0.0016486612148582935
1783696357331477500,9.6274775390625,-0.0003676526539493352,0.00034588866401463747,-0.0015441130381077528
1783696357341440500,9.6374404296875,-0.0015655425377190113,-0.0017095390940085053,-0.0000506123760715127
1783696357351403500,9.647403564453125,0.00012746002175845206,-0.00036812073085457087,0.0003643438685685396
1783696357361367600,9.657367431640624,-0.0002874604833777994,-0.0021527050994336605,-0.00023353577125817537
1783696357371330300,9.667330322265625,-0.00011938187526538968,-0.0009985599899664521,0.0003854737151414156
1783696357381293300,9.677293212890625,-0.00046346228918991983,0.0012102656764909625,-0.0007269285852089524
1783696357391256300,9.68725634765625,0.00020202653831802309,0.0013854126445949078,-0.0009292630711570382
1783696357401220400,9.697220458984376,0.00012239799252711236,-0.0014782844809815288,0.0006262892857193947
1783696357411183400,9.707183349609375,-0.0010215654037892818,0.0010954065946862102,0.00015869468916207552
1783696357421146400,9.717146484375,0.0002916393568739295,0.0014882228570058942,0.0002551011275500059
1783696357431109400,9.727109375,-0.00045365880941972136,-0.001254724571481347,0.00040884758345782757
1783696357441073400,9.737073486328125,0.0010923061054199934,0.0008201443124562502,0.001915397820994258
1783696357451036400,9.747036376953124,-0.0018772701732814312,-0.000815723673440516,0.0011657706927508116
1783696357460999200,9.756999267578125,-0.0008317130850628018,-0.0017904405249282718,-0.0010398592567071319
1783696357470962200,9.766962158203125,0.0006517942529171705,0.0010648919269442558,0.0013938406482338905
1783696357480926200,9.77692626953125,0.0009271650342270732,-0.001067234785296023,-0.00011830218136310577
1783696357490889200,9.78688916015625,0.00030017789686098695,-0.0007804315537214279,0.0013985156547278166
1783696357500852200,9.796852294921875,-0.0006058294675312936,0.003416976425796747,0.00025335641112178564
1783696357510815500,9.8068154296875,-0.000022925814846530557,0.00010907021351158619,0.0012764527928084135
1783696357520779300,9.816779296875,-0.0001219954137923196,-0.0005982654402032495,-0.0006713831098750234
1783696357530742500,9.826742431640625,0.0004152856708969921,-0.00025617575738579035,0.00011403090320527554
1783696357540705500,9.83670556640625,-0.0006981819751672447,-0.0028634103946387768,-0.0002540179993957281
1783696357550668300,9.846668212890625,-0.0010070803109556437,0.0003274757182225585,0.0012908106436952949
1783696357560632600,9.856632568359375,0.0014403646346181631,0.0007634351495653391,0.00019598507788032293
1783696357570595600,9.866595703125,0.00046634607133455575,-0.0012875845422968268,0.0007430046098306775
1783696357580558600,9.87655859375,0.0007893875008448958,-0.00021246634423732758,0.000045789056457579136
1783696357590521600,9.886521484375,-0.0004477933398447931,0.0013541377848014235,0.0011567628243938088
1783696357600484600,9.896484619140624,-0.0014542018761858344,-0.0008261922048404813,0.0012315977364778519
1783696357610448600,9.90644873046875,0.0004921138170175254,0.00025842536706477404,-0.0019474523141980171
1783696357620411600,9.91641162109375,-0.0004567704745568335,0.0020310254767537117,0.0005921381525695324
1783696357630374700,9.926374755859374,-0.000016821955796331167,-0.0018779218662530184,-0.0008336375467479229
1783696357640337400,9.93633740234375,0.0012143573258072138,0.0009655351168476045,-0.00014015042688697577
1783696357650301400,9.946301513671875,0.0004629928444046527,0.001713270554319024,-0.00040603603702038527
1783696357660264400,9.956264404296874,0.0003479442384559661,-0.0013341845478862524,-0.00030616740696132183
1783696357670227500,9.9662275390625,-0.0015201938804239035,0.0009112371481023729,-0.00016908999532461166
1783696357680190500,9.9761904296875,-0.0012711883755400777,0.0005397262284532189,0.0009361217962577939
1783696357690154500,9.986154541015624,-0.0006421084399335086,-0.002434710506349802,0.0004592646728269756
1783696357700117500,9.996117431640625,-0.0010618226369842887,0.0017941228579729795,0.0010829769307747483
1783696357710080500,10.00608056640625,-0.0009715648484416306,-0.00007429218385368586,0.000175063731148839
1783696357720043800,10.016043701171874,-0.0004647653258871287,-0.0012934872647747397,-0.0012683696113526821
1783696357730007600,10.026007568359375,0.00042169069638475776,0.0005216301651671529,-0.0011848794529214501
1783696357739970600,10.035970458984375,-0.0024470663629472256,0.00015438033733516932,-0.00018859084229916334
1783696357749933600,10.04593359375,0.0002036741643678397,-0.00288568576797843,-0.0028025549836456776
1783696357759896600,10.055896484375,-0.0002469327300786972,0.0023852428421378136,-0.0014310270780697465
1783696357769860600,10.065860595703125,-0.0070430985651910305,0.06387504935264587,0.05486317351460457
1783696357779823600,10.07582373046875,-0.009289475157856941,0.19882939755916595,0.22882750630378723
1783696357789786600,10.08578662109375,-0.00516735902056098,0.094153992831707,0.15349940955638885
1783696357799749600,10.09574951171875,-0.0006248051067814231,-0.10040509700775146,-0.038900651037693024
1783696357809713700,10.105713623046874,0.00458131218329072,-0.12106093019247055,-0.1535566747188568
1783696357819676700,10.1156767578125,0.007521708030253649,-0.05336363986134529,-0.14489687979221344
1783696357829639700,10.1256396484375,0.006617873441427946,-0.019763711839914322,-0.09836865961551666
1783696357839602400,10.1356025390625,-0.0008674734272062778,-0.03612910583615303,-0.053194258362054825
