time,seconds_elapsed,z,y,x
1783696337080059100,0.06405908203125,-0.0804658678561449,-0.026653430984728037,0.006359305898845195
1783696337090022000,0.07402197265625,-0.18246727569401264,0.0064835533330217,-0.06514237078968435
1783696337099985000,0.08398486328125,-0.003606500059366226,0.0076185852449387305,-0.020366459669731555
1783696337109949000,0.093948974609375,0.1434504395574331,-0.005329853253252804,0.06223758925888687
1783696337119912000,0.103911865234375,-0.016247370445728302,-0.01568900591060519,0.023573548615351318
1783696337129875000,0.113875,-0.18711130210757254,0.013091281034983695,-0.058780142281390724
1783696337139838000,0.123837890625,-0.08996668665111064,0.026637831556797026,-0.010566657928191125
1783696337149802000,0.133802001953125,0.08106324922740459,-0.02654847277291119,0.049549737925641234
1783696337159765000,0.143764892578125,0.04302899438738823,-0.014518756554834544,-0.008024791425652801
1783696337169728000,0.15372802734375,-0.1039110408514738,0.02271788163408637,-0.022087730504386126
1783696337179692000,0.163692138671875,-0.10570084687769413,0.0024229528306052087,0.007201565409265458
1783696337189654800,0.17365478515625,0.022383681243658065,-0.01864920742306858,0.021024996643699705
1783696337199617800,0.18361767578125,0.015959201154112816,0.009614690965600312,0.003554221882857382
1783696337209580800,0.193580810546875,-0.07157996608912945,0.018387012822926044,-0.009196246357820927
1783696337219544800,0.203544921875,-0.05259527963399887,0.01067274865116924,0.013404182909056544
1783696337229507800,0.2135078125,-0.013543372184038161,-0.01509728709515184,0.015101744074560702
1783696337239470800,0.223470947265625,-0.03836217162013054,-0.019014204810559748,-0.006416771707125008
1783696337249435000,0.233434814453125,-0.05735913303494453,0.010094619969651102,-0.011953545709326862
1783696337259398000,0.24339794921875,-0.005748188263177871,-0.004572130221128463,0.018415727460756898
1783696337269361000,0.25336083984375,0.004126724541187286,-0.014888393584825098,0.005633804635889828
1783696337279324200,0.26332421875,-0.041946459847688675,0.0007796426029875874,-0.015898191681876776
1783696337289288000,0.273287841796875,-0.05540332279205322,0.01921308838352561,-0.005612761847861111
1783696337299251000,0.2832509765625,-0.020393384209275243,-0.0015926029536873101,-0.0052033407967537635
1783696337309214000,0.2932138671875,0.01955751790702343,-0.012686390028521418,0.015294051776267588
1783696337319178000,0.303177978515625,-0.05809387705028057,-0.002083418677933514,-0.00048321693968027827
1783696337329141000,0.31314111328125,-0.057795186364650725,-0.0008935513062402605,-0.007091017706878483
1783696337339104000,0.32310400390625,0.004602525359392166,0.008523826988972723,0.0008771846933290361
1783696337349067000,0.33306689453125,-0.0027238720059394833,-0.009760054253041744,0.00872545050829649
1783696337359031000,0.343031005859375,-0.042533319824934,-0.006557751080393791,-0.015121471688337624
1783696337368994000,0.352994140625,-0.048077509948611256,0.0013359247788786888,-0.012666406686417758
1783696337378957000,0.36295703125,-0.02083411371409893,-0.014309826511889695,0.019652137387916446
1783696337388921000,0.372921142578125,-0.014987725773453711,-0.0052704146835952995,0.004711904017999768
1783696337398884000,0.382884033203125,-0.03190320473909378,0.02001191061101854,0.0002564224464818835
1783696337408846800,0.392846923828125,-0.05300269139111042,-0.006207695533707738,0.008641388954035937
1783696337418811000,0.402810791015625,-0.02965805616080761,-0.011433759618923067,0.011293328234925865
1783696337428774000,0.41277392578125,-0.016785715106129646,0.000778802352771163,0.004590250399708748
1783696337438737000,0.42273681640625,-0.03713292208611965,-0.002102415639348328,0.005579261437058449
1783696337448700000,0.432699951171875,-0.034143677142262456,-0.010702888061106204,-0.007429784674569964
1783696337458664000,0.442663818359375,-0.01244154842197895,-0.0013325637780129908,0.0020851722436025736
1783696337468627000,0.452626953125,-0.042218262526392936,-0.014242387298867105,-0.005227013933286071
1783696337478590000,0.46258984375,-0.03639116380810738,-0.012842786166630685,0.007673712965659797
1783696337488554000,0.472553955078125,-0.02590834823846817,-0.0025990400498732925,0.01995528505295515
1783696337498517000,0.48251708984375,-0.016919570618867872,-0.02136628436204046,0.005983933247812092
1783696337508479700,0.492479736328125,-0.020213351467251776,0.00036598376818001267,-0.00010324117876589298
1783696337518442800,0.50244287109375,-0.03667173431515693,0.00854088772162795,-0.005164068232290446
1783696337528406800,0.51240673828125,-0.03771627493202686,-0.012222681506909428,0.006218655319139361
1783696337538370300,0.522370361328125,-0.0052460839599370954,-0.009321589770540595,0.0014351473696529865
1783696337548333300,0.532333251953125,-0.026938860329985617,-0.012261333016864955,0.007275142102129757
1783696337558297300,0.54229736328125,-0.043242929399013516,-0.005867649924382567,0.00340399975720793
1783696337568260400,0.55226025390625,-0.015863339564204215,-0.011056414206512271,-0.004481492795608937
1783696337578223400,0.562223388671875,-0.029625322934985158,-0.003936462666094303,0.012825469705648719
1783696337588186600,0.5721865234375,-0.02767711147665977,-0.001016812359727919,0.0035683965386822817
1783696337598150400,0.582150390625,-0.02827858450114727,-0.0010025281060487032,-0.0013161606324836612
1783696337608113400,0.592113525390625,-0.02917348751425743,-0.003816964472271502,0.01158580837547779
1783696337618076700,0.60207666015625,-0.03636544484496117,-0.015514964517951011,0.0015220584681257606
1783696337628040400,0.61204052734375,-0.02260521503984928,0.004592113563232123,-0.005109232772514224
1783696337638003500,0.62200341796875,-0.04714928918778896,-0.003654065528139472,0.012763071993924676
1783696337647966500,0.631966552734375,-0.017676526466012,-0.020019801656529307,-0.0011035773277282715
1783696337657929500,0.641929443359375,-0.014691373175382614,-0.0075530822606757276,0.005033244926854968
1783696337667893500,0.6518935546875,-0.0404243648469448,-0.012658771369233726,0.004325827309861779
1783696337677856500,0.6618564453125,-0.04147416616082191,-0.0013645663514733313,-0.009619367140717804
1783696337687819500,0.671819580078125,-0.024117957690358162,0.0072459525402635335,0.0005510945441201329
1783696337697783600,0.681783447265625,-0.03923369375765323,-0.00538943795338273,0.00979249521791935
1783696337707746600,0.69174658203125,-0.0425292281717062,-0.003487403724342584,-0.0023188348690047858
1783696337717709600,0.70170947265625,-0.01394727680981159,0.00006616057138890028,-0.0018547244885936379
1783696337727672300,0.71167236328125,-0.0342898076146841,0.006092836982384324,-0.0019507687415927647
1783696337737636400,0.72163623046875,-0.02845627915561199,-0.013205445466563106,-0.016400113322027027
1783696337747599400,0.731599365234375,-0.01872574325799942,0.005573379685543477,0.01081836766693741
1783696337757562400,0.741562255859375,-0.029347090515494344,-0.021199987884424627,-0.0008056903596967459
1783696337767526400,0.7515263671875,-0.014987725773453711,0.0018289689928293227,-0.006303885917179286
1783696337777489400,0.761489501953125,-0.021416882038116453,0.001902070761658251,0.010698431081697345
1783696337787452400,0.771452392578125,-0.04595569548904895,-0.010885478086397051,0.011448263068310916
1783696337797415400,0.78141552734375,-0.02381342178583145,-0.0036879312651231884,-0.0028190394761040804
1783696337807379500,0.79137939453125,-0.011090133813023567,-0.005590623081289232,-0.0012060147888958454
1783696337817342500,0.801342529296875,-0.03817161748409271,-0.003175853557139635,-0.0011690072467550635
1783696337827305500,0.811305419921875,-0.0378758494079113,-0.0023141586938872933,0.0019750629326328634
1783696337837269500,0.82126953125,-0.0311398191511631,-0.006191584649123251,0.0035343846712261435
1783696337847232300,0.831232177734375,-0.01856441521644592,-0.009553023906238377,0.007645254056155681
1783696337857195300,0.8411953125,-0.026198855617642403,0.0018395269194617866,0.00021824586056172845
1783696337867158500,0.851158447265625,-0.03397241222858429,0.005069083425216376,0.004276508275419474
1783696337877122300,0.861122314453125,-0.04130699290037155,-0.005347644638270139,0.00381371306926012
1783696337887085300,0.871085205078125,-0.013929156631231307,-0.0016533566975966095,-0.015010704790242016
1783696337897048600,0.881048583984375,-0.024697803404927252,-0.005713080417178571,0.0019364479552954434
1783696337907012400,0.891012451171875,-0.042811552244424816,-0.015939144746772944,-0.003074475541897118
1783696337916975600,0.9009755859375,-0.013335866913199424,-0.004647679675370455,-0.0027255890389904377
1783696337926938600,0.910938720703125,-0.0236544318318367,-0.008609276782721281,0.005555953626707196
1783696337936901400,0.9209013671875,-0.026648352950811385,-0.02225044678542763,-0.010989048058725893
1783696337946865700,0.93086572265625,-0.01856616878211498,-0.006181282450817525,0.006896664178557693
1783696337956828400,0.940828369140625,-0.038463878428936005,-0.015753157187998294,0.010504808205738663
1783696337966791400,0.95079150390625,-0.035173020190000535,-0.013383761175535618,-0.00468720796816051
1783696337976755500,0.96075537109375,-0.022308862441778182,-0.00883165082912892,-0.012064093411713838
1783696337986718500,0.970718505859375,-0.03831716343462467,-0.005965411210432648,0.0024831951178610322
1783696337996681500,0.980681396484375,-0.028290274938941,-0.009411533076316118,-0.011167948289588094
1783696338006644500,0.99064453125,-0.02499064887166023,-0.0025755861090496182,-0.001987264827080071
1783696338016608500,1.0006083984375,-0.03890226984620094,-0.0037934739988297224,0.0022492767641320824
1783696338026571500,1.010571533203125,-0.029627076500654218,0.0017657675635069608,0.0063205813236534595
1783696338036534500,1.020534423828125,-0.03262041309773922,-0.0014933803629130125,0.01393025260977447
1783696338046498600,1.03049853515625,-0.025440146204829213,0.0032066140215843914,0.00044803602844476696
1783696338056461300,1.04046142578125,-0.022303601744771,0.012541684328205883,0.010267163524962961
1783696338066424300,1.05042431640625,-0.028133623072504995,0.010064918951131404,0.003924187706410885
1783696338076387300,1.06038720703125,-0.024391513934731483,-0.009217216080613435,0.0017709917278960347
1783696338086351400,1.070351318359375,-0.022000234884023664,0.0045184272725135085,-0.00020381547641009091
1783696338096314400,1.080314453125,-0.028429975670576094,-0.0009046572221443057,0.011232245697453618
1783696338106277400,1.09027734375,-0.04623334338665008,-0.01286065061688423,-0.006249123522639274
1783696338116240400,1.100240478515625,-0.03336860111653805,-0.009891315949894487,-0.00998436452820897
1783696338126204400,1.110204345703125,-0.02109071882367134,-0.0022456600349396467,0.012270612301863729
1783696338136167400,1.12016748046875,-0.042481881898641584,-0.010964680802449583,0.0013365823660045862
1783696338146130700,1.130130615234375,-0.01883855598270893,0.007671265280246734,-0.0054675446908921
1783696338156094500,1.140094482421875,-0.024365794971585274,-0.0008187325043603778,0.010869257603958248
1783696338166057500,1.150057373046875,-0.045912440869212146,-0.013662943443097174,0.001677102899365127
1783696338176020500,1.1600205078125,-0.029154782813787458,-0.01069981932118535,0.001768178716301918
1783696338185983500,1.1699833984375,-0.02556055771410465,-0.0032320772564038633,0.00993245167788118
1783696338195947500,1.179947509765625,-0.031847675159573555,-0.0010974033152684568,-0.015337379461340605
1783696338205910500,1.18991064453125,-0.023164017966389654,0.007578472430258989,-0.004644099478796124
1783696338215873500,1.19987353515625,-0.028844401690363883,-0.005288023405522107,0.002815495812147856
1783696338225837600,1.209837646484375,-0.040219197663664816,-0.004062098339758813,-0.01512158128619194
1783696338235800600,1.219800537109375,-0.034979543444514274,-0.011038586288876832,-0.004284180125221609
1783696338245763600,1.229763671875,-0.03482289157807827,-0.010799772564321755,-0.001115340830758214
1783696338255726300,1.239726318359375,-0.03497428274750709,-0.003919730727002024,-0.006895385536924004
1783696338265690400,1.2496904296875,-0.020012860459089277,-0.001073803243972361,0.006781769094616174
1783696338275653400,1.2596533203125,-0.027497078734636304,-0.0026974223904311654,0.016846066991239785
1783696338285616400,1.269616455078125,-0.02764846990406513,-0.007179024783894419,-0.010050671230070292
1783696338295580400,1.279580322265625,-0.0215150817155838,0.014352240881510077,0.002903064497746527
1783696338305543400,1.28954345703125,-0.05383621960580349,-0.004316840285807848,-0.0023987682374194265
1783696338315506400,1.29950634765625,-0.027805121770501134,-0.0039869142116978765,-0.002418715046904981
1783696338325469400,1.309469482421875,-0.038131285473704334,0.00332636794373393,0.0009229235311970114
1783696338335433500,1.31943359375,-0.039029111096262926,-0.013096980123408137,-0.0009157996706664562
1783696338345396500,1.329396484375,-0.02616670691370964,-0.007071947680227458,0.00055971624199301
1783696338355359500,1.339359375,-0.037976387172937394,-0.012333594535477459,0.010636544826626777
1783696338365323500,1.349323486328125,-0.033034254595637316,-0.01743990469854325,0.010236183864809572
1783696338375286300,1.359286376953125,-0.02001812115609646,0.0068054056985303755,-0.009760383046604692
1783696338385249300,1.369249267578125,-0.03602057693004608,0.002221804235316813,0.016165646979026494
1783696338395212300,1.37921240234375,-0.046042789250612254,-0.007090542782843112,0.0005349836595356464
1783696338405176300,1.38917626953125,-0.029737551137804984,-0.0063750514572486275,-0.0012166092481464147
1783696338415139300,1.399139404296875,-0.039757425370812415,-0.006583250847831368,0.005883760808967054
1783696338425102600,1.4091025390625,-0.04604162020683288,-0.0057035088712349535,-0.001495828048326075
1783696338435066400,1.41906640625,-0.020308044013381002,-0.012972257765196263,-0.00668904930986464
1783696338445029400,1.429029296875,-0.03406301312148571,0.006372384576126933,-0.0040398499753326175
1783696338454992600,1.43899267578125,-0.055013446691632266,-0.007474354468658566,-0.0014047156987711787
1783696338464955400,1.448955322265625,-0.0195499191224575,-0.0002917860208079219,0.006690949006006122
1783696338474919700,1.458919677734375,-0.03421265072524547,0.009877762348577379,0.008137421487271786
1783696338484882400,1.46888232421875,-0.028079262536764144,-0.0064347092226147646,0.0002642404267564416
1783696338494845400,1.478845458984375,-0.015962123763561247,0.003427197969704866,-0.014431114803999662
1783696338504809500,1.4888095703125,-0.043643911415338514,0.00208440505862236,-0.0032403701607137915
1783696338514772500,1.4987724609375,-0.0363157604843378,-0.009891389015130697,-0.00956310690883547
1783696338524735500,1.508735595703125,-0.030334347987174985,-0.003311316505074501,0.004933912738226354
1783696338534698500,1.518698486328125,-0.042755438143014905,-0.024607531305588782,0.009170636992529034
1783696338544662000,1.528662109375,-0.03048749272227287,-0.005617803349159658,-0.0058643254561349745
1783696338554625000,1.538625,-0.02868716530203819,-0.002756751362234354,-0.006708265466988086
1783696338564588000,1.548588134765625,-0.028829204121232032,-0.015867175489105285,0.010250869977287948
1783696338574551000,1.558551025390625,-0.028235914403200148,-0.018983480878733097,-0.009839804958365858
1783696338584515000,1.56851513671875,-0.03227437613904476,-0.0016914236856624483,-0.010254011782445014
1783696338594478000,1.57847802734375,-0.03720949445366859,-0.016079868391714987,0.010339132782630623
1783696338604441000,1.588441162109375,-0.025392215409874914,-0.001114281384833157,-0.010491071941331028
1783696338614405000,1.598405029296875,-0.03706453302502632,-0.007701404690183699,-0.0038812984127551313
1783696338624367900,1.608367919921875,-0.040652328383922576,-0.014577172211185097,0.007825177200324832
1783696338634331000,1.618330810546875,-0.009979542222619056,-0.0046243353324010965,-0.003958089976012706
1783696338644294100,1.628294189453125,-0.034061844077706335,0.0034384134834632278,0.009911737683415413
1783696338654258000,1.6382578125,-0.03884907835423946,-0.014619732711277901,0.013708682280965149
1783696338664221000,1.648220947265625,-0.02269406236708164,-0.011886654485575854,-0.003982895623706281
1783696338674184200,1.65818408203125,-0.01640636039972305,0.006766023536212742,0.017390074207447467
1783696338684148000,1.66814794921875,-0.0366080214291811,0.0032051892494782803,-0.000280168648250401
1783696338694111200,1.678111328125,-0.027639702075719832,0.0020633988032117486,-0.005161839742586017
1783696338704074200,1.68807421875,-0.02225099477469921,-0.003009118688106537,0.009585611001588404
1783696338714037200,1.698037353515625,-0.02509352472424507,-0.018712554982863366,-0.0061550154983997345
1783696338724001300,1.708001220703125,-0.029884850654006003,-0.003744556823186576,-0.0048887584222480655
1783696338733964000,1.717964111328125,-0.04483925867974758,-0.00329085823893547,0.004010843076556921
1783696338743927000,1.727927001953125,-0.024483283871412277,-0.021457871635630725,0.003799867206998169
1783696338753891000,1.73789111328125,-0.017450316494703293,-0.004913271808996796,0.009570559562928974
1783696338763854000,1.74785400390625,-0.04108604362607002,-0.006227934604138135,-0.005435651715286076
1783696338773817000,1.757817138671875,-0.018638064974546432,-0.0017665347484871743,0.014878383647464214
1783696338783780000,1.767780029296875,-0.01744505579769611,-0.0017752295115962624,0.009920542044378816
1783696338793744100,1.777744140625,-0.03884557122290134,-0.012479725007899106,0.006015095571056008
1783696338803707100,1.78770703125,-0.03151917385756969,-0.01794737929664552,-0.0015444164304062723
1783696338813670100,1.797670166015625,-0.01969429602921009,0.0016142667962238191,0.004397065915167331
1783696338823634200,1.80763427734375,-0.037948330122232435,-0.010745412028580903,0.01219641455449164
1783696338833597200,1.81759716796875,-0.0304687880218029,-0.010577983039803802,-0.006621719694696366
1783696338843560000,1.827559814453125,-0.02388181084692478,-0.0021447204111143944,-0.0008939166324213147
1783696338853523000,1.83752294921875,-0.04692483278214931,-0.014947978284955024,0.013200367432646453
1783696338863487000,1.847487060546875,-0.025828268739581106,0.008643763574212789,-0.015391739997081457
1783696338873450000,1.857449951171875,-0.023283844953775404,0.0030887232629582284,-0.001466528888605535
1783696338883413000,1.8674130859375,-0.04961538704037666,-0.014115472983568906,0.009463226730935276
1783696338893377000,1.877376953125,-0.024036124625802038,-0.003990019484236836,0.008085727832652628
1783696338903340000,1.887340087890625,-0.00817687671482563,0.0076582231355831025,0.006985584571026265
1783696338913303000,1.897302978515625,-0.041996728730201716,-0.019474187005124984,-0.0005692877879366279
1783696338923266000,1.90726611328125,-0.034227848294377326,0.0006982479298487305,-0.004126870671659707
1783696338933230000,1.91722998046875,-0.02150982101857662,0.004839402855187654,0.00465480353590101
1783696338943192800,1.92719287109375,-0.028993454772233963,-0.016408698487281798,-0.0012764862092211843
1783696338953156000,1.937156005859375,-0.02466039400398731,-0.004727649576403201,-0.013234561963193118
1783696338963119000,1.947119140625,-0.021816695010662076,-0.006992343105375766,0.002190020857565105
1783696338973083100,1.957083251953125,-0.034681437280774115,-0.012539565436355768,0.01301861765757203
1783696338983046100,1.967046142578125,-0.0351350262671709,-0.008626520178467035,0.000992591233924031
1783696338993009200,1.977009033203125,-0.04246609980762005,-0.002503945644944906,0.00442136010620743
1783696339002973200,1.98697314453125,-0.032441549399495125,-0.012078231534920632,0.0038481267955154178
1783696339012936200,1.996936279296875,-0.03064998980760574,-0.022391170430369672,0.0037977483151480553
1783696339022899200,2.006899169921875,-0.03677870182096958,0.0034544878354296087,0.009356624551303684
1783696339032862200,2.0168623046875,-0.029896541091799733,-0.009123509915173054,-0.0062973831111565225
1783696339042826200,2.026826171875,-0.014629998376965521,-0.0006039572425186634,0.000693937080912292
1783696339052789000,2.0367890625,-0.04141279136240482,0.009531542726792394,0.0011290405625477432
1783696339062752000,2.046751953125,-0.033790041399002074,-0.012532331977970898,-0.007708090159296989
1783696339072716000,2.056716064453125,-0.025714286971092223,0.002289645307138562,-0.008485577337816358
1783696339082679000,2.066678955078125,-0.029901801788806914,-0.007846000792644917,-0.0015669935883954166
1783696339092642000,2.07664208984375,-0.03140285400152206,-0.01716561780180782,-0.002922061459161341
1783696339102605000,2.08660498046875,-0.02571662505865097,-0.009871332607790826,0.014186200132220982
1783696339112569000,2.096569091796875,-0.043674891075491905,-0.0092331808347255,0.0044462388191372154
1783696339122532000,2.106531982421875,-0.032605215528607366,-0.0047432124717161055,-0.01864062225781381
1783696339132495000,2.1164951171875,-0.013298457512259483,-0.0009510901797562837,-0.0003473521329462528
1783696339142459100,2.126459228515625,-0.027512860825657844,-0.02769402607884258,0.0040437589654698965
1783696339152422100,2.136422119140625,-0.029158874467015265,-0.004062427133321762,-0.009251227948069572
1783696339162385000,2.146385009765625,-0.015240239229798317,-0.001659713373146951,-0.007692198470421135
1783696339172348000,2.156347900390625,-0.028107904109358785,-0.0019247575175017117,0.0051041182059794665
1783696339182312000,2.16631201171875,-0.02886193734705448,-0.005271108803339302,0.0034864538762718437
1783696339192275000,2.17627490234375,-0.022726795592904088,0.013551884284056723,0.00876709769293666
1783696339202238200,2.18623828125,-0.02796703433394432,-0.005825016359053552,0.010110694321617484
1783696339212201200,2.196201171875,-0.026480010646581648,-0.0015132541071623564,-0.016270166799426077
1783696339222165000,2.2061650390625,-0.024382746106386185,0.004392864664085209,0.0028669702710583805
1783696339232128300,2.216128173828125,-0.029626491978764533,-0.023258856642991304,0.00521053772252053
1783696339242091300,2.22609130859375,-0.03247545166909695,0.009151274704933167,-0.004479666164703667
1783696339252055300,2.23605517578125,-0.04848609074950218,-0.009218019798211753,0.004736453937366604
1783696339262018000,2.24601806640625,-0.045939913398027415,0.005200454719923436,0.001609809816814959
1783696339271981000,2.25598095703125,-0.009432429733872413,-0.009855294788442551,-0.008769691508822142
1783696339281944000,2.265944091796875,-0.04160276097655296,-0.014203443527966738,0.00958586672991514
1783696339291908000,2.275908203125,-0.041755321189761156,-0.007587532519549131,-0.01146598138809204
1783696339301871000,2.28587109375,-0.019911153650283814,-0.0024945932947099208,-0.0071996291805058715
1783696339311834000,2.295834228515625,-0.03531622805297375,-0.011483224783837795,-0.0008163213515654206
1783696339321798100,2.305798095703125,-0.03756371471881866,-0.021684994922392068,-0.00009593465514481067
1783696339331761200,2.31576123046875,-0.006899111863970756,-0.006294752762652933,0.005282251251861453
1783696339341724200,2.32572412109375,-0.03622749767899513,0.00002539016958326101,0.009719283851236105
1783696339351687000,2.33568701171875,-0.028003859212994572,-0.0014035466549918055,-0.0008235182773321867
1783696339361651200,2.345651123046875,-0.02606032392978668,0.003655892159044742,-0.004178199000097811
1783696339371614000,2.355614013671875,-0.03967208517491817,0.014016506121121345,0.005350640312954783
1783696339381577000,2.365576904296875,-0.02681201907992363,-0.0039017201462760564,-0.0037635172519832846
1783696339391540000,2.3755400390625,-0.016494623205065725,0.005293466765619814,0.006685103787109256
1783696339401504000,2.38550390625,-0.044025019687414166,-0.0026157719889655707,0.0007306523621082306
1783696339411467000,2.395467041015625,-0.031602760487794875,-0.0044843058072030545,-0.0007371917007490993
1783696339421430000,2.405429931640625,-0.028459201765060425,-0.007954758396744728,0.009751834413968026
1783696339431394000,2.41539404296875,-0.05583820707798004,-0.00986271090991795,0.004625613974034786
1783696339441357000,2.425357177734375,-0.015292261677980422,-0.007745134234055876,-0.013785839170403777
1783696339451320000,2.435320068359375,-0.029203298130631446,-0.0018707988405600188,0.001028174003958702
1783696339461283000,2.445282958984375,-0.03907411928176879,-0.00742408558614552,0.01720090831089765
1783696339471246800,2.455246826171875,-0.014092238238453864,-0.004489968363009393,0.0026410525606945156
1783696339481210000,2.465210205078125,-0.01857318304479122,0.00033646541275084016,-0.007323803549446165
1783696339491173000,2.475173095703125,-0.03159107005000114,-0.006325001770444214,0.00946508989445865
1783696339501137000,2.485136962890625,-0.025762217766046522,0.00241864198166877,0.00045939767267555
1783696339511100200,2.49510009765625,-0.04535948316156864,0.0010224749155342578,0.012194003401696681
1783696339521063200,2.505063232421875,-0.03563713057041168,-0.002457878013513982,0.001686601380072534
1783696339531026200,2.515026123046875,-0.023373861324787137,-0.0071474971344694495,-0.0031877997232601044
1783696339540989700,2.52498974609375,-0.035787937217950816,-0.0077480568435043095,0.015066088239289819
1783696339550952700,2.53495263671875,-0.03488543542027473,0.004928615508601069,0.0015211086200550197
1783696339560915500,2.54491552734375,-0.02635492296218872,0.00677742171306163,-0.004071852548792958
1783696339570879500,2.55487939453125,-0.03472586094439029,0.0018765344616025685,-0.0007408449625596403
1783696339580842500,2.564842529296875,-0.03637187458574772,-0.010063713374733925,-0.0019736381605267523
1783696339590805500,2.574805419921875,-0.026049218013882637,-0.0002726063963025808,0.011219020889699458
1783696339600768500,2.5847685546875,-0.03158171769976616,0.002576024500466883,-0.0023664734030142427
1783696339610732500,2.594732666015625,-0.018567922347784042,-0.004204356354661286,-0.002677475580945611
1783696339620695600,2.604695556640625,-0.026803251251578328,-0.00015153729990124702,0.007046922836825251
1783696339630658600,2.614658447265625,-0.049691959407925604,0.007881181703880429,0.010234868690557777
1783696339640621600,2.62462158203125,-0.03817161748409271,-0.006601517156884074,-0.0032273280160501597
1783696339650585600,2.634585693359375,-0.029196868389844893,-0.009316109877824783,-0.0022074469164013863
1783696339660548600,2.644548583984375,-0.04700549680292606,0.0013546294793486595,0.007508987390622496
1783696339670511400,2.654511474609375,-0.024119126734137533,-0.003254837077483535,-0.017578874777816236
1783696339680475400,2.664475341796875,-0.029662147814035415,-0.003304959829524159,0.001770224542915821
1783696339690438400,2.6744384765625,-0.0449210917443037,-0.00045176235549151896,0.009270444105193018
1783696339700401700,2.684401611328125,-0.03339724268913269,-0.005732040845975279,0.007930391140468418
1783696339710364700,2.69436474609375,-0.027860066828131674,0.00009312164355069398,0.0023913521159440276
1783696339720328400,2.704328369140625,-0.0368342314004898,-0.01873728756532073,-0.0004433963859453797
1783696339730291700,2.714291748046875,-0.028460370808839796,0.0001397007316350937,-0.017213512064144013
1783696339740254700,2.724254638671875,-0.036091888600587846,-0.0005695800488814711,0.004722535009868443
1783696339750218800,2.73421875,-0.03908990137279034,-0.013460844999738037,0.001260850248672068
1783696339760181800,2.744181640625,-0.02368131983876228,0.002413673545606434,-0.0017778233274817466
1783696339770144500,2.75414453125,-0.025173604223132133,-0.0028226927379146217,0.004540821767412126
1783696339780107500,2.764107421875,-0.05135726227164268,-0.006983356081321835,-0.01054853774961084
1783696339790071600,2.774071533203125,-0.030415012007951735,-0.004215754531510174,-0.003109692985750735
1783696339800034600,2.78403466796875,-0.03938742301464081,-0.0023556232154369355,0.015236074511334298
1783696339809997600,2.79399755859375,-0.035792613393068315,-0.006806136350892483,0.0017745353918522595
1783696339819961600,2.803961669921875,-0.017543839997053147,0.010915763626806437,-0.008436294835992156
1783696339829924600,2.813924560546875,-0.03445230470001697,0.019130634264461696,-0.010078034161031245
1783696339839887600,2.8238876953125,-0.012610475248098373,-0.011284816134907305,0.008463475103862583
1783696339849850600,2.8338505859375,-0.015611410629749297,-0.0021685031455010175,-0.006898162015900015
1783696339859814700,2.843814697265625,-0.022190204498171804,-0.011038403625786303,0.009471117776446044
1783696339869777700,2.853777587890625,-0.03312193287909031,-0.01540438028294593,-0.010663615496642888
1783696339879740400,2.863740478515625,-0.025347791746258733,0.007524952144734561,0.0020663214126601815
1783696339889704400,2.873704345703125,-0.03402326563298702,0.005735949836112558,0.00464636450111866
1783696339899667500,2.88366748046875,-0.05003565827906131,-0.0003856383167207241,0.00749645670261234
1783696339909630500,2.89363037109375,-0.01830956367254257,0.0036297348044812675,0.007606894807144999
1783696339919593500,2.903593505859375,-0.03820551975369453,-0.005035948340594768,0.007268237437307834
1783696339929557500,2.9135576171875,-0.042701077607274054,-0.009600333646684885,0.0021177593389526007
1783696339939520500,2.9235205078125,-0.018762568137049674,0.0046533787637948985,0.005306070518866181
1783696339949483500,2.9334833984375,-0.042403555965423584,-0.018199089035391806,-0.01005713750347495
1783696339959447600,2.943447509765625,-0.029987141984701156,-0.019520912223681807,-0.004000065954215824
1783696339969410600,2.95341064453125,-0.0262467864125967,0.004857596099004149,0.006045381111465394
1783696339979373600,2.96337353515625,-0.039112697726488115,-0.020493045191466806,0.010185659253969788
1783696339989336600,2.973336669921875,-0.025797873601317405,-0.007432963012345134,-0.0027972295030951498
1783696339999300400,2.98330029296875,-0.03118248924911022,0.009455043424479663,0.0041912776773795485
1783696340009263600,2.993263671875,-0.04030629142522812,-0.002781958868727088,0.01181917873993516
1783696340019226600,3.0032265625,-0.030435470274090767,0.007111220244690775,-0.005414170535840094
1783696340029189600,3.013189697265625,-0.026245617368817326,0.005575096718594431,0.006611088702827691
1783696340039153700,3.023153564453125,-0.04614566510319709,-0.009809081026539206,0.002619096457213163
1783696340049116700,3.03311669921875,-0.03822539349794388,-0.0038836730329319833,-0.01978084180150181
1783696340059079700,3.04307958984375,-0.03073766809105873,-0.004281805505044758,0.0008328340949490666
1783696340069043700,3.053043701171875,-0.04210778788924217,-0.008588124396838247,0.006260594764724374
1783696340079006700,3.0630068359375,-0.03298690832257271,-0.007824446547962724,-0.006288688348047435
1783696340088969500,3.072969482421875,-0.033281507354974746,0.010011216002516449,0.007364464353397488
1783696340098932500,3.082932373046875,-0.03612169921696186,-0.007674699346348643,-0.0034520036173984405
1783696340108896500,3.092896484375,-0.02415361352562904,0.004405103091150522,-0.008109656697511673
1783696340118859500,3.102859619140625,-0.03776829738020897,0.0009573007248342036,0.013521635276265442
1783696340128822500,3.112822509765625,-0.03612345278263092,-0.02179517729859799,-0.0075279478194192045
1783696340138786600,3.12278662109375,-0.02146422831118107,-0.006799852740578353,-0.001427110193669796
1783696340148749600,3.13274951171875,-0.02713701325058937,0.00030658173114061354,0.0032255744503811
1783696340158712600,3.142712646484375,-0.032980478581786155,0.0002963160654529929,0.0014567381469532846
1783696340168675600,3.152675537109375,-0.028490181425213812,-0.004265183163806796,-0.0017738412721082567
1783696340178639600,3.1626396484375,-0.0153150580316782,-0.005566036629304289,-0.0006290916837751865
1783696340188602600,3.1726025390625,-0.031629648494720455,-0.019451098390482365,-0.0008637772224843502
1783696340198565400,3.1825654296875,-0.01606792222559452,-0.0037970541954040525,-0.009892046602256595
1783696340208529400,3.192529296875,-0.036114100432395935,-0.021466310670413075,0.009573737900704146
1783696340218492400,3.202492431640625,-0.039707741010189056,-0.006321969563141465,0.005110438348911703
1783696340228455400,3.212455322265625,-0.03148176445662975,-0.0021359160501509904,-0.009135127287730574
1783696340238418700,3.222418701171875,-0.030729484784603116,-0.013787410072982311,-0.001797477876022458
1783696340248382500,3.232382568359375,-0.01936170307397842,-0.011053418531827628,-0.007558342957682907
1783696340258345700,3.242345703125,-0.019358195942640304,0.0017544059192761779,0.009343070949986576
1783696340268308700,3.252308837890625,-0.04060673567652702,-0.01642349419761449,0.0025039091123268005
1783696340278272500,3.2622724609375,-0.04001636856794357,-0.008136727367527782,-0.0007735416557639837
1783696340288235800,3.27223583984375,-0.024158289700746533,0.012876871099323034,0.00970123673789203
1783696340298198500,3.282198486328125,-0.042415830925107,-0.0009448431020602584,0.0026026933116838334
1783696340308161500,3.29216162109375,-0.028508301603794098,0.0005122603710740805,-0.008076813873834908
1783696340318125600,3.30212548828125,-0.016688099950551986,0.012820537802204489,0.005376907265372574
1783696340328088600,3.312088623046875,-0.03659165481626987,-0.01864690586812794,0.0009566066050902009
1783696340338051600,3.322051513671875,-0.028522330129146574,-0.012449476000107824,-0.006146612996235489
1783696340348015600,3.332015625,-0.04333119220435619,-0.00444127038307488,0.002634988146089017
1783696340357978600,3.341978515625,-0.036900866895914076,-0.010478979644738137,-0.015646153149567542
1783696340367941600,3.351941650390625,-0.02987491378188133,-0.009076748163998127,-0.002786123587191105
1783696340377904600,3.361904541015625,-0.035710195806622505,-0.008945157673582433,0.0033481779167428612
1783696340387868700,3.37186865234375,-0.032712767556309696,-0.012578216946311295,0.0043136984806507826
1783696340397831700,3.381831787109375,-0.015658172380924224,0.011474310825020075,-0.0012059782562777398
1783696340407794400,3.39179443359375,-0.029271687191724776,0.006227240484394133,0.008431874389201403
1783696340417757400,3.40175732421875,-0.03555646654963493,-0.0037318069394677877,-0.01333915484882891
1783696340427721500,3.411721435546875,-0.03465864092707634,-0.005238448642753064,0.003124744424410164
1783696340437684500,3.4216845703125,-0.03719838853776455,-0.009994995520077645,0.015835647839680313
1783696340447647500,3.4316474609375,-0.03226443926692009,-0.008390190671943128,0.005186133933626115
1783696340457611500,3.441611572265625,-0.013708207356929777,0.002300751223042607,0.013046309382095932
1783696340467574500,3.451574462890625,-0.03225800952613354,-0.010597491457872091,-0.0038257323006168006
1783696340477537500,3.46153759765625,-0.027616905722022054,-0.009720708623342216,0.007660853484086692
1783696340487500500,3.47150048828125,-0.013700024050474166,0.00475647381208837,-0.004129756748490036
1783696340497464600,3.481464599609375,-0.01848433571755886,-0.0031841829940676687,0.005939509584195911
1783696340507427300,3.49142724609375,-0.03210135765969753,0.0016210618631914257,0.0011214417779818176
1783696340517390600,3.501390625,-0.029104513931274414,0.0030588395813480017,-0.007298669108189642
1783696340527354400,3.511354248046875,-0.03584054418802261,-0.005369162350334227,0.007309007839113473
1783696340537318400,3.521318359375,-0.018339374288916587,0.0014424173606559633,-0.008780980087816715
1783696340547281400,3.531281494140625,-0.020579846692085266,-0.009120221979543566,0.006333586935698986
1783696340557244400,3.541244384765625,-0.028510055169463155,-0.013140819265134631,-0.0016422507816925645
1783696340567208400,3.55120849609375,-0.02746902168393135,-0.006357223539613187,0.00447192124966532
1783696340577171500,3.56117138671875,-0.04198270020484924,-0.00486300292648375,-0.0024396847696974873
1783696340587134500,3.571134521484375,-0.04601999289691448,-0.011267791934870182,-0.007510558293201029
1783696340597097500,3.581097412109375,-0.01759293983578682,-0.013818170537427068,-0.0016925927294418215
1783696340607061500,3.5910615234375,-0.026563012754917143,-0.001199146656692028,0.00943045697249472
1783696340617024500,3.6010244140625,-0.03598316752910614,-0.012171681972034274,-0.004174618803523481
1783696340626987500,3.610987548828125,-0.02356850711405277,-0.007629727693460881,0.003825403507053852
1783696340636951600,3.62095166015625,-0.018930325919389722,0.00867941940948367,-0.0031834523417055604
1783696340646914600,3.63091455078125,-0.03718786714375019,-0.006854870863445103,0.005057283389568328
1783696340656877600,3.640877685546875,-0.02551964118182659,0.0013433409003540872,0.012086487906612455
1783696340666840600,3.650840576171875,-0.02536883453428745,0.004178966185078024,0.016857465168088673
1783696340676804600,3.6608046875,-0.03599953414201736,-0.0027399463579058647,-0.008107720468752086
1783696340686767400,3.670767333984375,-0.012663082218170165,0.007356902101449668,-0.005910393087565899
1783696340696730400,3.68073046875,-0.019095745614171027,0.00021210838072001934,0.010911416245251894
1783696340706694400,3.6906943359375,-0.03227028448581695,-0.008023805044963955,0.006562719516456127
1783696340716657400,3.700657470703125,-0.02539163088798523,-0.0013945230983197687,0.000801708304323256
1783696340726620400,3.710620361328125,-0.04349485833346844,0.001646305902302265,0.010978417066857218
1783696340736583400,3.72058349609375,-0.03167641024589538,-0.006071538466028869,-0.01596464451421052
1783696340746547500,3.73054736328125,-0.022402385944128037,0.007839096127822996,-0.0023919731704518197
1783696340756510500,3.740510498046875,-0.038860184270143504,-0.008416786417923866,0.008847798246331513
1783696340766473500,3.750473388671875,-0.026740707409381864,-0.013316541158221661,-0.004042845650017261
1783696340776437500,3.7604375,-0.014770868152379988,-0.009700761813856661,0.005539258220233023
1783696340786400500,3.770400390625,-0.025842297264933586,-0.014266096968017518,0.005995112228952348
1783696340796363300,3.78036328125,-0.03047930941581726,-0.01620725763104856,-0.007532952788099646
1783696340806326300,3.790326171875,-0.02269230880141258,-0.004514408684521913,-0.007082615204714238
1783696340816290300,3.800290283203125,-0.03885024739801884,-0.010933518479205668,0.005377820580825209
1783696340826253300,3.81025341796875,-0.0265823019772768,0.006618468291684985,-0.014068236308358609
1783696340836216600,3.820216552734375,-0.030772739404439923,0.0030348376512527465,0.012574527151882647
1783696340846179600,3.8301796875,-0.03046703445613384,-0.002848302103206515,-0.0008548267310485243
1783696340856143400,3.840143310546875,-0.024038462713360784,0.0043880788911134,-0.012290120719932018
1783696340866106600,3.850106689453125,-0.028672552254796025,0.011397263533435762,0.005120594416745007
1783696340876069600,3.860069580078125,-0.033012627285718917,-0.01069894253835082,0.013300211077928543
1783696340886033400,3.870033447265625,-0.040950434547662735,-0.0027385215857997536,0.003277231572382152
1783696340895996400,3.879996337890625,-0.035110476347804065,0.015013992725871502,-0.007828684331662953
1783696340905959400,3.88995947265625,-0.04723112225234508,-0.008761544734984635,-0.012201017664372921
1783696340915922400,3.89992236328125,-0.030767478707432745,-0.004528400677256286,0.0053606867829337716
1783696340925886500,3.909886474609375,-0.019837503892183302,-0.005111095936037599,-0.000035217443853616714
1783696340935849500,3.919849365234375,-0.04303074795305729,-0.006309767668694257,0.002036437731049955
1783696340945812500,3.9298125,-0.012355039182305336,-0.0020175869001075623,0.006737893420271575
1783696340955776500,3.939776611328125,-0.02940612722635269,0.0001619490960612893,-0.003707951139844954
1783696340965739500,3.949739501953125,-0.04017711208760738,0.0010163739683106542,0.004198291940055787
1783696340975702500,3.95970263671875,-0.022671266013383862,-0.00457359152585268,-0.001670088636688888
1783696340985665500,3.96966552734375,-0.024766192466020583,-0.014116130570694803,0.012043087156303227
1783696340995629600,3.979629638671875,-0.0409299762815237,-0.01525748262554407,-0.0014177578434348105
1783696341005592300,3.98959228515625,-0.01564823550879955,-0.0029843495730310678,-0.008095299378596247
1783696341015555300,3.999555419921875,-0.020436054307222364,0.002778415204770863,0.006152092888951301
1783696341025519400,4.009519287109375,-0.030463527324795722,-0.011701909035816789,-0.00028762130234390496
1783696341035482400,4.019482421875,-0.0207394211679697,0.010766564414463936,-0.008629406255297362
1783696341045445400,4.0294453125,-0.0350958633005619,0.0016011881189420818,0.008236315284483134
1783696341055408400,4.039408447265625,-0.01953355250954628,-0.0177312157953158,0.005279182511940598
1783696341065372400,4.049372314453125,-0.0315016382008791,0.006523556549847126,0.008173406116105616
1783696341075335400,4.05933544921875,-0.03583586801290512,0.0068430342951789494,0.003800196000561118
1783696341085298400,4.06929833984375,-0.018180968856811523,-0.00017035159822553395,-0.013661810931935905
1783696341095262500,4.079262451171875,-0.020271219134330748,-0.002070376533269882,-0.002129157515801489
1783696341105225500,4.0892255859375,-0.03193769153058529,-0.009257913417182862,-0.0021369024308398364
1783696341115188500,4.0991884765625,-0.030291677889227864,-0.007173435293324292,-0.0019660028433427213
1783696341125151500,4.1091513671875,-0.0162257431358099,0.003923785847611725,-0.0011038695886731148
1783696341135115300,4.119115234375,-0.049887189719080925,0.0026668811216950415,0.006102554658800363
1783696341145078500,4.12907861328125,-0.016969254979491234,-0.000060571080818772315,0.01025466936957091
1783696341155041500,4.13904150390625,-0.012772387811541556,0.014028160026296973,0.013822225658036768
1783696341165005600,4.149005615234375,-0.02728723537623882,-0.005687982508540153,0.015567644553259014
1783696341174968600,4.158968505859375,-0.00933539910018444,-0.0005754983330145478,-0.008871763643808662
1783696341184931600,4.168931640625,-0.02789163101017475,-0.0019604498853906987,0.003330678792670369
1783696341194894600,4.17889453125,-0.04390753078758716,-0.015010923985950648,-0.005514196844212711
1783696341204858600,4.188858642578125,-0.02116904475688934,0.0007582710213959216,-0.020830168191343545
1783696341214821400,4.1988212890625,-0.031032267123460768,0.004204940876550972,0.0089341248229146
1783696341224784400,4.208784423828125,-0.04614157344996929,-0.012451375696249305,-0.011479534989409148
1783696341234748400,4.21874853515625,-0.02564648243188858,0.0031007059616968034,0.00020750527083873748
1783696341244711400,4.22871142578125,-0.03117722855210304,-0.009267850289307534,0.0012140519648790359
1783696341254674400,4.23867431640625,-0.03820318166613579,-0.009344678385183214,-0.0062036769457161425
1783696341264637400,4.248637451171875,-0.027132337075471878,0.008500409580767154,-0.007394055774062871
1783696341274601500,4.2586015625,-0.02503156540393829,-0.019362543324194847,0.0037080972703173753
1783696341284564500,4.268564453125,-0.02937573208808899,-0.018119082601740954,-0.005943272443860769
1783696341294527500,4.278527587890625,-0.01202069266140461,0.015267456030286848,-0.010371318019181489
1783696341304490200,4.288490234375,-0.034763854867219925,0.007675393466092645,0.005080043210648
1783696341314454500,4.29845458984375,-0.03925239845812321,-0.011205321157909929,0.00031542262472212314
1783696341324417300,4.308417236328125,-0.016361352214217185,-0.0035949192194268107,0.0013432678351178765
1783696341334380300,4.31838037109375,-0.028027240088582036,-0.01179163314588368,-0.0004744125787168741
1783696341344344300,4.32834423828125,-0.026235680496692657,-0.011613244371674955,-0.014459500648267566
1783696341354307300,4.338307373046875,-0.0207002582013607,0.002242883555963635,0.0012171572374179958
1783696341364270300,4.348270263671875,-0.041946459847688675,-0.009417707088775932,0.01221559417899698
1783696341374233600,4.358233642578125,-0.032976971450448034,-0.011415054918453097,-0.004581409506127238
1783696341384197400,4.368197265625,-0.026840076130628585,0.0025843174047768115,-0.0003473521329462528
1783696341394160400,4.378160400390625,-0.032225276300311086,-0.009466989590600132,0.011623838830925524
1783696341404123600,4.38812353515625,-0.020862170764803886,-0.0035476460115984082,-0.009008980157412588
1783696341414087400,4.39808740234375,-0.027144612035155294,0.00489358072783798,0.008095774302631616
1783696341424050400,4.408050537109375,-0.034327217015624044,-0.010343334033712744,0.014049385477416217
1783696341434013400,4.418013427734375,-0.02266366722881794,-0.0023365166561678053,-0.010205277269892394
1783696341443976400,4.4279765625,-0.01862286740541458,-0.0009718407068401574,-0.0036692265646532177
1783696341453940500,4.4379404296875,-0.05064063843488693,-0.008599814834631979,-0.008890760605223477
1783696341463903500,4.447903564453125,-0.04601180959045887,0.0064382163539528844,-0.011545695560798049
1783696341473866500,4.457866455078125,-0.03164543058574199,-0.004376863377355039,-0.002398110650293529
1783696341483830500,4.46783056640625,-0.03269172476828098,-0.008980046323873102,0.012938136299885808
1783696341493793500,4.47779345703125,-0.01772913343608379,-0.00020458266139030456,-0.011512670074030756
1783696341503756500,4.487756591796875,-0.044213820257782935,0.003018653701432049,0.004562485609948635
1783696341513719600,4.497719482421875,-0.046910804256796834,-0.005326821045950055,0.005971621755510568
1783696341523683600,4.50768359375,-0.009503741404414177,-0.00386785440929234,0.012822218302637339
1783696341533646300,4.517646240234375,-0.030302199283242223,0.0021294132441282273,0.01322053343784064
1783696341543609000,4.527609130859375,-0.04227788375914097,-0.006172295426763594,0.0023230361200869084
1783696341553573000,4.537572998046875,-0.014448212069272994,-0.004820953883044422,-0.0038917832741513845
1783696341563536100,4.5475361328125,-0.0276104759812355,-0.0035140725355595347,0.003636749067157507
1783696341573499100,4.5574990234375,-0.03195814979672432,-0.006276486453600227,-0.002519654670730233
1783696341583462100,4.567462158203125,-0.01834872663915157,0.0076109499277547,-0.006604366701096296
1783696341593426200,4.57742626953125,-0.042887540090084074,0.007088350825756788,-0.0033130700707435607
1783696341603389200,4.58738916015625,-0.03166588885188103,-0.007251797759160399,-0.009899024332314729
1783696341613352200,4.597352294921875,-0.030471710631251335,0.0009752017077058553,0.007242664604634046
1783696341623316200,4.607316162109375,-0.03660685238540173,-0.00984455419871956,0.0033740430103614922
1783696341633279200,4.617279296875,-0.03631517596244812,-0.016946166364848612,-0.008943696368858218
1783696341643242200,4.6272421875,-0.0277805718511343,-0.007490903744660317,0.002144574280641973
1783696341653205200,4.637205322265625,-0.03331365605890751,-0.017934921673871576,-0.007285773093998432
1783696341663169000,4.6471689453125,-0.033171617239713666,-0.004128003182820975,-0.01204385434128344
1783696341673132300,4.65713232421875,-0.02149462344944477,0.0006587561696767807,0.00027275252677500244
1783696341683095300,4.66709521484375,-0.024175240835547444,-0.008278948849812149,-0.0083306059718132
1783696341693059300,4.677059326171875,-0.03764379421770572,0.0040065322276204825,-0.0077276351099833844
1783696341703022300,4.687022216796875,-0.021630817049741742,0.004132679357938468,0.008118132264912129
1783696341712985300,4.6969853515625,-0.032245734566450114,-0.007719853662326932,0.010732333351299165
1783696341722948400,4.7069482421875,-0.025368250012397765,0.006271481484919786,-0.01134911354277283
1783696341732912400,4.716912353515625,-0.030301030239462852,0.00403784068133682,0.009141666626371442
1783696341742875400,4.72687548828125,-0.03837503110170364,-0.01651760222185403,0.0015487272793427108
1783696341752838100,4.736838134765625,-0.025813071170449255,-0.011525018098950386,-0.008187726902402936
1783696341762801200,4.74680126953125,-0.023264555731415747,0.0020216054880991575,0.013921521314047277
1783696341772765200,4.75676513671875,-0.0391220500767231,-0.013716098402440547,-0.005906228369101881
1783696341782728200,4.766728271484375,-0.02790039883852005,-0.0040610023612156505,-0.001301511052623391
1783696341792691200,4.776691162109375,-0.03522971881330013,0.0029355785278603434,0.014985679946839808
1783696341802655200,4.7866552734375,-0.03268704859316349,0.001167545942030847,-0.006867145823128521
1783696341812618200,4.7966181640625,-0.01713350563049316,0.0013950345549732445,0.004802358780428767
1783696341822581200,4.806581298828125,-0.034790742874145505,-0.006896956439502537,0.003629113749973476
1783696341832544300,4.816544189453125,-0.0433265160292387,-0.02232592317443341,0.00888842251766473
1783696341842508300,4.82650830078125,-0.010256605598330496,0.0031480157021433115,-0.00040087241847068067
1783696341852471300,4.83647119140625,-0.04466565567851066,-0.009757716165482997,0.01200213409140706
1783696341862434000,4.84643408203125,-0.025210429102182387,-0.01059153664112091,0.0073678984194993965
1783696341872398000,4.856398193359375,-0.024461072039604185,-0.004377594029717147,-0.004550466378591954
1783696341882361000,4.866361083984375,-0.03792553376853466,-0.014224486315995453,-0.0033273543244227767
1783696341892324000,4.876323974609375,-0.029998832422494886,-0.004702770863473415,-0.0018379194842651485
1783696341902287400,4.886287353515625,-0.024310265392065048,0.011411109395697712,0.005492715664766728
1783696341912251100,4.896251220703125,-0.04660451478660106,-0.005220364996790886,0.019539726522006095
1783696341922214100,4.906214111328125,-0.026561259189248083,-0.011966514788754283,-0.007047105499915779
1783696341932177400,4.916177490234375,-0.027609891459345816,0.005078947232104837,-0.00594341857433319
1783696341942140400,4.926140380859375,-0.04601823933124542,0.0020358166765421628,-0.0033024390788748857
1783696341952104400,4.9361044921875,-0.016698621344566345,-0.010297704793699085,-0.011671258169226349
1783696341962067200,4.946067138671875,-0.02044189952611923,0.00976900474447757,0.010222922524437308
1783696341972030200,4.9560302734375,-0.04005202440321445,0.0018481486173346638,0.01261025605238974
1783696341981994200,4.965994140625,-0.015668693774938583,0.011196662927418947,-0.004925948627479374
1783696341991957200,4.975957275390625,-0.03183773828744888,0.004964782800525426,0.020379282618686555
1783696342001920300,4.985920166015625,-0.047856560674309725,-0.00647288580853492,0.016597973981685936
1783696342011883300,4.99588330078125,-0.03186170368492603,-0.006942585679516196,0.0025359482184052467
1783696342021847300,5.005847412109375,-0.024846271964907643,-0.020211999760381877,-0.000218026664853096
1783696342031810300,5.015810302734375,-0.036377135282754894,-0.016171747926250098,-0.012895502734556794
1783696342041773300,5.025773193359375,-0.04430968184769153,0.013305873633734882,-0.023010252176783978
1783696342051737300,5.0357373046875,-0.03891162219643592,-0.01687269926983863,-0.010926431151293218
1783696342061700400,5.045700439453125,-0.030976153022050857,0.0032894334668293595,-0.01923822282478213
1783696342071663000,5.0556630859375,-0.030963293540477752,0.004480323751829564,-0.004131144987978041
1783696342081626000,5.065626220703125,-0.041568274185061455,0.019892595080286263,0.021247041896544396
1783696342091590100,5.075590087890625,-0.05518354256153107,-0.006710822750255465,-0.002344407701678574
1783696342101553200,5.08555322265625,-0.001169043779373169,0.012772095550596713,-0.008386975801549852
1783696342111516200,5.09551611328125,-0.0427513464897871,-0.010992957048863172,0.00012706044577062128
1783696342121480200,5.105480224609375,-0.04229015871882438,-0.01467022078949958,-0.0016168971447274088
1783696342131443200,5.115443115234375,-0.02717325360774994,-0.0027905440339818597,0.0039535599313676355
1783696342141406200,5.12540625,-0.03388999464213848,-0.012233495161868632,-0.00021346008758991956
1783696342151369200,5.135369140625,-0.014423662149906157,-0.003672441435046494,-0.009710442957654594
1783696342161333200,5.145333251953125,-0.038509471136331554,0.00488251134455204,0.005844159450940787
1783696342171296000,5.1552958984375,-0.040599721413850785,-0.006640351329930127,0.011400770664773881
1783696342181259300,5.16525927734375,-0.03550385957956314,-0.003979644220694899,-0.0058509910505264995
1783696342191223000,5.17522314453125,-0.029210312393307684,0.005028166892938316,-0.0009929930927231906
1783696342201186300,5.185186279296875,-0.04236614656448364,0.0007036547573283314,0.012749445327371357
1783696342211149300,5.1951494140625,-0.03248831115067005,-0.010813472296111286,-0.0019806889558210967
1783696342221112300,5.2051123046875,-0.027387773141264914,-0.018896314051933587,-0.0097752883547917
1783696342231076400,5.215076416015625,-0.04173778553307056,-0.003438559613935649,0.011024776959232985
1783696342241039400,5.225039306640625,-0.03605331015586853,-0.0023749855030328034,0.01075133031271398
1783696342251002400,5.23500244140625,-0.02722761414349079,0.005397803922928869,0.007549757792428135
1783696342260965400,5.24496533203125,-0.028880057525634766,-0.019905783355422316,0.020123335096240043
1783696342270929400,5.254929443359375,-0.0335275910705328,0.013225355743430554,0.010269903471320866
1783696342280892200,5.26489208984375,-0.032334581893682476,0.012363587814942002,0.004665032668970525
1783696342290855200,5.274855224609375,-0.05299450808465481,-0.02484766020439565,-0.002350179855339229
1783696342300819200,5.284819091796875,-0.02607026080191135,-0.004220869098044932,-0.005963036590255796
1783696342310782200,5.2947822265625,-0.028467969593405723,-0.008216806866414844,0.006201996445283293
1783696342320745200,5.3047451171875,-0.04119651826322079,0.0001169409105554223,0.0019823329236358404
1783696342330708200,5.314708251953125,-0.03372223685979843,0.0007850128978490829,-0.01928176970556378
1783696342342540300,5.326540283203125,-0.04314882137477398,-0.008808050757832824,0.0017628449540585279
1783696342352503300,5.33650341796875,-0.035518472626805304,-0.00836779617704451,-0.004924669985845685
1783696342362466300,5.34646630859375,-0.018009119421243665,0.006056450494751334,-0.0002043634656816721
1783696342372430300,5.356430419921875,-0.028775428107380867,-0.008449629241600632,-0.003137750036455691
1783696342382393000,5.36639306640625,-0.03356500047147274,-0.012886150384321808,0.002815167018584907
1783696342392356000,5.376356201171875,-0.017854805642366408,0.0012935834744945169,0.003802241827175021
1783696342402319000,5.386319091796875,-0.033712884509563446,0.0007010244088247418,0.0035569983618333936
1783696342412283100,5.396283203125,-0.03192307848334312,0.004038388670608401,-0.010709354334510863
1783696342422246100,5.40624609375,-0.014718261182308196,0.004050700162909925,-0.0035856034018099305
1783696342432209200,5.416209228515625,-0.039404958671331404,0.010163885813578962,-0.002020728705264628
1783696342442173200,5.426173095703125,-0.038951369684934616,0.018467238452285525,-0.014015775468759237
1783696342452136200,5.43613623046875,-0.02652911048531532,0.01278301880341023,-0.0004813903087750077
1783696342462099200,5.44609912109375,-0.02248538805246353,0.0045835283979773515,0.014213709193654358
1783696342472062500,5.4560625,-0.02278641682565212,0.0038571503521874543,-0.014353154196962713
1783696342482026200,5.466026123046875,-0.02441898646354675,0.02272909714784473,0.005340922636538743
1783696342491989200,5.4759892578125,-0.031740707653760906,0.00776325441263616,0.015420052776113151
1783696342501952300,5.4859521484375,-0.01692833844721317,-0.007226772915758192,-0.007849434858746826
1783696342511916300,5.495916259765625,-0.020501520758867263,0.010632599303871393,0.0051264396356418725
1783696342521879300,5.50587939453125,-0.05550619864463806,-0.02684113557655364,0.007009294240176677
1783696342531842300,5.51584228515625,-0.019743980389833448,0.005919708905182779,-0.00879964825566858
1783696342541805000,5.52580517578125,-0.03169803755581379,-0.017139460447244344,0.01113214632384479
1783696342551769000,5.53576904296875,-0.03183189306855202,-0.004294190062582493,-0.0016697963757440447
1783696342561732000,5.545732177734375,-0.03602349953949451,-0.00048665100578218696,0.004624517995491624
1783696342571694800,5.55569482421875,-0.030778000101447104,0.020497684833966193,-0.0038330022916197777
1783696342581659000,5.565658935546875,-0.028222470399737357,-0.0045702305249869825,-0.00016848843470215795
1783696342591622000,5.575621826171875,-0.024023265144228933,0.00004701747950166464,0.0026250512739643453
1783696342601585000,5.5855849609375,-0.023121347868442534,-0.00687766721714288,0.012144282508455216
1783696342611548000,5.5955478515625,-0.028501287341117856,-0.02111673004776239,-0.0010448328778147698
1783696342621512000,5.605511962890625,-0.023562661895155906,-0.002332607666030526,-0.009348112451285123
1783696342631475000,5.615474853515625,-0.016967501413822174,0.0008101838717237115,-0.000039528292790055274
1783696342641438000,5.62543798828125,-0.03596154021918774,-0.0007571019776165485,-0.002178476550243795
1783696342651402000,5.635402099609375,-0.04357844496369362,0.002433108898438513,-0.0015260770561173558
1783696342661365000,5.645364990234375,-0.030693244427442548,-0.002858165910094976,-0.0014256488889455795
1783696342671327700,5.65532763671875,-0.02693652224242687,-0.01309409404657781,-0.016115487694367766
1783696342681290800,5.665290771484375,-0.035600305691361425,0.00676810589544475,0.0015119754655286669
1783696342691878000,5.6758779296875,-0.043965398454666134,0.003617131051234901,-0.0007935249978676438
1783696342701841000,5.6858408203125,-0.03407937973439693,0.00564198794234544,-0.008481522217206657
1783696342711804000,5.695803955078125,-0.02762625807225704,-0.008278656588867306,0.006808876297250389
1783696342721767000,5.705766845703125,-0.0316495222389698,0.00134092974755913,0.004557736369594932
1783696342731731000,5.71573095703125,-0.02072422359883785,0.0015801087982952593,-0.003789528476074338
1783696342741694000,5.72569384765625,-0.019669161587953565,0.009508746373094618,0.01294449297543615
1783696342751657000,5.735656982421875,-0.03433306223452091,-0.0024954335449263454,0.0012994286933913825
1783696342761621000,5.74562109375,-0.024610125121474265,-0.0060663508342579005,-0.0010064736288040875
1783696342771584000,5.755583984375,-0.012632687079906463,-0.0027483853926882147,-0.002078888633288443
1783696342781546800,5.765546630859375,-0.03792670281231403,-0.018946327206119894,-0.010463562879897654
1783696342791509800,5.775509765625,-0.018636311408877372,-0.006302351547218859,-0.020365619419515132
1783696342801473800,5.785473876953125,-0.027614567634463308,-0.018259879311919212,0.00041654491163790224
1783696342811436800,5.795436767578125,-0.04991349320411682,-0.0005098492182791232,0.008765855583921074
1783696342821399800,5.80539990234375,-0.034953239959478376,0.010416910726577043,-0.007299034434370696
1783696342831363800,5.81536376953125,-0.024777298381924627,0.004267338588275015,0.00736778882164508
1783696342841326800,5.825326904296875,-0.029863807865977286,-0.010572174353525043,-0.0007201675007119775
1783696342851290000,5.8352900390625,-0.01684825894832611,0.00309022110030055,-0.007427848445810377
1783696342861253000,5.845253173828125,-0.024478023174405096,-0.003641827101074159,0.005538454502634704
1783696342871217000,5.855216796875,-0.03838964414894581,-0.002334361231699586,0.003063040832430124
1783696342881180200,5.86518017578125,-0.020882629030942915,0.006478475299105048,-0.012611900020204484
1783696342891143000,5.875142822265625,-0.017731471523642538,-0.008575009186938404,0.005365582153759896
1783696342901107000,5.88510693359375,-0.0349392114341259,-0.015508790505491196,0.000473608861118555
1783696342911070000,5.895070068359375,-0.02101706906557083,0.00048869683239609,0.0027692089850082993
1783696342921033000,5.905032958984375,-0.02281272031068802,0.011490567840076982,0.0065606006246060125
1783696342930996000,5.914995849609375,-0.036592823860049244,0.01165953119881451,0.00027709990832954645
1783696342940960000,5.9249599609375,-0.0229834007024765,0.014413834875635802,-0.00002009293995797634
1783696342950923000,5.934923095703125,-0.04063596177101135,0.0015289631329476832,0.007948620916903019
1783696342960886000,5.944885986328125,-0.052910336932539936,0.015906155792623757,-0.009168554633297025
1783696342970850000,5.95485009765625,-0.022983985224366187,0.01180507714934647,-0.0033672844760119914
1783696342980813000,5.96481298828125,-0.038245267242193216,-0.00514087001979351,0.00944813875965774
1783696342990776000,5.974776123046875,-0.014606032979488372,0.0003057049483060837,-0.011471570878662168
1783696343000738800,5.98473876953125,-0.031066753914952276,0.0020517814306542275,0.001926291887462139
1783696343010702800,5.994702880859375,-0.040192309656739235,-0.008589622234180569,0.0026357187984511255
1783696343020665900,6.004665771484375,-0.030019875210523603,-0.008142170727625488,-0.007752294627204537
1783696343030628900,6.01462890625,-0.016398761615157128,0.005101305194385349,-0.00806906895879656
1783696343040593000,6.024593017578125,-0.026721418187022207,0.007319858026690781,0.0034203663701191543
1783696343050556000,6.034555908203125,-0.04034428534805774,0.007682846120186149,0.003347922188416123
1783696343060519000,6.044518798828125,-0.021192425632476804,0.005648088889569044,0.007065956330858171
1783696343070482000,6.05448193359375,-0.02792202614843845,0.005353672520257533,-0.003233940419927239
1783696343080446000,6.064446044921875,-0.019245383217930793,-0.001095722814835608,0.0031369463188573718
1783696343090409000,6.074408935546875,-0.03525193064510822,-0.02102740779649466,0.0018405863653868436
1783696343100371700,6.084371826171875,-0.050665188354253765,-0.01187426992803812,-0.003563647298328578
1783696343110335700,6.094335693359375,-0.02418283962011337,0.0033251258347183465,-0.009058153061382471
1783696343120298800,6.104298828125,-0.036002456751465794,0.0037436069751158353,0.004390490043908357
1783696343130262000,6.114261962890625,-0.03810322842299938,-0.012213475287146865,-0.009718589731492101
1783696343140225000,6.12422509765625,-0.013722235882282257,-0.006781257637962699,0.0051751010829582805
1783696343150188800,6.134188720703125,-0.0366208809107542,0.00534326072409749,0.008581402395106852
1783696343160152000,6.144152099609375,-0.047701662373542786,0.005675488353148102,0.0002218260571360588
1783696343170115000,6.154114990234375,-0.016144494593143464,0.007867116645909845,0.004164316605217755
1783696343180079000,6.1640791015625,-0.02632277425825596,-0.01726074873935431,0.016795286652073263
1783696343190042000,6.1740419921875,-0.04143734128177166,-0.017961517419852316,-0.015251710471883416
1783696343200005000,6.184005126953125,-0.021391163074970243,0.00008574205469340086,-0.002658222891204059
1783696343209967900,6.1939677734375,-0.02976911531984806,-0.0036012028297409413,0.013236863518133758
1783696343219932000,6.203931884765625,-0.019008651852607725,-0.008953121784329414,0.008590718212723732
1783696343229895000,6.21389501953125,-0.017073884397745133,0.007116809735260903,0.008508739017695189
1783696343239858000,6.22385791015625,-0.047454994136095045,0.010508059608750045,-0.002858677366748452
1783696343249822000,6.233822021484375,-0.03593640577793121,0.0127882064351812,-0.0035567426335066554
1783696343259785000,6.243784912109375,-0.029206220740079877,0.018141038705222306,-0.002509462070278823
1783696343269748000,6.253748046875,-0.046266661134362216,-0.0024406711503863333,0.011807488302141428
1783696343279711000,6.2637109375,-0.02188333050608635,0.010643741752393543,-0.0030122970258817075
1783696343289675000,6.273675048828125,-0.028925650233030318,0.011683386998437344,0.01038516388144344
1783696343299638000,6.283637939453125,-0.03327157048285007,-0.010856361589767037,0.012146036074124275
1783696343309600800,6.293600830078125,-0.01891688191592693,-0.00573426933567971,0.000428418012522161
1783696343319565000,6.30356494140625,-0.02490823128521442,0.01242291678674519,0.01205627543143928
1783696343329527800,6.31352783203125,-0.04435936620831489,-0.004509184520132839,-0.00024579145461320876
1783696343339490800,6.32349072265625,-0.02161737304627895,-0.0023271277733147144,-0.020277393146790564
1783696343349453800,6.333453857421875,-0.027591771280765533,-0.003851524328999221,-0.005551423582062125
1783696343359417900,6.34341796875,-0.04090367279648781,-0.0035300372896716,-0.00005271656792610883
1783696343369380900,6.353380859375,-0.03461830891668796,0.008704955709539353,-0.014393047815933823
1783696343379344000,6.36334375,-0.01575286492705345,0.006508322448097169,0.0017390256870537994
1783696343389308000,6.373307861328125,-0.03639642450511455,-0.006807013133727014,-0.007429602011479437
1783696343399271000,6.38327099609375,-0.02218202119171619,-0.00020553250946104526,-0.0042751931011676784
1783696343409234000,6.39323388671875,-0.022929040166735647,0.0014690131066367029,-0.0022531857542693614
1783696343419197000,6.403197021484375,-0.03475391799509525,0.00636595483534038,-0.0057396030979230996
1783696343429161000,6.413160888671875,-0.035653497183322905,0.013523827233351765,-0.0008669920928776264
1783696343439124000,6.4231240234375,-0.037298341780900954,0.004602123500593006,0.0034995690861716867
1783696343449087000,6.4330869140625,-0.030128011760115623,-0.006129479198344051,-0.004626965680904686
1783696343459051000,6.443051025390625,-0.02565115860700607,0.02034223854392767,0.006316124344244599
1783696343469014000,6.453013916015625,-0.027006664869189262,-0.013617569931410252,0.010404124310240149
1783696343478977000,6.46297705078125,-0.025680969223380087,-0.024104732882604,-0.00014298866726458073
1783696343488940000,6.47293994140625,-0.008793547308444977,-0.003973470208235085,0.01184369212668389
1783696343498904000,6.482904052734375,-0.03409691539108753,-0.009312237420305609,0.008857260194420813
1783696343508867000,6.4928671875,-0.0276847102612257,-0.009774594235047698,0.007325520582497119
1783696343518830000,6.502830078125,-0.021885084071755406,0.0019901143712922928,0.007250263389199972
1783696343528794000,6.512794189453125,-0.04570785820782184,-0.007490428820624947,0.013713321923464536
1783696343538756900,6.5227568359375,-0.02539163088798523,-0.0200919901099056,-0.007094634436070919
1783696343548721000,6.532720947265625,-0.024081132811307904,-0.012123020524717866,-0.00890267023872584
1783696343558684000,6.542683837890625,-0.03218494428992271,-0.02410889760106802,-0.022079291469603777
1783696343568648000,6.55264794921875,-0.03877542859613895,-0.028381606484204527,-0.0288681478921324
1783696343578611000,6.56261083984375,-0.03607318390011787,-0.01712908518370241,-0.030304646968655286
1783696343588574000,6.572573974609375,-0.040243747583031654,-0.027228673589415848,-0.021869667306914923
1783696343598538000,6.5825380859375,-0.02405482932627201,-0.01303447281382978,-0.01761266744956374
1783696343608501000,6.5925009765625,-0.022819734573364257,0.019457820392213762,-0.0033148967016488314
1783696343618464000,6.602464111328125,-0.028632220244407654,0.012839498231001197,0.013911072985269128
1783696343628427000,6.612427001953125,-0.012310030996799469,0.016190050767920912,-0.0014192922133952378
1783696343638391000,6.62239111328125,-0.024107436296343803,0.024305187358148395,0.014409049102663994
1783696343648354000,6.63235400390625,-0.04474047448039055,0.017838987018726764,0.008770677889510988
1783696343658316800,6.64231689453125,-0.04085048130452633,0.014506335464678704,-0.0013330021694302559
1783696343668280800,6.65228076171875,-0.02558627667725086,0.017351568827964365,-0.003608180559799075
1783696343678243800,6.662243896484375,-0.03680500530600547,0.005706285350210965,-0.000022431027516722678
1783696343688206800,6.672206787109375,-0.01989946321249008,0.011100289880856871,0.0036704321410506962
1783696343698171000,6.6821708984375,-0.02813654568195343,0.016148403583280742,0.016442637289501724
1783696343708134000,6.6921337890625,-0.040562896534800524,0.005297266157902777,0.003597987959347665
1783696343718097000,6.702096923828125,-0.00869534763097763,0.001619052569195628,0.0011372969342395662
1783696343728060000,6.712059814453125,-0.041918987318873405,0.0040108065439388154,0.008136617769673466
1783696343738024000,6.72202392578125,-0.04327449358105659,-0.008335939734056592,-0.00008632657658308744
1783696343747987000,6.731987060546875,-0.034603111347556115,0.00234714764803648,0.0022985592659562825
1783696343757950000,6.741949951171875,-0.04298573976755142,-0.003958053443394601,0.019712745001353324
1783696343767914000,6.7519140625,-0.02518763274848461,-0.013436404678225516,0.002312258997745812
1783696343777876700,6.761876708984375,-0.014720599269866942,-0.011879274896718561,-0.009520948267541825
1783696343787840000,6.771840087890625,-0.035523148801922796,-0.01790423427466303,0.004484415405057371
1783696343797803000,6.781802978515625,-0.029842180556058882,-0.018796251210942864,-0.01976060273107141
1783696343807767000,6.79176708984375,-0.02221124728620052,-0.015110219641961157,-0.009785663618333638
1783696343817730000,6.80172998046875,-0.030733576437830923,-0.010351444274932146,-0.00472447123862803
1783696343827693000,6.811693115234375,-0.03941431102156639,0.0020872911354526875,-0.012480126866698265
1783696343837656000,6.821656005859375,-0.029081717577576636,-0.008785071741044521,0.004953603819385171
1783696343847620000,6.8316201171875,-0.0293751475661993,-0.012736439715325832,-0.007867116645909845
1783696343857583000,6.8415830078125,-0.03490589368641376,-0.008011201291717588,-0.012877017229795455
1783696343867545900,6.8515458984375,-0.02397474982738495,0.006426562448777258,0.0004832900049164891
1783696343877510000,6.861510009765625,-0.0470125110656023,-0.01052362250406295,0.002890753005445003
1783696343887473000,6.871472900390625,-0.023071663507819175,-0.003975808295793831,-0.007046046053990721
1783696343897436000,6.881435791015625,-0.03114683341383934,0.014163659506849944,0.012256328048184514
1783696343907400000,6.89139990234375,-0.03757832776606083,-0.006474968167766928,0.006021963703259825
1783696343917363000,6.901363037109375,-0.038485505738854404,0.015721446875482797,-0.008887509202212094
1783696343927326000,6.911325927734375,-0.031004794594645498,0.008868621838651596,-0.004705656940303743
1783696343937289000,6.9212890625,-0.03445055113434791,0.00631754911635071,-0.00313680018838495
1783696343947253000,6.9312529296875,-0.024431845945119858,0.008182868064194918,-0.008425115854851901
1783696343957216000,6.941216064453125,-0.029822891333699225,0.010546272727288305,0.014882767561636864
1783696343967179000,6.951178955078125,-0.020097616133093833,-0.002868541173636913,-0.0020621566941961644
1783696343977143000,6.96114306640625,-0.024442951861023902,0.0004560366718098521,-0.016462072642333805
1783696343987105800,6.971105712890625,-0.02698796016871929,-0.004857413435913622,0.011615290198288858
1783696343997068800,6.98106884765625,-0.03491407699286937,-0.011364018850959837,0.005290617221407592
1783696344007031800,6.99103173828125,-0.01919920598864555,-0.015941300171241162,-0.007837086833827197
1783696344016995800,7.000995849609375,-0.033413024780154225,-0.004577025591954589,0.008580635210126638
1783696344026958800,7.010958740234375,-0.036110008779168125,-0.010075001953728496,-0.012022775020636617
1783696344036921900,7.020921875,-0.028475568377971647,0.011215806019306182,-0.002541903035156429
1783696344046885000,7.030885009765625,-0.026224574580788612,-0.0004983414435759186,-0.001316781686991453
1783696344056849000,7.040848876953125,-0.03326280265450477,0.002542268361337483,0.005946816107816994
1783696344066812200,7.050812255859375,-0.015760463711619377,-0.0016131342850625515,-0.004269457480125129
1783696344076775000,7.06077490234375,-0.03012099749743938,-0.00969488006234169,-0.014732764631696045
1783696344086739000,7.070739013671875,-0.024139000478386876,-0.012513846473209559,-0.004934058868698775
1783696344096702000,7.080701904296875,-0.028631635722517965,0.00412486137766391,0.004112549885362387
1783696344106665000,7.0906650390625,-0.04074760545194149,0.005344758561439812,0.015460421319119632
1783696344116628000,7.1006279296875,-0.03716214818060398,0.001953983611986041,0.00044449236448854205
1783696344126592000,7.110592041015625,-0.02773965531885624,-0.002834821567125618,0.00043181554600596424
1783696344136555000,7.120554931640625,-0.0392570746332407,0.0022448928499594328,-0.003421425816044211
1783696344146518000,7.13051806640625,-0.015468787288665771,0.017946392915956674,0.004335654584132135
1783696344156482000,7.14048193359375,-0.0205652336448431,0.013684059296362102,0.007623407550528645
1783696344166445000,7.150445068359375,-0.05213935256004333,0.0003061068071052432,-0.003396400972642004
1783696344176408000,7.160407958984375,-0.018026655077934266,0.001715644811466336,0.0014435133391991256
1783696344186370800,7.170370849609375,-0.03283668619692325,-0.007433109142817557,-0.012556918429955839
1783696344196334800,7.1803349609375,-0.043459202498197555,0.00036046734284609554,-0.006348163450323045
1783696344206297900,7.1902978515625,-0.02086860050559044,0.007415208159945905,-0.0031044322887435554
1783696344216260900,7.2002607421875,-0.02999532529115677,0.003669993749633431,-0.0016286606477573513
1783696344226225000,7.210224853515625,-0.03822656254172325,0.004191204612143337,-0.002745572381094098
1783696344236188000,7.22018798828125,-0.025061376020312307,0.00836651753541082,-0.00323799554053694
1783696344246151000,7.23015087890625,-0.04271101447939873,-0.004446384949609637,0.0029543928261846304
1783696344256114000,7.240114013671875,-0.04136018439233303,-0.005083659939840435,0.015009974137879908
1783696344266078000,7.250077880859375,-0.019069442129135132,0.0024406346177682278,0.002383022679015994
1783696344276041000,7.260041015625,-0.020865677896142003,-0.0024270079512149095,0.003511076860874891
1783696344286003700,7.270003662109375,-0.03643266486227512,-0.012799531546793877,-0.0050350715577602385
1783696344295968000,7.279968017578125,-0.031046880170702933,0.0006692044984549283,0.008322386132739484
1783696344305930800,7.2899306640625,-0.03448328436017036,-0.0019523396441712975,0.0003412877183407545
1783696344315894000,7.29989404296875,-0.03598258300721645,0.0045705593185499304,-0.006117679162696003
1783696344325857000,7.30985693359375,-0.03553659280538559,0.005006137724220753,-0.0013794716596603393
1783696344335820800,7.31982080078125,-0.035981998485326766,-0.008171104561164974,0.004067541699856519
1783696344345784000,7.3297841796875,-0.03628068917095661,-0.011927388354763388,-0.014779635980725287
1783696344355747000,7.3397470703125,-0.01952010850608349,0.0050856692338362335,-0.01280906656011939
1783696344365710800,7.3497109375,-0.02415185995995998,0.00564063623547554,0.0016999723182991146
1783696344375674000,7.359674072265625,-0.0370218629270792,-0.004681910738535225,0.0003913739377632737
1783696344385637000,7.36963720703125,-0.025794366469979284,0.0037221988609060642,0.0008659326469525695
1783696344395600000,7.379599853515625,-0.04224456601142883,0.003181516112945974,0.0019042627187445759
1783696344405564000,7.38956396484375,-0.02773088749051094,-0.008823102196492254,0.002128499928675592
1783696344415527000,7.39952685546875,-0.02713525968492031,0.005239581153914332,0.004908559101261198
1783696344425490000,7.409489990234375,-0.0456879844635725,0.005746471230126917,-0.0016663988422602415
1783696344435454000,7.419453857421875,-0.0326736045897007,0.005634206494688988,0.009037256403826176
1783696344445417000,7.4294169921875,-0.02653963187932968,0.0119990288188681,0.006465067828260362
1783696344455380000,7.4393798828125,-0.033870705419778824,-0.002873253881372511,-0.005966872515156865
1783696344465343000,7.449343017578125,-0.025648820519447325,0.00652041474469006,-0.006625044162943959
1783696344475307000,7.45930712890625,-0.016976269242167472,0.008423873745836316,-0.00044858401771634816
1783696344485270000,7.46927001953125,-0.035383448070287704,-0.0008783172044903039,0.0034632556637749076
1783696344495233000,7.47923291015625,-0.026555998492240905,0.00125303226839751,-0.0007370455702766775
1783696344505195800,7.48919580078125,-0.026399931147694587,0.0035899507833644746,0.003936426133476198
1783696344515159800,7.499159912109375,-0.03223638221621513,-0.006231149474531412,-0.0023984394438564777
1783696344525122800,7.509122802734375,-0.024455226820707318,-0.004650273491255939,-0.006199439162015915
1783696344535085800,7.5190859375,-0.03462356961369514,-0.010065686136111616,0.00007145780101418494
1783696344545049600,7.529049560546875,-0.04300093733668327,-0.013623013291507958,-0.001538534678891301
1783696344555012400,7.539012451171875,-0.026386487144231793,0.007769720686040818,-0.004015738447383046
1783696344564975600,7.5489755859375,-0.030865093863010406,-0.0038358518358319995,0.0001359378719702363
1783696344574938600,7.558938720703125,-0.03505085511505603,-0.0031982845846563576,-0.002277224216982722
1783696344584902400,7.56890234375,-0.017544424518942833,0.0034718773616477846,-0.009641834700852631
1783696344594865700,7.57886572265625,-0.04327566262483597,0.010753924128599464,0.01972717538550496
1783696344604828700,7.58882861328125,-0.042082653447985646,-0.005343114593625069,0.0010439926275983451
1783696344614792700,7.598792724609375,-0.014242460364103317,0.0036308673156425354,0.004331416800431907
1783696344624755700,7.608755615234375,-0.03623392741978168,-0.012128354286961256,0.009182875419594347
1783696344634718700,7.61871875,-0.023366262540221214,-0.01363908764347434,-0.004231975013948976
1783696344644681500,7.628681396484375,-0.03758475750684738,0.00116513478923589,-0.012069281043484805
1783696344654645800,7.638645751953125,-0.037730887979269025,0.007871573625318706,-0.001957965667359531
1783696344664608500,7.6486083984375,-0.03504325633049011,-0.001199840776436031,-0.007105594221502542
1783696344674571500,7.658571533203125,-0.013494856867194175,0.0027716566704213616,-0.0017786270450800656
1783696344684535600,7.66853564453125,-0.038026656055450435,0.003164528445526957,0.005671250569447874
1783696344694498600,7.67849853515625,-0.0381762936592102,0.00014901654925197363,-0.010319441701471805
1783696344704461600,7.688461669921875,-0.02396247486770153,0.009122852328047156,0.0018610811641439793
1783696344714424600,7.698424560546875,-0.030693244427442548,0.0011797478364780544,0.0032901275865733623
1783696344724388600,7.708388671875,-0.016485855376720426,0.0003282090410590172,0.00017893676348030565
1783696344734351600,7.7183515625,-0.019176409634947777,0.004305259445868432,-0.006105915659666061
1783696344744314600,7.728314697265625,-0.04536006768345833,-0.007302578098326921,-0.0058235550543293355
1783696344754278700,7.738278564453125,-0.025914777979254722,0.003004625176079571,-0.013661737866699695
1783696344764241400,7.748241455078125,-0.02321954754590988,0.0007379954183474183,-0.0035201004175469276
1783696344774204400,7.758204345703125,-0.027108371677994725,-0.007930975662358104,0.009886712840013205
1783696344784167400,7.76816748046875,-0.024418401941657064,-0.0076123381672427055,-0.008586809222586452
1783696344794131500,7.77813134765625,-0.03294716083407402,0.0018243293503299354,0.010838314476422965
1783696344804094500,7.788094482421875,-0.038187984097003934,-0.0029899025309830904,-0.005691818433441222
1783696344814057500,7.798057373046875,-0.022336334970593452,0.01210110095385462,0.0050472369195893405
1783696344824020700,7.808020751953125,-0.014710077875852583,0.0030620909843593835,0.017343604717217385
1783696344833984500,7.817984619140625,-0.04343757518827915,0.0025923911133781076,-0.010849749185889958
1783696344843947800,7.82794775390625,-0.04389116417467594,0.003956847866997123,-0.006998955509252846
1783696344853910800,7.837910888671875,-0.040140871730446816,-0.00014401158057153224,-0.004325644646771252
1783696344863874600,7.84787451171875,-0.026823124995827674,-0.0014857815783470868,-0.004944105338677764
1783696344873837600,7.857837646484375,-0.00872106659412384,0.005407265871018171,-0.003497961650975048
1783696344883800600,7.867800537109375,-0.021588146951794625,-0.0002164557622745633,-0.0004857376903295517
1783696344893763600,7.877763671875,-0.029963176587224007,-0.010637165881134569,-0.004830635026842355
1783696344903727600,7.8877275390625,-0.01948328362703323,0.0006374576533213258,-0.00528816953599453
1783696344913690600,7.897690673828125,-0.03219897281527519,0.009480908518098295,0.006711078478582203
1783696344923653600,7.907653564453125,-0.034143677142262456,-0.00041716596614569426,-0.009296966785937548
1783696344933617700,7.91761767578125,-0.019780220746994016,0.017553776869177817,0.01034114207662642
1783696344943580700,7.92758056640625,-0.04117781356275081,-0.0002617196761071682,0.011836202939972281
1783696344953543700,7.937543701171875,-0.03280453749299049,0.0033893867099657653,-0.0018279826121404767
1783696344963506400,7.94750634765625,-0.030264205360412594,0.02492448830027133,-0.0015679799690842627
1783696344973470700,7.957470703125,-0.038491350957751275,-0.002400777531415224,0.008750511884316801
1783696344983433500,7.96743359375,-0.017699907341599465,0.002625453132763505,-0.0005744754197075962
1783696344993396500,7.977396484375,-0.018000351592898367,0.00969758347608149,-0.003726948101259768
1783696345003360500,7.987360595703125,-0.02952712325751781,0.003194777453318238,0.006917451238259673
1783696345013323500,7.997323486328125,-0.021449615263938904,0.0011128931453451513,-0.013813640492781996
1783696345023286500,8.00728662109375,-0.029528876823186872,-0.0012572700520977378,-0.003848857447877526
1783696345033249500,8.01724951171875,-0.029227263528108595,-0.004623385484330356,0.00002290595155209303
1783696345043213600,8.027213623046874,-0.015465864679217338,0.0030189824949949976,-0.00867711785454303
1783696345053176600,8.037176513671875,-0.03028349458277225,0.0006432663396000862,0.0026357918636873362
1783696345063139600,8.0471396484375,-0.03387479707300663,-0.014877908723428845,0.004666567038930952
1783696345073103600,8.057103515625,-0.020861586242914197,0.006282952727004886,-0.020101415525376795
1783696345083066400,8.06706640625,-0.01876198361515999,0.00334094445835799,-0.0036507410598918795
1783696345093029400,8.077029296875,-0.0359673854380846,-0.006127360306493938,-0.006520122483745217
1783696345102992600,8.08699267578125,-0.03222644534409046,-0.0059000543566420675,-0.00941525940336287
1783696345112956400,8.096956298828125,-0.04598667514920234,0.013454597922042011,-0.003926160467788577
1783696345122919700,8.106919677734375,-0.036106501647830004,-0.007445457167737185,-0.008857442857511342
1783696345132882700,8.116882568359374,-0.03027005057930946,0.010890848381258547,-0.009669380294904112
1783696345142846500,8.126846435546875,-0.03325520386993885,0.003971059055440127,0.0010888181500136851
1783696345152809700,8.136809814453125,-0.031306407889723775,0.006465360089205205,-0.0025459581557661292
1783696345162772700,8.146772705078124,-0.026080197674036024,-0.0032071620108559728,0.0009970482133328914
1783696345172735500,8.156735595703125,-0.0366992068439722,0.004875460549257696,-0.0006484539713710546
1783696345182699800,8.16669970703125,-0.043729836133122445,-0.012604630029201506,0.0022392302941530943
1783696345192662500,8.17666259765625,-0.026978023296594617,0.0070325289852917194,0.004949037242121994
1783696345202625500,8.18662548828125,-0.03685001349151134,-0.004039740377478301,0.007224617491289973
1783696345212589600,8.196589599609375,-0.03505260868072509,0.013433445536158979,-0.012822437498345971
1783696345222552600,8.206552490234374,-0.02891980501413345,0.009485584693215787,0.010954816995561122
1783696345232515600,8.216515625,-0.024579729983210563,-0.007363149179145693,0.010263400665298104
1783696345242478600,8.226478515625,-0.017106033101677895,0.0006375672511756419,0.00036839492097496987
1783696345252442600,8.236442626953124,-0.02428863808214664,-0.004490516352280974,-0.00016523703169077635
1783696345262405600,8.246405517578125,-0.034010990673303605,-0.012779584737308322,0.00517009611427784
1783696345272368600,8.25636865234375,-0.022038813328742978,-0.008027092980593443,-0.01081844073217362
1783696345282332700,8.266332763671874,-0.02532499539256096,0.006114902683719992,-0.011919899168051779
1783696345292295400,8.27629541015625,-0.03234977946281433,-0.007004618065059184,0.0002373524198308587
1783696345302258400,8.286258544921875,-0.02935293573439121,-0.0050848289836198084,-0.018499898612871764
1783696345312221400,8.296221435546874,-0.014831658428907393,0.012646350279077886,0.01328804571609944
1783696345322185500,8.306185546875,-0.036222821503877636,0.006330335532687604,0.011043043268285691
1783696345332148500,8.3161484375,-0.027399463579058647,-0.00006776800658553838,-0.004713547985814512
1783696345342111500,8.326111572265624,-0.030842882031202314,0.008601385737210511,0.0011824147175997495
1783696345352075500,8.336075439453126,-0.042965866023302074,-0.011363616992160677,0.004266644468531013
1783696345362038500,8.34603857421875,-0.03339548912346363,0.011247333668731152,-0.0012506576482206582
1783696345372001500,8.35600146484375,-0.03832943839430809,0.00389094302393496,0.000020677461847662926
1783696345381964800,8.36596484375,-0.02486263857781887,-0.005507949766516685,0.002836392469704151
1783696345391928600,8.375928466796875,-0.020677461847662924,-0.004890219726972281,-0.015911672217957674
1783696345401891600,8.3858916015625,-0.03893149594068527,0.005148943728394806,0.004666092114895582
1783696345411854600,8.3958544921875,-0.045670448806881904,-0.004143639143370092,-0.01825136721190065
1783696345421818400,8.405818359375,-0.018591303223371505,0.008907090685516596,0.005942505258880555
1783696345431781600,8.41578173828125,-0.03339958077669143,0.01245882835034281,-0.0010559387937188148
1783696345441744600,8.42574462890625,-0.033846740022301675,-0.012061024671792984,-0.005765431658923625
1783696345451707600,8.435707763671875,-0.02921148143708706,-0.0009876227978616952,-0.0052108299834653735
1783696345461671700,8.445671630859374,-0.0283078105956316,-0.002045242092013359,0.010482121449895203
1783696345471634700,8.455634765625,-0.0449210917443037,-0.012731507811881601,-0.005546710874326527
1783696345481597700,8.46559765625,-0.022029460978507994,0.004291340518370271,-0.007049735848419367
1783696345491560400,8.475560546875,-0.03399754666984081,-0.004734481175988912,0.0023471111154183743
1783696345501524700,8.485524658203126,-0.038490766435861586,-0.00048255935255438084,-0.0026989202277734876
1783696345511487500,8.495487548828125,-0.02771861253082752,0.0028524302890524265,-0.0023996450202539562
1783696345521450500,8.505450439453124,-0.022027122890949248,0.004162928365729749,0.0028819851770997044
1783696345531414500,8.51541455078125,-0.031463644278049464,0.001734532175026834,-0.00733403268251568
1783696345541377500,8.52537744140625,-0.033114334094524384,0.005505940472520888,-0.0006658800302073359
1783696345551339500,8.535339599609374,-0.03760930742621422,-0.006490092671662569,0.002477313366346061
1783696345561302800,8.545302734375,-0.029244214662909506,0.005329780188016593,-0.014210384725406765
1783696345571266600,8.5552666015625,-0.020120997008681297,0.00568275834415108,0.008757964538410306
1783696345581229600,8.5652294921875,-0.04854863459169864,-0.020601254806295037,-0.009682605102658271
1783696345591192800,8.57519287109375,-0.026709727749228477,0.004304199999943375,-0.01072857049163431
1783696345601156600,8.585156494140625,-0.012646715605258941,-0.0022953078629449008,-0.009572678454779089
1783696345611119900,8.595119873046874,-0.050798459345102305,-0.006835837369412183,-0.012215228852815925
1783696345621083000,8.605082763671875,-0.0220727155983448,0.0034986557707190513,-0.005653861043229699
1783696345631046000,8.6150458984375,-0.01982230632305145,0.003396400972642004,-0.006142630940862
1783696345641010000,8.625010009765624,-0.03269172476828098,0.0025259017484262586,-0.004220248043537139
1783696345650973000,8.634972900390625,-0.02431611061096191,-0.005981631692871451,-0.0089185984602198
1783696345660935700,8.644935791015625,-0.016082535272836686,0.006727700819820165,-0.008403342414461076
1783696345670899700,8.654899658203124,-0.04212064737081527,-0.0066590925630182025,-0.005192234880849719
1783696345680862700,8.66486279296875,0.0008165770798921585,0.016500431891344487,-0.008237995784915983
1783696345690825700,8.67482568359375,-0.023120178824663162,0.0013807503012940286,0.0010621858714148402
1783696345700788700,8.684788818359374,-0.044072950482368464,-0.006906454920209944,-0.0004659370113164186
1783696345710752800,8.694752685546876,-0.021930676779150962,0.0013796908553689717,-0.0005659633196890354
1783696345720715800,8.7047158203125,-0.02581716282367706,0.012575732728280126,-0.0019946078833192587
1783696345730678800,8.7146787109375,-0.03928513168394565,0.0015608195759356021,-0.0052135333972051735
1783696345740641800,8.724641845703125,-0.01549625981748104,0.009701894325017928,-0.007734247513860463
1783696345750605800,8.734605712890625,-0.031058570608496663,-0.01431607358958572,-0.002300276299007237
1783696345760568600,8.744568603515624,-0.03345277226865291,-0.00040953064896166323,-0.0012250117503106593
1783696345770531600,8.754531494140625,-0.03375438556373119,0.010963292562961578,0.00452971585150808
1783696345780495600,8.76449560546875,-0.04138473431169987,0.015462686341442166,-0.0037529958579689262
1783696345790458600,8.774458740234374,-0.025528993532061575,-0.0007773410480469465,-0.002781082085892558
1783696345800421600,8.784421630859375,-0.021189503023028373,0.006958038976974785,0.0020697554787620902
1783696345810385700,8.7943857421875,-0.02432721652686596,-0.00022420067731291054,0.001181391804292798
1783696345820348700,8.8043486328125,-0.023732173243165015,-0.010559497535042464,-0.011574702459573745
1783696345830311700,8.814311767578126,-0.014304419684410095,-0.011056121945567429,-0.0019474442733451722
1783696345840274700,8.824274658203125,-0.02432370939552784,-0.011395254239439963,-0.0019274974638596176
1783696345850238700,8.83423876953125,-0.02238251219987869,-0.003590169979073107,-0.013964629803411661
1783696345860201700,8.84420166015625,-0.025823592564463614,-0.004263867989555001,0.00512041175365448
1783696345870164700,8.854164794921875,-0.0436269602805376,-0.011924684941023587,0.0008714490722864865
1783696345880127700,8.864127685546874,-0.028216040658950805,-0.009261785874702036,0.004251921823434531
1783696345890091800,8.874091796875,-0.020884382596611975,0.013228716744296251,0.002265314583480358
1783696345900054800,8.8840546875,-0.03120119394958019,-0.008346314997598529,0.004162709170021117
1783696345910017800,8.894017822265624,-0.025815993779897687,0.001527355697751045,0.005855630693025886
1783696345919981800,8.90398193359375,-0.03254150264263153,0.010356449243612587,-0.004506846432574093
1783696345929944800,8.91394482421875,-0.037919688549637794,-0.017651026698574424,-0.006069675302505493
1783696345939907800,8.923907958984374,-0.01652326477766037,0.0048981838377192615,-0.010441716374270618
1783696345949870800,8.933870849609375,-0.0371744231402874,-0.00033277561832219363,0.0022969883633777496
1783696345959835000,8.9438349609375,-0.03717734574973583,-0.013116598139330743,0.007815057665109634
1783696345969798000,8.9537978515625,-0.029698388171195984,0.006647255994752049,0.0050413186354562635
1783696345979760600,8.9637607421875,-0.020864508852362632,0.00022763474341481923,0.008300393496640026
1783696345989724700,8.973724609375,-0.03328559900820255,-0.007959690300188959,0.0034881343767046926
1783696345999687700,8.983687744140624,-0.013388473883271216,-0.0002697203194722533,0.002804426428861916
1783696346009650700,8.993650634765626,-0.017571312525868413,-0.0005734159737825394,0.003647781917825341
1783696346019613700,9.00361376953125,-0.032086744612455365,-0.006703077835217118,-0.0036758755011484026
1783696346029577700,9.01357763671875,-0.020264789393544196,0.0012881766470149159,-0.008199015481397509
1783696346039540700,9.023540771484376,-0.0353746802419424,0.0038778278140351174,-0.011958221884444356
1783696346049503700,9.033503662109375,-0.04061550350487232,-0.0014057751446962356,-0.006155307759344577
1783696346059467800,9.0434677734375,-0.016972177588939666,0.003014452450349927,0.0028900588857010004
1783696346069430800,9.0534306640625,-0.03417407228052616,-0.010055822329223155,0.0017203209865838287
1783696346079393500,9.0633935546875,-0.032683541461825366,-0.008030125187896192,-0.0026992855539545416
1783696346089356500,9.0733564453125,-0.013383213186264037,0.0012406842434778808,0.0015896072790026663
1783696346099320600,9.083320556640626,-0.038971827951073644,-0.005040222656913102,0.017459632312320172
1783696346109283600,9.09328369140625,-0.03223813578188419,-0.0005059402281418443,-0.01208604951519519
1783696346119246800,9.103246826171874,-0.022065116813778877,0.001577222721464932,-0.00033131431359797716
1783696346129209900,9.1132099609375,-0.0374748673915863,0.002642331202328205,0.002854585713520646
1783696346139173600,9.123173583984375,-0.03493278169333935,-0.002431647593714297,-0.008183598716557026
1783696346149137000,9.133136962890624,-0.027745500537753105,0.004568769220262766,0.009381284068524837
1783696346159100000,9.143099853515626,-0.02354629528224468,-0.0011524945033714175,0.003178082046844065
1783696346169063700,9.153063720703125,-0.023854922839999196,-0.003915091084502637,-0.006087795481085777
1783696346179027000,9.16302685546875,-0.04031272116601467,0.012347769191302359,0.011702018633671105
1783696346188989700,9.17298974609375,-0.03253098124861717,-0.012608100627921521,0.0008766001714393496
1783696346198952700,9.18295263671875,-0.032684710505604744,0.006401537605375051,-0.0002072495425119996
1783696346208916700,9.192916748046875,-0.025803134298324582,0.0038934637745842333,0.01355294372998178
1783696346218879700,9.202879638671876,-0.040917116799950595,-0.011763795290887355,0.0006235021932050586
1783696346228842800,9.2128427734375,-0.018173954594135282,0.01755191370565444,-0.014865706828981638
1783696346238806800,9.222806884765625,-0.01667348690330982,0.007216251521743834,0.010163958878815174
1783696346248769800,9.232769775390626,-0.02640285375714302,-0.005390351268835365,0.011755173593014479
1783696346258732800,9.24273291015625,-0.02655658301413059,0.004503814225271344,-0.017479031132534146
1783696346268695800,9.25269580078125,-0.027750761234760283,0.001538534678891301,-0.008927293223328888
1783696346278659800,9.262659912109376,-0.034036125114560126,-0.006633848523907363,-0.006438325951807201
1783696346288622800,9.272622802734375,-0.01712707588970661,0.006549567773938178,-0.0021176497410982844
1783696346298585600,9.282585693359374,-0.03043137862086296,-0.0042140374984592196,0.0035111133934929966
1783696346308549600,9.292549560546876,-0.028632220244407654,-0.012016418345086276,-0.006736249452456831
1783696346318512600,9.3025126953125,-0.030274726754426953,-0.0005552227299660444,0.004758665769174695
1783696346328475600,9.3124755859375,-0.01739069526195526,-0.002917969805933535,0.016157755933515726
1783696346338438700,9.322438720703126,-0.03744505677521229,-0.004653305698558688,-0.008667582841217518
1783696346349024800,9.333024658203126,-0.02248012735545635,-0.004130085542052984,-0.006360328812152147
1783696346358988800,9.34298876953125,-0.0325035087198019,-0.0027898499142378565,0.006739573920704424
1783696346368951800,9.352951904296875,-0.028168109863996503,-0.0036787250453606244,-0.010502908509597182
1783696346378914800,9.362914794921876,-0.01919628337919712,0.004628500050865113,-0.0017521043643355368
1783696346388877600,9.372877685546875,-0.0361024099946022,0.0019945348180830475,-0.0004175678249448538
1783696346398841600,9.382841552734375,-0.0293751475661993,0.00823858030680567,-0.01879427844956517
1783696346408804600,9.3928046875,-0.04209492840766906,0.016862250941060482,-0.0017906828090548514
1783696346418767600,9.402767578125,-0.04598316801786422,-0.017968604747764766,-0.0014511851890012621
1783696346428731600,9.412731689453125,-0.03326689430773258,0.0032640067646279927,-0.005536299078166484
1783696346438694700,9.422694580078126,-0.021745383340120314,0.015978380778618156,-0.0022111732434481383
1783696346448657700,9.43265771484375,-0.014860300001502036,-0.0021061784990131856,0.008170812300220131
1783696346458620700,9.44262060546875,-0.018752631264925,0.006215476981364191,0.0023189809994772076
1783696346468584700,9.452584716796874,-0.0224953249245882,-0.005000475168414413,0.012378639253601432
1783696346478547700,9.462547607421875,-0.03760930742621422,-0.00333743732701987,0.010736863395944237
1783696346488510700,9.4725107421875,-0.021603344520926476,-0.004377594029717147,-0.005733100291900336
1783696346498474800,9.482474853515624,-0.02025368347764015,0.0011439458707347512,0.012762195211090148
1783696346508437800,9.492437744140625,-0.041649522727727886,-0.010510653424635528,-0.00619103665985167
1783696346518400800,9.50240087890625,-0.025337854874134064,-0.005620872089080512,-0.004365501733124256
1783696346528363800,9.51236376953125,-0.0296715001642704,-0.004874729896895587,-0.005724478594027459
1783696346538327800,9.522327880859375,-0.0257850141197443,0.004072327472828328,-0.005621018219552934
1783696346548291300,9.532291259765625,-0.029230186137557027,-0.00028020518086850643,-0.0010043547369539738
1783696346558254300,9.54225439453125,-0.03550912027657032,0.0038601460268720984,0.009668247783742845
1783696346568218000,9.552218017578125,-0.03296820362210274,0.0017041735693812368,-0.003236022779159248
1783696346578181400,9.562181396484375,-0.020849895805120467,0.0057509647421538825,-0.006480155799537896
1783696346588144400,9.572144287109374,-0.045537177816033364,0.00022810966745018957,0.006745273009128868
1783696346598107100,9.582107177734375,-0.03731470839381218,-0.006349369026720523,-0.008506766256317496
1783696346608071200,9.5920712890625,-0.00948445218205452,0.00984543098155409,0.011715754898078738
1783696346618034200,9.6020341796875,-0.03701543318629265,-0.0012170841721817851,0.020753997682593762
1783696346627997200,9.6119970703125,-0.03417757941186428,-0.00985953257214278,-0.002489040336757898
1783696346637960200,9.621960205078125,-0.02026069774031639,0.00127476917617023,0.0031617154339328405
1783696346647924200,9.63192431640625,-0.05108429054915905,0.0006050166884437203,0.008389021628163754
1783696346658509300,9.64250927734375,-0.018024901512265205,-0.0024677418204024433,-0.011597718008980155
1783696346668473300,9.652473388671876,-0.027453824114799498,0.010215287207253277,-0.0020752719040960073
1783696346678436400,9.662436279296875,-0.037625089517235755,0.004897928109392524,-0.010070398843847214
1783696346688399000,9.672399169921874,-0.027158056038618088,0.005273812217079103,0.0006649301821365952
1783696346698362000,9.682362060546875,-0.024312018957734105,0.011617920546792447,0.00893690130189061
1783696346708326100,9.692326171875,-0.04630523957908153,-0.0021031462917104364,0.0014428192194551228
1783696346718289200,9.7022890625,-0.028652093988656997,-0.002219064288958907,-0.00611205313950777
1783696346728252200,9.712252197265625,-0.029248306316137312,0.0060714288681745525,0.009937164385616778
1783696346738216200,9.72221630859375,-0.04031739734113216,0.001819580109976232,-0.0022169819297268986
1783696346748179200,9.73217919921875,-0.021019991675019264,0.01114679590370506,-0.020210648053511977
1783696346758142200,9.74214208984375,-0.021765257084369657,0.004416647398471832,0.0016894874569028614
1783696346768105200,9.752105224609375,-0.04287000443339348,-0.0065464990340173244,0.017432525109685956
1783696346778069200,9.7620693359375,-0.027016017219424246,0.0036624680303037165,-0.0027577012103050945
1783696346788032300,9.7720322265625,-0.02746200742125511,0.006358575246483087,0.0034509807040914893
1783696346797995000,9.7819951171875,-0.03480009522438049,-0.016159472966566682,-0.006966587609611451
1783696346807959000,9.791958984375,-0.029716508349776266,-0.011118410059437155,-0.01081741781886667
1783696346817922000,9.801922119140626,-0.02896832033097744,-0.00131871791575104,0.0034522958783432837
1783696346827885000,9.811885009765625,-0.035549452286958695,-0.007439611948840319,-0.0066834232866764065
1783696346837848000,9.82184814453125,-0.029709494087100028,0.0032642259603366253,-0.0014658347688615322
1783696346847812000,9.83181201171875,-0.03240121738910675,0.009400244497321545,0.012986761214584112
1783696346857775000,9.841775146484375,-0.022380174112319944,-0.014061075915209949,-0.002030775175243616
1783696346867738400,9.85173828125,-0.022678280276060104,0.018606354662030936,0.00046926147956401107
1783696346877701400,9.861701416015626,-0.03180675862729549,-0.001645502184703946,0.013972593914158641
1783696346887665200,9.8716650390625,-0.01760463027358055,-0.005828560023009776,-0.0015663360012695192
1783696346897628400,9.88162841796875,-0.018505378505587578,0.008851743769086897,-0.0031435221901163456
1783696346907591200,9.891591064453126,-0.05201835652887821,-0.00886851224079728,0.008136873498000205
1783696346917555200,9.90155517578125,-0.036755320945382114,0.009393814756534993,-0.005333031591027975
1783696346927518200,9.911518310546874,-0.2241916172236204,0.06674363197386264,-0.053837717443145805
1783696346937481200,9.921481201171876,-0.20525953773856162,0.3253038211368024,-0.2873956768944859
1783696346947444200,9.9314443359375,0.5376619388341903,0.26068748351521787,0.03460729433232918
1783696346957408300,9.941408203125,0.22205109806358814,-0.32797936048898846,0.25369473855104296
1783696346967371300,9.951371337890626,-0.3504273026078939,-0.49189654175285247,0.15095776471393182
1783696346977334300,9.961334228515625,-0.4469909033060074,0.04930215637274086,-0.10495236659795046
1783696346987298300,9.97129833984375,-0.07675883003175259,0.08379972498659044,-0.04905181660717353
1783696346997261300,9.98126123046875,0.2485433836698532,-0.18805738731864838,0.117075971644558
1783696347007224000,9.99122412109375,0.2323006893992424,-0.04874916213247925,0.06940086848437786
1783696347017187000,10.00118701171875,-0.05423427901268005,0.23750132678225636,-0.08748466057702899
