time,seconds_elapsed,z,y,x
1783696347764266000,0.060265869140625,-0.13965864605903625,-0.03131901164297014,-0.016414470640942452
1783696347774230000,0.07022998046875,-0.10574585506319999,0.023594701001234352,-0.03579400163255632
1783696347784193000,0.080193115234375,0.04703881455063819,0.0266916441032663,0.007434387784451246
1783696347794156000,0.090156005859375,0.12223346400558947,0.011047317584604024,0.045871085945516824
1783696347804120000,0.1001201171875,-0.0664841042548418,-0.019807145286537705,0.0072733520038425915
1783696347814083000,0.1100830078125,-0.1881061583638191,0.013439181157201528,-0.038145788923092186
1783696347824046000,0.120046142578125,-0.07165829202234744,0.01211359510924667,-0.0107183778911829
1783696347834009000,0.130009033203125,0.09457739531695843,-0.02314998944103718,0.034837796886265274
1783696347843973000,0.13997314453125,0.0742044693738222,0.0077088208116590975,-0.003459675467200577
1783696347853935900,0.149935791015625,-0.11300210980176925,0.000834551128000021,-0.0158207059988752
1783696347863899000,0.15989892578125,-0.126758832475543,0.005932312658429146,-0.004365574798360467
1783696347873862100,0.169862060546875,0.025291677644848822,-0.004889087215811014,0.006491407845914363
1783696347883826000,0.179825927734375,0.036975101175904274,0.012379260308109223,-0.0012329393284395336
1783696347893789000,0.189788818359375,-0.04159808480143547,0.0023192367278039453,-0.0032992972737178206
1783696347903752200,0.199752197265625,-0.06540858397781849,0.009009710809774696,0.0002534633044153452
1783696347913715200,0.209715087890625,-0.028436989933252332,0.0007156739886850118,0.010249518270418046
1783696347923679200,0.21967919921875,-0.025130934125185012,-0.005125160994008183,0.0042819151028990745
1783696347933642200,0.229642333984375,-0.030528993776440617,0.009178381907567382,-0.0047961847679689525
1783696347943605000,0.23960498046875,-0.01976443865597248,-0.00018905629869550466,-0.006162796946056186
1783696347953569300,0.2495693359375,-0.03413023313879966,-0.01247139557097107,-0.017795367072708904
1783696347963532000,0.259531982421875,-0.05162906495034694,0.002827661173976958,-0.005573635413870215
1783696347973495000,0.2694951171875,-0.02902092730104923,0.009423406177200376,0.0012772899268195033
1783696347983458000,0.2794580078125,-0.00627893413901329,-0.01800900982338935,-0.007910919255018235
1783696347993422000,0.289422119140625,-0.013467384338378905,0.010151756984367965,0.004193506167083978
1783696348003385000,0.299385009765625,-0.06778524998128414,0.019312968561425805,-0.002448890989460051
1783696348013348000,0.30934814453125,-0.05791150622069835,-0.0014951339285820722,-0.022924035198055207
1783696348023311000,0.31931103515625,-0.013164017477631568,0.009011500908061862,-0.007425254629924893
1783696348033275100,0.329275146484375,-0.005084171396493912,-0.0012398805258795617,0.0170169665787369
1783696348043238100,0.339238037109375,-0.035620763957500454,-0.007444982243701815,0.004794833061099052
1783696348053201000,0.349200927734375,-0.037564883762598034,0.0016605536233633756,-0.011066899067908524
1783696348063165000,0.3591650390625,-0.04802899463176727,-0.005085194309800863,0.0018103738902136683
1783696348073128000,0.3691279296875,-0.016159692162275315,-0.0007985299665480851,-0.0017487068308517336
1783696348083091000,0.379091064453125,-0.019605448701977727,0.0012258520005270837,-0.0015242504252120852
1783696348093054000,0.389053955078125,-0.04085340391397476,0.014309059326909481,-0.0010411796160042285
1783696348103018000,0.39901806640625,-0.042054011875391005,0.004289842681027949,-0.009777662974968552
1783696348112981000,0.40898095703125,-0.01601473073363304,0.009600625907629728,-0.006443111724779009
1783696348122944000,0.418944091796875,-0.039352351701259614,0.005819792194664478,-0.000872910377010703
1783696348132907300,0.4289072265625,-0.013913959062099456,0.007469203369505703,0.00047229368686676023
1783696348142871000,0.43887109375,-0.02707856106162071,0.015577983284182846,-0.004770758065767586
1783696348152834300,0.448834228515625,-0.03261222979128361,-0.006415529598109424,-0.0012611425096169114
1783696348162797000,0.458797119140625,-0.030521394991874694,0.006895275939069688,-0.0011346665857359765
1783696348172761000,0.468760986328125,-0.04249298781454563,0.006403656497225165,0.0060588981801643965
1783696348182724000,0.47872412109375,-0.029174072036147115,-0.0030982582762837407,0.0005332300938665867
1783696348192687000,0.48868701171875,-0.022145780834555626,0.006929908861033618,-0.012501388850435613
1783696348202650000,0.498650146484375,-0.03560731995403767,-0.001071574754267931,0.006583470043540001
1783696348212614100,0.5086142578125,-0.035298692396283145,-0.0017564517458900808,-0.0038922947308048603
1783696348222577200,0.5185771484375,-0.015395137530565262,0.012143113464675843,-0.0037232948394492265
1783696348232540200,0.5285400390625,-0.02332417696416378,0.0050658685548231,0.0049758156511932605
1783696348242503200,0.538503173828125,-0.04203589169681072,0.0027658479841426013,-0.006474858569912612
1783696348252467200,0.54846728515625,-0.02228723513185978,0.011477817956358194,-0.006864807735569775
1783696348262430000,0.558429931640625,-0.03305412833988666,0.001440517664514482,0.006105806061811745
1783696348272393000,0.56839306640625,-0.03903787892460823,-0.011121369201503693,-0.008758293331973255
1783696348282357000,0.57835693359375,-0.009258826732635497,0.014600370423682034,0.005736643955856561
1783696348292320000,0.588320068359375,-0.03364274188280105,0.0005251929178833961,0.01960957688782364
1783696348302283000,0.598282958984375,-0.024818799436092377,0.0029914369009435174,-0.002505260819196701
1783696348312246000,0.60824609375,-0.014192776003479957,0.003816781809180975,-0.012170330265164375
1783696348322210000,0.6182099609375,-0.04172083439826965,-0.006508212850242853,-0.003956519073434174
1783696348332173000,0.628173095703125,-0.03289689195156097,-0.014877214603684841,-0.01609897495098412
1783696348342136000,0.638135986328125,-0.022120061871409413,-0.0001030219830572605,0.0015306436333805322
1783696348352099000,0.64809912109375,-0.03692892394661903,-0.0114704383675009,0.0012221256734803317
1783696348362063000,0.65806298828125,-0.035735330247879026,0.007182458849996328,-0.01401369310952723
1783696348372025900,0.66802587890625,-0.02869768669605255,0.007849179130420087,0.0057129342867061495
1783696348381989000,0.677989013671875,-0.050091772380471224,-0.001778480914607644,0.003266162189096212
1783696348391952100,0.6879521484375,-0.015379355439543723,0.00993029625341296,-0.019874036510288715
1783696348401916000,0.697916015625,-0.028396073400974272,0.007658515396527945,0.006448408954404294
1783696348411879200,0.707879150390625,-0.03423077090382576,0.0036721491741016506,-0.001440517664514482
1783696348421842200,0.71784228515625,-0.02420855858325958,0.004007226347364485,-0.019947430540062486
1783696348431805200,0.72780517578125,-0.026897943797707557,0.009015446430817246,0.011310717761144042
1783696348441769200,0.737769287109375,-0.03662438804209232,-0.005315203673392534,0.0027338088780641556
1783696348451732200,0.747732177734375,-0.02016658971607685,0.012055837040022015,-0.004536912777274847
1783696348461695000,0.757695068359375,-0.02645020003020763,0.010263400665298104,0.008884257799200714
1783696348471659000,0.767658935546875,-0.02854863361418247,-0.0010146934678778052,-0.002365998478978872
1783696348481622000,0.7776220703125,-0.020023381853103636,0.008236607545427977,-0.009245528859645127
1783696348491585000,0.7875849609375,-0.015384616136550903,0.0006372749902307987,0.0047738268056884406
1783696348501548000,0.797548095703125,-0.031847675159573555,0.005802329603210091,-0.0069219082176685326
1783696348511512000,0.807511962890625,-0.027214170140028,0.013126279283128678,-0.007943944741785525
1783696348521475000,0.81747509765625,-0.023617606952786443,0.010378259216621518,-0.01161678803563118
1783696348531438000,0.82743798828125,-0.031997897285223,0.00008358663022518158,-0.00400583810787648
1783696348541401000,0.837401123046875,-0.028552725267410276,0.0006952887877821922,0.0011747794004157185
1783696348551365400,0.847365478515625,-0.038576691153645516,0.005780592695437371,-0.0036620296388864514
1783696348561328400,0.857328369140625,-0.028104396978020665,0.004283887864276767,0.0016417393250390887
1783696348571291100,0.867291015625,-0.018528174859285353,0.015279584859497845,-0.008558788704499602
1783696348581254100,0.877254150390625,-0.03707505441904068,-0.0015399959836155175,0.007742759613879024
1783696348591218200,0.88721826171875,-0.03588262976408005,-0.00476801811940968,-0.0110579485764727
1783696348601181200,0.89718115234375,-0.023011457753181457,0.009778284029476343,0.002496492990851402
1783696348611144200,0.907144287109375,-0.03781739721894264,-0.011505619278736412,-0.012357377269864082
1783696348621107500,0.917107421875,-0.030938159099221228,0.004995397134497761,-0.006160970315150917
1783696348631071200,0.9270712890625,-0.025999533653259275,0.016814356678724288,-0.010213387511111796
1783696348641034200,0.9370341796875,-0.040208676269650453,-0.0013114844573661685,-0.004085260019637644
1783696348650997500,0.94699755859375,-0.02718845117688179,0.0005847045527771115,-0.015140870508551597
1783696348660961300,0.956961181640625,-0.03601648527681827,0.014798450279049575,0.002494885555654764
1783696348670924500,0.966924560546875,-0.03153086429536343,-0.009340440601482987,-0.011010784966498613
1783696348680887300,0.97688720703125,-0.028542203873395917,-0.007646678828261792,-0.01484824423752725
1783696348690850300,0.986850341796875,-0.028842648124694822,0.020195158223435282,0.003720299164764583
1783696348700814300,0.996814453125,-0.051435003682971,-0.00330105083938688,0.004833192310109734
1783696348710777300,1.00677734375,-0.029145430463552474,-0.004440831991657615,-0.009708908587694168
1783696348720740400,1.016740234375,-0.018365093252062797,0.012302176483906805,-0.016904774908535182
1783696348730703400,1.026703369140625,-0.029588498055934904,-0.002596628897078335,-0.01338708564378321
1783696348740667400,1.03666748046875,-0.0234539408236742,0.00015774784497916698,-0.007564261241815984
1783696348750630400,1.04663037109375,-0.01612052919566631,-0.005377382189407944,0.0076562503742054104
1783696348760593400,1.056593505859375,-0.03677285660207271,0.0008275733979418873,0.003591412088088691
1783696348770556200,1.06655615234375,-0.017624504017829893,0.01732332911416888,-0.0034862712131813168
1783696348780520200,1.076520263671875,-0.014631167420744894,-0.0010275164168328046,0.007789192571491002
1783696348790483200,1.086483154296875,-0.03034603842496872,-0.009912724064104258,-0.007668707996979355
1783696348800446200,1.0964462890625,-0.0176285956710577,0.004405030025914311,-0.002304367952235043
1783696348810409200,1.1064091796875,-0.03648176470100879,-0.005023125391639769,-0.0003891454480588436
1783696348820373200,1.116373291015625,-0.04546177449226379,-0.014730718805082142,-0.013687128036282956
1783696348830336300,1.126336181640625,-0.01733399663865566,0.016907368724420665,-0.010507511619478464
1783696348840299300,1.13629931640625,-0.02720481778979301,-0.0032839535741135475,0.007575549820810556
1783696348850262500,1.146262451171875,-0.02256780563890934,-0.0029607495017349716,-0.016203312108293174
1783696348860226300,1.156226318359375,-0.02586392457485199,0.0124756333546713,-0.004451426450908184
1783696348870189300,1.166189208984375,-0.03947568581998348,-0.002570617672987282,0.004797134616039693
1783696348880152300,1.17615234375,-0.0167354462236166,0.007392667534574866,-0.007302651163563132
1783696348890115300,1.186115234375,-0.026914894932508468,0.022391864550113678,-0.002900945605896413
1783696348900079400,1.196079345703125,-0.03364741805791854,0.0018412804851308463,0.009196173292584717
1783696348910042400,1.20604248046875,-0.024370471146702766,0.004681764608062804,-0.010227489101700484
1783696348920005400,1.21600537109375,-0.026163784304261205,0.008940335367992519,-0.0030010084468871353
1783696348929968400,1.225968505859375,-0.023915713116526603,-0.005289776971191168,-0.003244315683469176
1783696348939932400,1.235932373046875,-0.02556055771410465,0.0103443934796378,-0.007950666743516922
1783696348949895400,1.2458955078125,-0.020921791997551918,0.007084186107292771,-0.007847389032132923
1783696348959858400,1.2558583984375,-0.05264671756029129,0.006117825293168425,0.005258760778419673
1783696348969821200,1.2658212890625,-0.033353403547406194,0.0009089680710807442,-0.006157061325013637
1783696348979785200,1.27578515625,-0.02257598894536495,0.006509783752821386,-0.006596658318676054
1783696348989748200,1.285748291015625,-0.049207975283265114,-0.004277713851816952,0.0002076148686930537
1783696348999711200,1.295711181640625,-0.03140343852341175,0.0019535817531868816,-0.007278028178960084
1783696349009675300,1.30567529296875,-0.027356208959221837,0.004032579984329641,-0.0058161024002358315
1783696349019638300,1.31563818359375,-0.0385772756755352,-0.003812105634063482,-0.0004679828379303217
1783696349029601300,1.325601318359375,-0.019728782820701597,0.008653773511573672,-0.011876936809159815
1783696349039564300,1.335564208984375,-0.027353286349773406,0.001075045352987945,0.000482303624227643
1783696349049528300,1.3455283203125,-0.04755144024789333,-0.010360065972805022,-0.006859985429979861
1783696349059491300,1.3554912109375,-0.010897241589426994,0.0031624826189130544,-0.005520553519763052
1783696349069454300,1.365454345703125,-0.02765022346973419,0.00786269619911909,-0.006937178852036595
1783696349079417300,1.375417236328125,-0.032150457498431206,0.004555909738689661,0.0012748422414064406
1783696349089381000,1.385381103515625,-0.021528525719046593,0.005557926388084888,-0.016097805907204745
1783696349099344100,1.39534423828125,-0.04771276828944683,0.02023633048404008,0.0032634953079745174
1783696349109307400,1.405307373046875,-0.033951953962445255,0.003245119401067495,-0.009075907913781702
1783696349119270400,1.4152705078125,-0.017939561316370964,0.019183606560714543,-0.009745623868890106
1783696349129234400,1.425234375,-0.0390349563151598,-0.0013442542158067226,-0.009071049075573682
1783696349139197400,1.435197509765625,-0.036493455138802526,0.005880692069046199,-0.027471213641017674
1783696349149160400,1.445160400390625,-0.032603461962938306,0.012721826668083667,-0.017818857546150684
1783696349159123500,1.45512353515625,-0.028109657675027846,0.006722293992340565,0.008259951888397336
1783696349169087500,1.46508740234375,-0.024373978278040883,0.001266074413061142,-0.02222918480169028
1783696349179050200,1.47505029296875,-0.028407763838768002,0.0031355580793693658,0.004615677101910114
1783696349189013200,1.48501318359375,-0.03887947349250316,-0.008925247396714985,0.00849215320907533
1783696349198976300,1.494976318359375,-0.023771920731663704,0.004865962068550288,-0.012918189490400253
1783696349208940300,1.504940185546875,-0.026021160963177678,0.010773213350959121,-0.00675122782588005
1783696349218903300,1.5149033203125,-0.045474633973836893,0.0006398688061162829,0.009371529859490692
1783696349228866300,1.5248662109375,-0.0329044907361269,0.005664820828661322,-0.017942118599638342
1783696349238829300,1.534829345703125,-0.022421675166487694,0.00882719384972006,-0.003042436435818672
1783696349248793300,1.54479345703125,-0.024214403802156448,0.00416745841037482,0.0009541223870590329
1783696349258756400,1.55475634765625,-0.01644435432255268,0.010244842095300554,-0.00438409683573991
1783696349268719000,1.564718994140625,-0.031256723529100416,0.005738762847706675,0.009647387658804655
1783696349278683400,1.574683349609375,-0.055196986564993854,-0.000031527649424970145,-0.004412226951681077
1783696349288646100,1.584646240234375,-0.021229250511527062,-0.002346636191383004,-0.011202215885370969
1783696349298609200,1.594609130859375,-0.038428807115554804,0.007548479150794446,0.00039250644892454146
1783696349308572400,1.604572509765625,-0.03857844471931457,-0.002684672506712377,-0.0055630774872377515
1783696349318536200,1.6145361328125,-0.015090017104148864,0.01733870934639126,-0.008384528116136788
1783696349328499200,1.624499267578125,-0.03020166151821613,0.008910269023291766,0.005700878522731364
1783696349338462500,1.63446240234375,-0.042623920717835426,-0.0035909371640533206,-0.01991228616144508
1783696349348425500,1.644425537109375,-0.015844050341844558,0.004817885143123567,-0.006333660000935197
1783696349358389500,1.654389404296875,-0.04127952037155628,0.004808313597179949,0.0034654841534793373
1783696349368352500,1.6643525390625,-0.03739186528325081,-0.01045260309446603,-0.018730857824534177
1783696349378315300,1.674315185546875,-0.029461072283983227,0.011131854062899946,-0.006005670155584812
1783696349388278300,1.6842783203125,-0.03469371224045753,0.004511303411982953,-0.004748546233959496
1783696349398242300,1.6942421875,-0.028262802410125732,-0.0024720892019569874,-0.022077537903934717
1783696349408205300,1.704205322265625,-0.006565934386849403,-0.003873443899862468,-0.0035721959309652444
1783696349418168300,1.714168212890625,-0.030653496938943862,-0.003000533522851765,0.0015733867965638637
1783696349428132400,1.72413232421875,-0.03544365382492542,0.007511362010799348,0.005922923775576055
1783696349438095400,1.734095458984375,-0.03155424517095089,0.007636522760428488,-0.00433656789958477
1783696349448058400,1.744058349609375,-0.037383681976795195,0.0014650310512632132,0.001210690964013338
1783696349458021400,1.754021484375,-0.028562077617645263,0.001990041306056082,-0.007370309572294354
1783696349467985400,1.7639853515625,-0.022580665120482443,-0.0012650514997541904,0.01005896413438022
1783696349477948400,1.773948486328125,-0.03709317459762096,0.0035187852432951327,0.003407287692837417
1783696349487911200,1.7839111328125,-0.0323117855399847,-0.0032787659423425793,-0.005933956626243889
1783696349497874200,1.793874267578125,-0.026025252616405484,0.018228242064639924,0.001861044631525874
1783696349507838200,1.803838134765625,-0.03755085523724556,0.008154080361127853,-0.0011804784888401628
1783696349517801200,1.81380126953125,-0.028130700463056563,-0.005440510553494095,-0.010567680841498076
1783696349527764200,1.82376416015625,-0.018999884024262427,0.006043444882705807,-0.004778174187242985
1783696349537727200,1.833727294921875,-0.03276888165771961,0.005578494252078235,-0.012666333621181547
1783696349547691500,1.84369140625,-0.029778467670083044,0.0217081566022709,-0.006271225756593048
1783696349557654500,1.853654541015625,-0.020350129589438437,0.013938180187903344,0.005503748515434563
1783696349567617500,1.863617431640625,-0.030074820268154143,0.006379691099748015,-0.0030384909130632878
1783696349577580800,1.873580810546875,-0.016460720935463906,0.014618161808699369,0.00033584435824304815
1783696349587544600,1.883544677734375,-0.031277181795239445,-0.0031480522347614166,0.004972052791528404
1783696349597507800,1.8935078125,-0.02947626985311508,-0.015914302566461265,0.003688186993449926
1783696349607470600,1.903470703125,-0.015255436798930168,-0.005502689069509506,-0.01522412834521383
1783696349617433600,1.91343359375,-0.03350654828250408,-0.003285305280983448,-0.0006639803340658545
1783696349627397600,1.923397705078125,-0.04323533061444759,0.004595401498861611,0.0037505481725558635
1783696349637360600,1.933360595703125,-0.011813771912455558,0.0051508068919181825,-0.01257339464072138
1783696349647323600,1.94332373046875,-0.02512742699384689,0.007250336454436183,0.0022552315808832646
1783696349657286700,1.95328662109375,-0.04173778553307056,-0.010340155695937573,0.0032220673190429803
1783696349667250700,1.963250732421875,-0.019143676409125326,-0.005996646598912775,-0.00017535656690597534
1783696349677213700,1.973213623046875,-0.03769114049077034,-0.0003839943489059806,0.001936776748858392
1783696349687176700,1.9831767578125,-0.008218962290883064,0.0046228009624406695,-0.010683196979947388
1783696349697140700,1.993140625,-0.028722821137309073,0.0086580112952739,-0.011763429964706302
1783696349707103500,2.003103515625,-0.043382045608758926,0.01197060644198209,0.003763188458420336
1783696349717066500,2.01306640625,-0.040992520123720164,0.006057181147113442,-0.016851802612282335
1783696349727029500,2.023029541015625,-0.014509586867690086,0.011727737596817315,-0.002688398833759129
1783696349736993500,2.03299365234375,-0.045621933490037916,0.016743994856253264,0.00020520371589809655
1783696349746956500,2.04295654296875,-0.028116671937704084,0.0003439180668443441,-0.014776786436513065
1783696349756919600,2.05291943359375,-0.020931728869676588,0.016580949781648813,-0.0012885785058140754
1783696349766882600,2.062882568359375,-0.03185527394413948,-0.012989829954504966,0.00133026222307235
1783696349776846600,2.0728466796875,-0.013754969108104705,0.005123845819756389,-0.012876542305760085
1783696349786809600,2.0828095703125,-0.03020867578089237,0.005094327464327216,0.002000416569598019
1783696349796772600,2.092772705078125,-0.044569794088602066,-0.011391893238574266,-0.00989639398381114
1783696349806735600,2.102735595703125,-0.01360007080733776,-0.0029579730227589605,-0.010725282556004821
1783696349816699400,2.112699462890625,-0.03080781071782112,0.018467421115376054,-0.0029946152387186884
1783696349826662700,2.12266259765625,-0.030512042641639706,0.006750204912573099,-0.00437828814946115
1783696349836625700,2.132625732421875,-0.030221535262465474,0.0077390332868322725,-0.010236220397427678
1783696349846588700,2.142588623046875,-0.026177228307723996,0.017897585338167845,0.0007478592252358793
1783696349856552700,2.152552734375,-0.04667758002281189,0.000613419190607965,-0.009244213685393333
1783696349866515700,2.162515625,-0.03426233508586883,-0.0017583514420315622,-0.0064312020912766455
1783696349876478700,2.172478759765625,-0.030067806005477902,0.0006962751684710383,-0.003317746245861053
1783696349886441700,2.182441650390625,-0.03545885139405727,-0.006963993793725967,-0.024605156685411928
1783696349896405800,2.19240576171875,-0.0055395139485597605,0.006458966881036758,-0.009105864660628139
1783696349906368500,2.202368408203125,-0.027231705796718596,-0.007072020745463669,-0.00227835672814399
1783696349916331500,2.21233154296875,-0.03979834190309047,-0.013943440884910523,-0.007626110964268446
1783696349926295600,2.222295654296875,-0.01764554680585861,0.006539521303959191,-0.020749211909621954
1783696349936258600,2.232258544921875,-0.031102994272112845,0.012417144633084534,0.0009536474630236626
1783696349946221600,2.2422216796875,-0.03334697380661964,0.004798486322909593,0.002559621354937553
1783696349956184600,2.2521845703125,-0.02077916865646839,0.019424027720466256,-0.00929272900223732
1783696349966148600,2.262148681640625,-0.03529109361171722,0.00444930755905807,0.007241897419653832
1783696349976111600,2.272111572265625,-0.0462152232080698,-0.0036245471727102993,-0.001725216357409954
1783696349986074600,2.28207470703125,-0.029004560688138007,0.011605535989254713,-0.008183123792521655
1783696349996037600,2.29203759765625,-0.02511047585904598,-0.005262888964265584,0.008566131760738789
1783696350006001700,2.302001708984375,-0.03544190025925636,-0.004221307489462197,-0.009399988768994807
1783696350015964400,2.31196435546875,-0.028113749328255652,0.0013429025089368224,-0.008431326399929821
1783696350025927400,2.321927490234375,-0.02362345217168331,-0.005847776180133223,0.012644377517700195
1783696350035890700,2.331890625,-0.03709434364140034,0.0016000556077808141,0.0006724193688482045
1783696350045854500,2.3418544921875,-0.02976034749150276,0.0054041971310973165,-0.0025393092192709443
1783696350055817700,2.351817626953125,-0.030951018580794333,0.003883599967695772,0.0064288274710997935
1783696350065780700,2.36178076171875,-0.022576573467254637,-0.00014189268872141837,-0.013793182226642966
1783696350075743700,2.37174365234375,-0.01838847412765026,0.013189334581978619,-0.008967771364189683
1783696350085707800,2.381707763671875,-0.031251462832093235,-0.01258446402400732,0.000034852117672562596
1783696350095670800,2.3916708984375,-0.02946048776209354,-0.0009081278208643198,0.0009209873024374246
1783696350105633500,2.401633544921875,-0.026920155629515646,0.006953983856365084,-0.002381524841673672
1783696350115596500,2.411596435546875,-0.02961655510663986,-0.0011872004905715584,-0.003462853804975748
1783696350125560600,2.421560546875,-0.018250526961684225,0.005489829587936401,0.0030266908774152397
1783696350135523600,2.431523681640625,-0.013908698365092276,0.006068213997781276,0.009269896115921437
1783696350145486600,2.441486572265625,-0.04159048601686954,-0.012012253626622258,0.004420191062428057
1783696350155450600,2.45145068359375,-0.020196400332450865,0.01282777126058936,-0.007292348965257406
1783696350165413600,2.46141357421875,-0.031412790873646734,0.01263908028807491,-0.003691109602898359
1783696350175376600,2.471376708984375,-0.034999417188763614,-0.014460012104921042,-0.009488215041719376
1783696350185339600,2.481339599609375,-0.030068975049257277,0.014303469836339353,0.0035601036343723535
1783696350195303700,2.4913037109375,-0.0362070394128561,0.018090879420563578,-0.00419142380785197
1783696350205266700,2.5012666015625,-0.020649989318847654,-0.005740626011230051,-0.012135916538909077
1783696350215229400,2.5112294921875,-0.023946108254790304,0.004423223269730806,-0.01259816375579685
1783696350225192400,2.5211923828125,-0.03037643356323242,0.01845942047201097,0.0034868192024528977
1783696350235156500,2.531156494140625,-0.0348649771541357,-0.0020282544245943425,-0.011662380743026732
1783696350245119500,2.541119384765625,-0.01376782858967781,0.0017163754638284444,-0.00892122880872339
1783696350255082500,2.55108251953125,-0.02902735704183578,-0.00919909590203315,0.005627411427721381
1783696350265045800,2.561045654296875,-0.027384850531816482,-0.0016169336773455142,-0.00921557211279869
1783696350275009500,2.571009521484375,-0.021245617124438284,0.007708966942131519,-0.010254157912917434
1783696350284972500,2.58097265625,-0.02363397356569767,0.009769662331603467,-0.00483856260497123
1783696350294935800,2.590935791015625,-0.03904664675295353,0.0030120047649368643,-0.0010654738070443271
1783696350304898600,2.600898681640625,-0.019589082089066505,0.01036079662516713,-0.001011478597484529
1783696350314862600,2.610862548828125,-0.04442191005051136,0.0045863048769533635,0.0015949410412460564
1783696350324825600,2.62082568359375,-0.01764203967452049,0.008264810726605355,-0.017816044534556565
1783696350334788600,2.63078857421875,-0.019138415712118148,0.004816021979600191,-0.0032940000440925357
1783696350344751600,2.640751708984375,-0.04576455683112144,-0.004980309163220227,0.0013098039569333195
1783696350354715600,2.650715576171875,-0.0364946241825819,0.002601853061467409,0.0012471870495006441
1783696350364678700,2.6606787109375,-0.024821137523651123,0.005577069479972124,-0.0017672288682311773
1783696350374641700,2.6706416015625,-0.03798515500128269,0.0034617578264325853,0.012195464706420897
1783696350384604700,2.680604736328125,-0.023617606952786443,0.007879720399156213,-0.009617978901229798
1783696350394568700,2.690568603515625,-0.01792787087857723,0.010621749116294085,0.0029874548455700277
1783696350404531700,2.70053173828125,-0.037680034574866295,-0.0060930561780929565,-0.00006159399412572383
1783696350414494500,2.710494384765625,-0.006411620607972145,0.0015461334634572267,-0.003046893415227532
1783696350424457500,2.72045751953125,-0.021371873852610586,0.0047510669846087695,0.004304894119687378
1783696350434421500,2.73042138671875,-0.042616321933269495,-0.007437529589608311,-0.0020069559082388877
1783696350444384500,2.740384521484375,-0.03917465704679489,0.007886332803033292,-0.0029272490909323092
1783696350454347500,2.750347412109375,-0.03378361165821552,0.0005030176186934113,0.009449052075110376
1783696350464310500,2.760310546875,-0.04650397702157497,-0.006927680371329188,0.0038628494406118988
1783696350474274600,2.770274658203125,-0.015083587363362311,0.009558905657753348,-0.005341982082463801
1783696350484237600,2.780237548828125,-0.022864158236980438,0.012418313676863907,0.011831051840819418
1783696350494200800,2.790200927734375,-0.025263620594143867,0.0034978520531207323,-0.002767236223630607
1783696350504164600,2.80016455078125,-0.023771336209774015,0.0012482830280438064,-0.006823270148783922
1783696350514127600,2.810127685546875,-0.038434652334451674,-0.006799414349161088,0.011357698708027601
1783696350524090600,2.820090576171875,-0.03739244980514049,0.008567410402372478,-0.011689414880424737
1783696350534053600,2.8300537109375,-0.03185995011925697,0.015643011344410478,0.013076485324651003
1783696350544017700,2.840017578125,-0.027066286101937294,0.0002094414995983243,0.0027744696820154783
1783696350553979600,2.849979736328125,-0.03409516182541847,-0.01135506835952401,-0.02243873589914292
1783696350563942700,2.859942626953125,-0.018079262048006056,0.0013313582016155122,-0.014746281700395047
1783696350573905700,2.86990576171875,-0.03423427803516388,0.00507956828661263,0.011105696708336471
1783696350583869700,2.87986962890625,-0.0270528420984745,-0.004025017732381821,-0.005498232090100645
1783696350593832700,2.889832763671875,-0.025104630640149114,0.014154234091378748,0.00005677168853580951
1783696350603795700,2.899795654296875,-0.038272155249118804,-0.006640899319201707,-0.003561236145533621
1783696350613758700,2.9097587890625,-0.04606032490730285,-0.010510470761545002,-0.01639945573490113
1783696350623722800,2.91972265625,-0.03902735753059387,0.004056508849188685,0.0054312678011134265
1783696350633685800,2.929685791015625,-0.03618190497159958,0.000921462226472795,0.010890008131042123
1783696350643648500,2.9396484375,-0.01703939760625362,0.005957227903977036,-0.01494395969696343
1783696350653611800,2.94961181640625,-0.017037644040584565,0.012331840969808399,0.0013917466193437576
1783696350663575600,2.959575439453125,-0.021674656191468238,-0.004414163180440664,0.0025155630175024268
1783696350673538600,2.96953857421875,-0.021529694762825964,0.00819072257708758,-0.009362323639728129
1783696350683501800,2.979501708984375,-0.026022330006957053,0.02136683235131204,0.005087167071178555
1783696350693464800,2.98946484375,-0.03514788574874401,0.0032481150757521387,-0.0030371026735752818
1783696350703428900,2.999428955078125,-0.03126782944500446,0.006216024970635771,-0.00933437618687749
1783696350713391900,3.009391845703125,-0.028273908326029776,0.009063048432208598,0.0025950579944998024
1783696350723355000,3.01935498046875,-0.03784896140098572,-0.004848864803276956,-0.009875972250290214
1783696350733317600,3.029317626953125,-0.02797346407473087,0.009874766673892735,-0.015570749825797973
1783696350743282000,3.039281982421875,-0.033956045615673065,0.004156023700907827,-0.003045980099774897
1783696350753244700,3.04924462890625,-0.04098842847049236,-0.00418609004560858,0.0010783332886174321
1783696350763207700,3.059207763671875,-0.025577508848905563,0.0017373451866209506,-0.01015036874487996
1783696350773170700,3.069170654296875,-0.025870938837528227,-0.00496372335460037,0.0025431451441720126
1783696350783134700,3.079134765625,-0.04083236112594604,0.008838920820131898,-0.010440803058817982
1783696350793097700,3.08909765625,-0.02871463783085346,-0.005342822332680225,-0.0017271160535514353
1783696350803060700,3.099060791015625,-0.026617373290657994,0.003224040080420673,0.008030965438112617
1783696350813023700,3.109023681640625,-0.03215338010787964,-0.0006845481980592012,-0.00992035938128829
1783696350822987800,3.11898779296875,-0.017938976794481275,0.00891103620827198,-0.013352525787055492
1783696350832950800,3.12895068359375,-0.03858195185065269,-0.002344699962623417,-0.004082739268988371
1783696350842913500,3.13891357421875,-0.04217734599411487,-0.0003493979595601558,-0.011665887874364853
1783696350852876500,3.14887646484375,-0.011804419562220572,0.017342399140819906,-0.0030793343801051374
1783696350862840600,3.158840576171875,-0.027962942680716512,0.013225392276048659,0.005432363779656588
1783696350872803600,3.168803466796875,-0.04023848688602447,-0.00754661598727107,-0.004031009081751108
1783696350882766800,3.178766845703125,-0.022282558956742287,0.014081936040148138,-0.0076601958969607946
1783696350892729900,3.188729736328125,-0.0493652116715908,0.0014948782002553343,-0.0030415231203660366
1783696350902693600,3.198693603515625,-0.046530280506610865,0.0005334492895752191,-0.016242000150866805
1783696350912657000,3.208656982421875,-0.01854921764731407,0.010377272835932672,0.012416194785013794
1783696350922620000,3.218619873046875,-0.04293780897259712,-0.006681231329590082,0.0024686916684731838
1783696350932582700,3.228582763671875,-0.027369068440794942,0.006166925131902098,-0.012283544848673045
1783696350942547000,3.238546875,-0.024817630392313002,0.009065167324058711,-0.004606324751675129
1783696350952509700,3.248509765625,-0.027801614639163016,-0.001904993371106684,-0.006589790186472237
1783696350962472700,3.25847265625,-0.014633505508303642,0.0070329308440908785,-0.003241027747839689
1783696350972435700,3.268435791015625,-0.029295652589201925,0.008951222088187933,-0.0046270752787590025
1783696350982399700,3.278399658203125,-0.034088147562742234,-0.008630831027403474,0.0040759442020207644
1783696350992362800,3.28836279296875,-0.03334229763150215,0.003370097487606108,-0.008472608258388937
1783696351002325800,3.29832568359375,-0.029593174231052396,0.013633973076939582,-0.013567081853188574
1783696351012288800,3.308288818359375,-0.041861704173684115,0.008020297913625836,-0.00084156539067626
1783696351022252800,3.318252685546875,-0.0351309346139431,0.007820683688297867,0.0020089286696165797
1783696351032215800,3.3282158203125,-0.02120703867971897,0.019224340429902075,-0.008076192819327116
1783696351042178600,3.338178466796875,-0.03841360954642296,-0.005016695650853217,-0.01770597175620496
1783696351052141600,3.3481416015625,-0.03018295681774616,0.013730601851828396,-0.00919558877069503
1783696351062105600,3.358105712890625,-0.036468320697546006,-0.012531345597282051,-0.005095240779779851
1783696351072068600,3.368068603515625,-0.03347498410046101,-0.004432100695930421,0.007424341314472257
1783696351082031600,3.378031494140625,-0.012670096480846405,0.007049224391765892,-0.0021840295081958176
1783696351091995000,3.387994873046875,-0.03616203122735023,-0.0065731678452342745,0.004517587022297084
1783696351101958700,3.397958740234375,-0.03751110774874687,-0.006558445200137794,-0.013982421188428996
1783696351111921700,3.407921630859375,-0.021948796957731245,0.007986359111405909,-0.0004972454650327563
1783696351121885000,3.417885009765625,-0.039005730220675466,0.0028504575276747345,0.007595350499823689
1783696351131847700,3.42784765625,-0.025687983486056325,-0.013953889213688671,-0.016888335230387748
1783696351141812000,3.43781201171875,-0.013421791630983351,0.007034172953106463,-0.002301628005877137
1783696351151774700,3.447774658203125,-0.04169453091323375,-0.008419087972864508,0.008872238567844033
1783696351161737700,3.45773779296875,-0.02763794851005077,-0.00011745236720889805,-0.007269808339886367
1783696351171700700,3.46770068359375,-0.025843466308712957,-0.002534450381062925,-0.009896576646901667
1783696351181664800,3.477664794921875,-0.022542671197652814,0.004901946697384119,-0.0017163754638284444
1783696351191627800,3.487627685546875,-0.03601414718925953,-0.00002294248417019844,-0.01462101135291159
1783696351201590800,3.4975908203125,-0.032576573956012725,0.0038620457230135797,-0.0022274302585050462
1783696351211553800,3.5075537109375,-0.05157821154594421,0.0043489524571225045,-0.01640687185637653
1783696351221517800,3.517517822265625,-0.027630349725484848,-0.003084083620458841,-0.008216624203324318
1783696351231480800,3.527480712890625,-0.02508124976456165,0.002997245587222278,0.001138867836818099
1783696351241443600,3.537443603515625,-0.040350715088844295,0.003680697806738317,0.0006090352764353156
1783696351251406600,3.547406494140625,-0.025842297264933586,0.01403152102716267,-0.005225479563325643
1783696351261370600,3.55737060546875,-0.019698387682437896,0.010597381860017775,-0.0003456716325134039
1783696351271333600,3.567333740234375,-0.03241875304579735,0.0014867314264178275,-0.0025892127756029365
1783696351281296600,3.577296630859375,-0.02314765135347843,0.010645933709479867,0.007591879901103675
1783696351291259600,3.587259765625,-0.03526069847345352,0.006031169923022389,0.0011041983822360634
1783696351301223700,3.5972236328125,-0.03586041793227195,-0.008545929222926497,-0.004517148630879819
1783696351311186700,3.607186767578125,-0.03182955498099327,0.0022888781221583484,-0.007619644690863787
1783696351321150000,3.61714990234375,-0.025244915893673895,0.001271590838395059,0.0026416005499660966
1783696351331112700,3.62711279296875,-0.017466683107614515,0.005379318418167531,-0.009475465158000587
1783696351341076700,3.63707666015625,-0.02076338656544685,0.0071870984924957155,0.0015547551613301037
1783696351351039700,3.647039794921875,-0.035574586728215216,-0.0007916253017261624,0.003038637043535709
1783696351361002800,3.657002685546875,-0.03782148887217045,0.01778681844007224,-0.003811740307882428
1783696351370965800,3.6669658203125,-0.010140870264172553,0.01241272418629378,-0.006455496282316744
1783696351380929800,3.6769296875,-0.021354922717809675,0.007395918937586248,0.014342304009385406
1783696351390892800,3.686892822265625,-0.03901215996146202,-0.0011587050484493373,-0.016143690875545142
1783696351400855800,3.696855712890625,-0.02210194169282913,0.011647292771749198,-0.0035217443853616712
1783696351410818800,3.70681884765625,-0.04244330345392227,0.0028976942028850314,0.0016908026311546562
1783696351420782800,3.716782958984375,-0.039758594414591786,0.01407196263540536,0.0001616933677345514
1783696351430745900,3.726745849609375,-0.017163316246867177,0.019104915301315487,-0.013523681102879345
1783696351440708600,3.73670849609375,-0.040348961523175235,-0.005190225586853921,0.005006174256838858
1783696351450671600,3.746671630859375,-0.03466682423353195,-0.004834361353889108,-0.011701287981308995
1783696351460635600,3.7566357421875,-0.011324527090787887,0.024383184497803446,-0.007089702532626688
1783696351470598700,3.7665986328125,-0.041399931880831714,0.006196553085185587,-0.003186521081626415
1783696351480561700,3.776561767578125,-0.029581483793258666,-0.0005554784582927823,-0.01894022625889629
1783696351490524700,3.786524658203125,-0.018504209461808203,0.007864668960496783,-0.002749152577668428
1783696351500488700,3.79648876953125,-0.028226562052965164,0.0019390052385628222,0.001539776787906885
1783696351510451700,3.80645166015625,-0.013270400461554527,-0.005694814108125865,-0.0031699352730065584
1783696351520414700,3.816414794921875,-0.01671148082613945,0.011913761688210069,0.00001629354767501354
1783696351530377700,3.826377685546875,-0.049776130560040474,-0.0034503596495836972,-0.0031434125922620293
1783696351540341500,3.836341552734375,-0.043649172112345695,0.005107808000408113,-0.011923808158189058
1783696351550304800,3.8463046875,-0.04739011220633983,0.004222330402769148,0.006478804092667997
1783696351560268000,3.85626806640625,-0.03602349953949451,-0.004952909699641168,-0.0039747488498687745
1783696351570231000,3.86623095703125,-0.02810205889046192,-0.006345679232291877,-0.01207172872889787
1783696351580195000,3.876195068359375,-0.022861235627532003,-0.006512669829651713,0.010437916981987655
1783696351590158000,3.886157958984375,-0.017027122646570206,-0.004072911994718015,-0.014411752516403793
1783696351600121000,3.89612109375,-0.03558160099089146,0.007851736413687468,-0.014517331782728432
1783696351610084000,3.906083984375,-0.03767068222463131,0.0013343904089182614,0.004892484749294817
1783696351620048100,3.916048095703125,-0.027048165923357008,-0.02930182660166174,-0.007989354786090553
1783696351630011000,3.926010986328125,-0.016127543458342553,0.0013694251896813512,-0.0011612988643348217
1783696351639974000,3.935973876953125,-0.043804070413112635,0.014206000811234116,0.005572685565799474
1783696351649937000,3.94593701171875,-0.04125789306163788,-0.010930522804521024,-0.002117174817062914
1783696351659901000,3.95590087890625,-0.011184826359152793,0.0014560074945911764,-0.0018097893683239816
1783696351669864000,3.965864013671875,-0.035874446457624436,-0.005406754414364695,0.002181508757546544
1783696351679827000,3.975826904296875,-0.0279459915459156,0.007635682510212063,0.0014808496749028563
1783696351689790000,3.9857900390625,-0.019566870257258413,0.014480214642733335,-0.00802512021921575
1783696351699754000,3.99575390625,-0.02899579285979271,0.013351539406366646,0.0001555558878928423
1783696351709717000,4.005717041015625,-0.029451135411858557,0.001581497037783265,-0.000022796353697776793
1783696351719679700,4.0156796875,-0.029603695625066755,0.005612359989061951,0.0018649901542812585
1783696351729642800,4.025642822265625,-0.04276712858080864,0.011570391610637306,-0.0019677198763936757
1783696351739606800,4.035606689453125,-0.04052782522141933,0.004265292761661112,-0.01426806972939521
1783696351749569800,4.04556982421875,-0.022722119417786596,-0.007597286728583276,0.009904138898849486
1783696351759533000,4.055532958984375,-0.03453706037402153,0.004236578123830259,0.004020962611772119
1783696351769496000,4.06549609375,-0.02856090857386589,0.004777187806554138,-0.007502521117217839
1783696351779459800,4.0754599609375,-0.029756255838274955,0.013714710162952542,0.001472227977029979
1783696351789423000,4.085423095703125,-0.04680909744799137,0.0014763196302577852,0.0023037103651091457
1783696351799386000,4.09538623046875,-0.02436813305914402,0.012000636254064738,-0.019471008667349816
1783696351809348900,4.105348876953125,-0.030500352203845976,0.00012808335907757282,0.014634345758520066
1783696351819313200,4.115313232421875,-0.036789223214983936,-0.0016246055271476507,0.0022637436809018253
1783696351829276000,4.12527587890625,-0.029461072283983227,0.0010586787400767206,-0.004624043071456254
1783696351839239000,4.135239013671875,-0.026312837386131285,0.0059172977523878215,0.00010386223327368497
1783696351849202000,4.145201904296875,-0.03453764489591121,0.00905124839656055,0.006387837873585522
1783696351859165000,4.1551650390625,-0.004165887507796288,0.0038260976267978546,-0.0021627309918403623
1783696351869129000,4.16512890625,-0.02750818465054035,-0.00032744185607880353,0.011521328304521739
1783696351879092000,4.175092041015625,-0.037385435542464256,-0.007541611018590628,-0.010904986504465341
1783696351889055000,4.185054931640625,-0.016591069316864014,0.01163724630177021,-0.022606055290065704
1783696351899018000,4.19501806640625,-0.020777999612689016,0.006988434115238487,-0.0023375395694747564
1783696351908982000,4.20498193359375,-0.043377369433641434,0.0017328151419758796,0.0046286827139556405
1783696351918944800,4.21494482421875,-0.027815058642625807,-0.00012717004362493753,-0.012486227813921868
1783696351928907800,4.22490771484375,-0.029300328764319417,-0.0014083324279636144,-0.0038606209509074686
1783696351938870800,4.234870849609375,-0.02720715587735176,-0.0010829729311168193,0.0046784766724333165
1783696351948834800,4.244834716796875,-0.03005319295823574,0.010293613140471279,-0.0030238413332030175
1783696351958797800,4.2547978515625,-0.0397755455493927,0.005501410427875816,-0.003734693016298115
1783696351968761000,4.264760986328125,-0.030652327895164488,-0.008216660735942422,-0.00860555045567453
1783696351978724000,4.27472412109375,-0.02616495334804058,0.02031772515717894,-0.010432108295708894
1783696351988688000,4.28468798828125,-0.032598201265931125,-0.0058420040264725685,-0.0013696809180080889
1783696351998651100,4.294651123046875,-0.030803719064593314,-0.0059883171619847415,-0.004045475998520851
1783696352008614000,4.30461376953125,-0.016738368833065034,0.013416896260157227,0.00008015256412327289
1783696352018577000,4.314576904296875,-0.03648760991990566,-0.007829195788316428,-0.016460465207137166
1783696352028541000,4.324541015625,-0.0352963543087244,-0.005010631236247718,-0.01401767516490072
1783696352038504000,4.33450390625,-0.03469897293746471,0.0012377981666475534,0.0013430851720273493
1783696352048467000,4.344467041015625,-0.04052957878708839,-0.008384345453046262,-0.008477174835652112
1783696352058430000,4.354429931640625,-0.0405336704403162,0.002809321799688041,-0.006368694781698286
1783696352068394000,4.36439404296875,-0.02452712301313877,0.0049420595120638604,-0.0033063846016302702
1783696352078357000,4.37435693359375,-0.03155599873661995,-0.00537606701515615,0.007191738134995102
1783696352088320000,4.384320068359375,-0.023930910685658453,0.0011229396153241396,-0.0015279036870226262
1783696352098283000,4.394282958984375,-0.03934358387291431,0.004398965611308813,-0.008839249613694845
1783696352108247000,4.4042470703125,-0.03380757705569267,0.013270875385589897,-0.00035549890678375956
1783696352118209800,4.414209716796875,-0.022294833916425703,0.004397686969675124,0.0084507617527619
1783696352128172800,4.4241728515625,-0.03920388314127922,0.015617621174827217,0.01040054411366582
1783696352138135800,4.4341357421875,-0.0375578694999218,-0.0008085399039089679,-0.0023637699892744423
1783696352148099800,4.444099853515625,-0.03502045997679233,0.011916903493367135,-0.0177440387442708
1783696352158062800,4.454062744140625,-0.03786006731688976,0.0027879867507144807,-0.005273519956134259
1783696352168025900,4.46402587890625,-0.05835515833497047,-0.003828618377447128,0.0016512012731283903
1783696352177989000,4.473989013671875,-0.029330139380693433,0.006922858065739274,-0.0074632485527545206
1783696352187952000,4.4839521484375,-0.02034486889243126,0.0127146297423169,0.007947305742651223
1783696352197916000,4.493916015625,-0.03800035257041454,-0.012082725046947598,-0.004438530436716974
1783696352207879000,4.50387890625,-0.02333762096762657,-0.007050795294344425,-0.006850048557855188
1783696352217842000,4.513842041015625,-0.0285690918803215,0.0032339769525453446,0.006807488057762384
1783696352227805000,4.523804931640625,-0.03439560607671738,-0.001644881130196154,-0.0033734950210899113
1783696352237769000,4.53376904296875,-0.027064532536268233,0.007289828214608132,-0.006862871506810188
1783696352247732000,4.54373193359375,-0.03932838630378246,0.009188684105873108,-0.0001020356023684144
1783696352257695000,4.553695068359375,-0.02675532045662403,-0.014398710371740162,-0.0077072499090805645
1783696352267658000,4.563657958984375,-0.006550152295827865,0.007491415201313793,0.0026498203890398145
1783696352277622000,4.5736220703125,-0.049183425363898275,-0.007013239762932061,-0.004140899197012186
1783696352287585000,4.5835849609375,-0.027642624685168263,-0.008973032061196862,-0.007870368048921227
1783696352297548000,4.593548095703125,-0.007595861956477165,0.015163520731776951,0.0020928075607866046
1783696352307510800,4.6035107421875,-0.03825988028943538,0.003968428706936538,-0.013652020190283656
1783696352317474800,4.613474853515625,-0.017166238856315612,-0.016674034892581402,-0.013651253005303442
1783696352327437800,4.623437744140625,-0.02539338445365429,-0.0013171470131725072,0.0011410597939044236
1783696352337400800,4.63340087890625,-0.052175008395314214,-0.012269589388556778,-0.011042349148541688
1783696352347363800,4.64336376953125,-0.027791093245148658,0.00035692367888987063,0.0031527284098789095
1783696352357328000,4.653327880859375,-0.031086043137311933,0.005920110763981938,0.004250606649182737
1783696352367291000,4.663290771484375,-0.031682839986681935,-0.006863930952735245,-0.0020430866675451398
1783696352377254000,4.67325390625,-0.027647885382175445,-0.010446209886297584,-0.016871968617476522
1783696352387217200,4.683217041015625,-0.01986030024588108,0.013039916173927486,-0.009210347948409617
1783696352397181000,4.693180908203125,-0.031082536005973813,0.0021396789098158476,-0.0035826442597433924
1783696352407144000,4.70314404296875,-0.02794949867725372,-0.0022831790337339043,-0.0011486951110884545
1783696352417107000,4.71310693359375,-0.027948329633474347,0.006510441339947283,0.009635624155774711
1783696352427070000,4.723070068359375,-0.03587970715463161,-0.007632796433381736,-0.0019633359622210265
1783696352437034000,4.733033935546875,-0.015831190860271453,0.012586619448475538,-0.007433182208053767
1783696352446997000,4.7429970703125,-0.0409650475949049,0.020570603939704595,0.0036039062434807417
1783696352456960000,4.7529599609375,-0.041564767053723334,-0.002291033546626568,-0.007767711392045021
1783696352466923000,4.762923095703125,-0.035733576682209965,-0.0010720496783033014,-0.017535875886306167
1783696352476886000,4.772885986328125,-0.044701896035671235,-0.002370674654096365,-0.0007845014411956071
1783696352486850000,4.78285009765625,-0.034523616370558736,0.0047475233206525445,-0.0006213467687368392
1783696352496812800,4.792812744140625,-0.025994857478141783,0.02113506942205131,-0.008438267597369849
1783696352506775800,4.80277587890625,-0.03900689926445484,0.007922427029721438,0.004749897940829396
1783696352516738800,4.81273876953125,-0.037359716579318046,0.0020395795362070203,-0.00644406157284975
1783696352526702800,4.822702880859375,-0.027639117553830146,0.011332016277499496,-0.007489625103026628
1783696352536665900,4.832665771484375,-0.01776245118379593,-0.010158880844898521,0.0033377661205828187
1783696352546628900,4.84262890625,-0.009088146340847016,-0.007300934130512178,-0.0016389993786811827
1783696352556592400,4.85259228515625,-0.03886836757659912,0.011365991612337529,0.006725253134407102
1783696352566556400,4.862556396484375,-0.04126315375864505,-0.001299903617426753,0.009055157386697828
1783696352576519400,4.87251953125,-0.03796878838837146,0.0001714841093868017,0.0010841785075142978
1783696352586482400,4.882482421875,-0.032579496565461157,0.018321473306044934,0.002808225821144879
1783696352596445400,4.892445556640625,-0.03885784618258476,-0.006104344757087528,0.005070106338523328
1783696352606409500,4.902409423828125,-0.03856149358451366,0.010658354799635708,-0.0174422793187201
1783696352616372200,4.912372314453125,-0.019257658177614212,0.014401450318098067,0.006178031047806143
1783696352626335500,4.92233544921875,-0.047238721036911006,0.004150361145101487,0.007533281581662595
1783696352636298500,4.932298583984375,-0.030036826345324515,0.0023895620176568625,-0.011318864534981548
1783696352646262500,4.942262451171875,-0.008334697625041007,0.02190426369626075,0.003767024383321404
1783696352656225500,4.9522255859375,-0.036164953836798665,-0.0009704524673521518,0.015342530560493468
1783696352666188500,4.9621884765625,-0.02494505616426468,0.004089534335955977,-0.007428104174137115
1783696352676151600,4.972151611328125,-0.025243746849894524,-0.000997194343805313,0.005723967137373984
1783696352686114600,4.982114501953125,-0.03720364923477173,-0.005561616182513535,0.0005739274304360151
1783696352696078600,4.99207861328125,-0.027333412605524063,0.005219524746574461,-0.00226904091052711
1783696352706041300,5.002041259765625,-0.031221652215719223,0.014788513406924903,0.016836130119115115
1783696352716004400,5.01200439453125,-0.03930149829685688,0.004817373686470091,0.0013201426878571509
1783696352725967400,5.02196728515625,-0.030324411115050316,-0.0051331616373732685,-0.013654467875696718
1783696352735931400,5.031931396484375,-0.0280681566208601,-0.0010359554516151546,0.010523184112645686
1783696352745894400,5.041894287109375,-0.03749532565772533,-0.00534231087602675,0.0022505554057657717
1783696352755857400,5.051857421875,-0.024782559078931808,0.0011224281586706638,-0.01691193530168384
1783696352765820400,5.0618203125,-0.02925882771015167,0.0015882921047508717,0.006086114980652928
1783696352775784400,5.071784423828125,-0.04332476246356964,-0.0040402153015136714,-0.0035679216146469114
1783696352785747500,5.08174755859375,-0.02552314831316471,0.003354023135639727,-0.01247928661648184
1783696352795710200,5.091710205078125,-0.0352396556854248,0.010476422361470759,0.0009371712522581219
1783696352805673500,5.101673583984375,-0.0421282461553812,0.00971365782804787,-0.008976210398972034
1783696352815637200,5.11163720703125,-0.03375087843239307,0.0031179128248244523,-0.00963405325319618
1783696352825600500,5.1216005859375,-0.037489480438828465,-0.008522511814720928,-0.01005721056871116
1783696352835563500,5.1315634765625,-0.05200958870053291,-0.0018539207709953188,0.0007598784565925597
1783696352845526500,5.141526611328125,-0.03614917174577713,-0.004726809326186776,-0.010979074653983116
1783696352855490600,5.151490478515625,-0.030906594917178152,-0.0018564049890264867,0.001543503114953637
1783696352865453600,5.16145361328125,-0.03734568805396556,0.009132570004463195,-0.01054050057362765
1783696352875416600,5.17141650390625,-0.009960837522149085,0.0072478887690231196,-0.010436638340353965
1783696352885379600,5.181379638671875,-0.04572188673317432,0.0015291823286563157,-0.003128288088366389
1783696352895343600,5.191343505859375,-0.0369043740272522,-0.0061173869017511606,-0.0011972104279324412
1783696352905306400,5.201306396484375,-0.021793314135074616,0.004846197922155261,-0.004171951922401785
1783696352915269400,5.211269287109375,-0.03300853563249111,-0.0073039663378149265,0.0014728855641558765
1783696352925232400,5.221232421875,-0.03136836721003056,0.0009851020472124218,-0.0018695932641625403
1783696352935195400,5.2311953125,-0.02178922248184681,0.001885010029003024,-0.01047393814343959
1783696352945159400,5.241159423828125,-0.035253099688887596,-0.009344020798057318,-0.012062851302698253
1783696352955122400,5.251122314453125,-0.019992986714839935,0.01231678953114897,-0.0035490342510864138
1783696352965085400,5.26108544921875,-0.034955578047037125,0.016799670566245914,0.00989646704904735
1783696352975048400,5.27104833984375,-0.02537935592830181,-0.010210757162608206,-0.008461794603429735
1783696352985012500,5.281012451171875,-0.014155951124429703,0.019501403805613517,-0.007477423208579421
1783696352994975200,5.290975341796875,-0.036600422644615174,0.013663089573569594,0.019114888706058264
1783696353004938200,5.300938232421875,-0.027175591695308685,0.012541574730351567,0.00577383416108787
1783696353018015500,5.314015380859375,-0.01805295856297016,0.005240896328166127,-0.000851246534474194
1783696353027979300,5.323979248046875,-0.03825286602675915,-0.008654248435609042,-0.00406052743718028
1783696353037942500,5.333942626953125,-0.02943301523327827,-0.0164336867980659,-0.018371084601432084
1783696353047905500,5.343905517578125,-0.03362462170422077,0.013712773934192955,-0.014628573604859411
1783696353057868500,5.35386865234375,-0.03990881654024124,0.0028223274117335677,0.008806552920490502
1783696353067832600,5.36383251953125,-0.025402736803889273,-0.004695318209379911,-0.01189290156327188
1783696353077795600,5.373795654296875,-0.02091127060353756,0.013531974007189272,0.0013898834558203816
1783696353087758600,5.383758544921875,-0.036166122880578036,0.0017245222376659512,-0.0038106443293392657
1783696353097721300,5.393721435546875,-0.03213409088551998,-0.006123159055411815,0.0037964331408962605
1783696353107684400,5.403684326171875,-0.022563129463791846,0.00022354309018701314,-0.0076338924119248985
1783696353117648400,5.4136484375,-0.03707330085337162,-0.0008501140233129263,-0.0032352190615609288
1783696353127611400,5.423611328125,-0.03453179967701435,-0.008839980266056955,-0.019398418355174363
1783696353137574400,5.433574462890625,-0.020459435182809828,0.004224157033674418,0.011520086195506155
1783696353147537400,5.443537353515625,-0.024195699101686476,0.014999818070046602,-0.00776993988174945
1783696353157501400,5.45350146484375,-0.03826689455211162,-0.0014609759306535124,-0.010901990829780698
1783696353167464400,5.46346435546875,-0.028688334345817565,0.0020997122256085276,-0.00042863720823079344
1783696353177427500,5.473427490234375,-0.042754269099235534,0.002839132416062057,-0.005358531358465552
1783696353187390200,5.48339013671875,-0.027638533031940457,0.003635251229815185,-0.006929032078199089
1783696353197354500,5.4933544921875,-0.025539514926075934,0.006296469795703887,0.0012226005975157022
1783696353207317200,5.503317138671875,-0.024494974309206007,-0.0023153277376666663,-0.003278035289980471
1783696353217280500,5.513280517578125,-0.010436638340353965,0.0008862082500010728,0.0010586787400767206
1783696353227243500,5.523243408203125,-0.01552022521495819,0.014652319806627928,0.0135024556517601
1783696353237207300,5.533207275390625,-0.040210429835319514,-0.002810746571794152,-0.0010698211885988712
1783696353247170600,5.543170654296875,-0.024503742137551306,0.012204305600002407,-0.011920227961614727
1783696353257133600,5.553133544921875,-0.029735797572135923,0.009656228552386164,0.004846672846190631
1783696353267096600,5.5630966796875,-0.022097850039601324,-0.00174395759049803,-0.013116853867657482
1783696353277059600,5.5730595703125,-0.02104980229139328,0.00341331557482481,-0.0046447570659220215
1783696353287023600,5.583023681640625,-0.040649405774474144,0.005523951053246856,0.006181757374852896
1783696353296986400,5.592986328125,-0.04573766882419586,0.0015598331952467559,-0.0021461451832205055
1783696353306949400,5.602949462890625,-0.02344575751721859,0.009419570252299309,-0.005714432124048471
1783696353316912400,5.612912353515625,-0.02703764452934265,0.007863134590536355,0.0025577216587960717
1783696353326876400,5.62287646484375,-0.02763794851005077,0.0005421075200662017,-0.01237458413299173
1783696353337461500,5.63346142578125,-0.01596738446056843,0.011015168880671262,-0.0026120821945369243
1783696353347424500,5.643424560546875,-0.03885726166069507,-0.001250292322039604,-0.000371427128277719
1783696353357388500,5.653388427734375,-0.01805821925997734,0.0014363894786685704,-0.009315708019025624
1783696353367351600,5.6633515625,-0.0246346750408411,0.01237498599179089,0.005756773428432643
1783696353377314300,5.673314208984375,-0.025974399212002754,-0.009782193019613623,0.00033317747712135315
1783696353387277300,5.68327734375,-0.02792787136733532,0.009510828732326625,-0.003958163041248917
1783696353397241300,5.693241455078125,-0.031818449065089224,0.0009337737187743186,0.004339344378560781
1783696353407204400,5.703204345703125,-0.03316109584569931,0.0033184768982231615,-0.007897584849409759
1783696353417167400,5.71316748046875,-0.019396189865469933,0.01079622890036553,-0.009935008961148559
1783696353427130400,5.72313037109375,-0.022239888858795166,-0.006080342826992273,-0.006510477872565389
1783696353437093400,5.73309326171875,-0.03331190249323845,-0.006769494134932756,0.0008415288580581545
1783696353447057400,5.743057373046875,-0.03196867119073868,0.003678067458234727,-0.00424691685475409
1783696353457020400,5.7530205078125,-0.03061959466934204,0.00856127292253077,0.0014410291211679577
1783696353466983700,5.762983642578125,-0.04333645290136337,0.00688475454505533,-0.005760828549042344
1783696353476946400,5.772946533203125,-0.026883915272355077,-0.001439458218589425,-0.011010346575081348
1783696353486910500,5.782910400390625,-0.02882452794611454,-0.001637245813012123,0.000003908990137279033
1783696353496873500,5.79287353515625,-0.032712767556309696,0.0009220102157443762,-0.0057741264220327135
1783696353506836500,5.80283642578125,-0.023591887989640233,0.009787819042801857,-0.0015831775382161139
1783696353516799500,5.812799560546875,-0.04199614420831203,0.015530052489228546,0.002947524693980813
1783696353526763500,5.822763427734375,-0.03153086429536343,0.005223324138857424,-0.010932495565898715
1783696353536726500,5.8327265625,-0.02091243964731693,0.01120053538493812,-0.012686828419938683
1783696353546689500,5.842689453125,-0.037816812697052955,-0.007225603871978819,0.008891564322821795
1783696353556651500,5.852651611328125,-0.039164720174670216,-0.0027053134359419344,-0.005630735895968973
1783696353566615600,5.862615478515625,-0.018517653465270994,0.009531067802757025,-0.008490472708642482
1783696353576578600,5.87257861328125,-0.034977205356955525,0.001902947544492781,0.0009175167037174105
1783696353586541600,5.88254150390625,-0.03407996425628662,0.01268262716885656,-0.0028214140962809324
1783696353596504600,5.892504638671875,-0.024060674545168876,0.01702891274485737,-0.002931267678923905
1783696353606467800,5.9024677734375,-0.03916822730600834,0.003798771228455007,-0.01723455485217273
1783696353616431600,5.912431640625,-0.04230535628795624,0.005315386336483061,-0.011226948467828332
1783696353626394600,5.92239453125,-0.015214520266652107,0.0068430342951789494,-0.00496953204087913
1783696353636358000,5.93235791015625,-0.042885786524415014,0.01193063975777477,0.0017801614150404928
1783696353646320600,5.942320556640625,-0.030916531789302825,-0.004409961929358542,-0.018467822974175215
1783696353656284700,5.95228466796875,-0.009964344653487205,0.011926073180511592,0.007194185820408165
1783696353666247700,5.96224755859375,-0.032550854992866515,-0.0032471652276813982,-0.004801335867121816
1783696353676210700,5.972210693359375,-0.028063480445742604,0.0013706307660788298,0.006803359871916472
1783696353686173700,5.982173583984375,-0.020731822383403778,0.005078180047124624,0.012251944134011863
1783696353696137700,5.9921376953125,-0.04676233569681644,-0.006149060681648552,-0.0034805721247568723
1783696353706100700,6.002100830078125,-0.023573183289170265,0.0020992738341912625,-0.0024818799436092374
1783696353716063700,6.012063720703125,-0.032550270470976826,0.014324658754840493,0.00263345377612859
1783696353726026800,6.02202685546875,-0.05260170937478542,0.0031741365240886806,-0.010181092676706612
1783696353735990800,6.03199072265625,-0.029110943672060966,0.002381232580728829,-0.010343991620838641
1783696353745953800,6.041953857421875,-0.01968260559141636,0.008211071245372296,-0.005730725671723485
1783696353755916500,6.05191650390625,-0.046615620702505106,0.0028649244444444773,-0.0009040727002546191
1783696353765879600,6.061879638671875,-0.026864041528105734,0.0071784767946228385,-0.01147482228167355
1783696353775843600,6.071843505859375,-0.03149754654765129,0.008039514070749283,0.003384052947722375
1783696353785806600,6.081806640625,-0.056037529042363164,-0.008117438145168125,0.0008162848189473151
1783696353795769600,6.09176953125,-0.023414193335175512,0.001408916949853301,-0.011908354860730469
1783696353805732600,6.101732666015625,-0.030885552129149434,-0.0045713630361482495,0.012533793282695114
1783696353815696600,6.111696533203125,-0.03926350437402725,-0.007617562331631779,-0.004503375833854079
1783696353825659600,6.12165966796875,-0.0244517196893692,0.002522504214942455,-0.010971183608472346
1783696353835623000,6.131622802734375,-0.02892740379869938,-0.004158836712501943,-0.001958623254485428
1783696353845585700,6.141585693359375,-0.048230070161819454,-0.007932071640901267,-0.012251030818559229
1783696353855549700,6.1515498046875,-0.03042611792385578,0.00516699084173888,0.0042391354070976375
1783696353865512700,6.1615126953125,-0.04853051441311836,0.01315795306302607,0.00005552957952022552
1783696353875475700,6.171475830078125,-0.03821078045070171,-0.00007474573664367198,-0.0025881533296778798
1783696353885438700,6.181438720703125,-0.017108955711126327,0.017499197137728333,-0.01618376715760678
1783696353895401700,6.191401611328125,-0.028186814564466475,0.0022239596597850323,-0.007559110142663121
1783696353905365800,6.20136572265625,-0.02879179472029209,-0.002629910112172365,-0.02483984222412109
1783696353915328800,6.211328857421875,-0.032681787896156306,0.012603935909457504,-0.00371116601023823
1783696353925291800,6.221291748046875,-0.03881166895329952,0.011381116116233169,-0.0006953253204002975
1783696353935254500,6.231254638671875,-0.025952187380194662,0.0052143371148034925,-0.00926478154938668
1783696353945218800,6.24121875,-0.011586392897367476,0.008248626776784658,-0.00799271578695625
1783696353955181600,6.251181640625,-0.03566635666489601,0.00041687370520085095,0.007888634357973932
1783696353965144600,6.26114453125,-0.03552081071436405,0.003610664777830243,-0.021828823839873075
1783696353975107600,6.271107666015625,-0.0383639251857996,0.008756137907505035,-0.006202361771464347
1783696353985071600,6.281071533203125,-0.0247480722874403,-0.0002361103108152747,-0.005909772033058106
1783696353995034600,6.29103466796875,-0.020117489877343176,0.012108370944857597,-0.012650916856341064
1783696354004997600,6.30099755859375,-0.03613046704530716,0.01270436407662928,-0.00003094312753528356
1783696354014960600,6.310960693359375,-0.04705576568543911,-0.004232632601074874,-0.0019476269364356994
1783696354024924700,6.320924560546875,-0.023114333605766296,0.0017306597175076603,-0.014615348797105252
1783696354034887700,6.3308876953125,-0.027749592190980908,0.020690357861854136,0.0011988543957471847
1783696354044850700,6.3408505859375,-0.024306758260726927,-0.0016060469571501017,-0.009910495574399828
1783696354054813700,6.350813720703125,-0.011438508859276771,-0.0031744653176516294,-0.015628361764550208
1783696354064777700,6.36077783203125,-0.02744973246157169,0.0014820552513003348,0.0015588833471760152
1783696354074740700,6.37074072265625,-0.048854924061894414,0.005135682388022542,-0.009697473878227173
1783696354084703700,6.380703857421875,-0.030002924075722692,0.013354169754870235,-0.011403291415423154
1783696354094666800,6.390666748046875,-0.024459318473935125,0.012129596395976841,0.0017546251149848102
1783696354104630800,6.400630859375,-0.036731940069794654,-0.006547193153761327,-0.01272785455007106
1783696354114593800,6.41059375,-0.00815291131734848,0.004793737082555889,-0.0009674933252856135
1783696354124556800,6.420556884765625,-0.025806056907773017,-0.003727934481948614,-0.005597272017784417
1783696354134519600,6.43051953125,-0.027750761234760283,0.0050531186711043116,-0.000503967466764152
1783696354144483800,6.44048388671875,-0.01921849521100521,0.015449425001069902,-0.014555508368648587
1783696354154446600,6.450446533203125,-0.033574937343597414,0.010904986504465341,-0.0026229323821142314
1783696354164409600,6.46040966796875,-0.03866203134953976,-0.0037216874042525884,-0.0017977336043491958
1783696354174372600,6.47037255859375,-0.015914777490496634,0.011768507998622953,-0.0041480961227789515
1783696354184336600,6.480336669921875,-0.027587679627537727,0.004493438961729407,-0.006296871654503047
1783696354194299600,6.490299560546875,-0.02639583949446678,0.011884352930635214,-0.01728584664799273
1783696354204262700,6.5002626953125,-0.020561141991615295,0.01349226305130869,0.0028551702354103325
1783696354214225700,6.5102255859375,-0.05078910699486732,0.001514203955233097,0.002440086628496647
1783696354224189700,6.520189697265625,-0.02685293561220169,0.007947926797159015,-0.006655877692624926
1783696354234152700,6.530152587890625,-0.04001987569928169,0.0036694092277437446,-0.010167539075389503
1783696354244115700,6.54011572265625,-0.029990064594149587,-0.0015462795939296483,0.004057312566787004
1783696354254078700,6.55007861328125,-0.029098668712377547,0.005286671698652208,0.0012539455838501453
1783696354264041700,6.560041748046875,-0.03882277486920357,-0.006810739460773766,0.002348243626579642
1783696354274005800,6.570005859375,-0.032682372418045995,0.001406871123239398,0.0011752177918329834
1783696354283968800,6.57996875,-0.03283376358747482,0.005558876236155629,-0.003207454271800816
1783696354293931800,6.589931884765625,-0.01966156280338764,0.00911525354348123,0.010635704576410353
1783696354303894800,6.599894775390625,-0.04285013068914413,0.00831939045805484,-0.006517967059276998
1783696354313858800,6.60985888671875,-0.03283259454369545,0.009557809679210185,-0.012921660089120268
1783696354323821800,6.61982177734375,-0.03867079917788505,0.011706329482607542,-0.0008009776519611477
1783696354333784600,6.62978466796875,-0.03193593796491623,0.013365969790518283,0.002438515725918114
1783696354343747600,6.63974755859375,-0.004409633135795593,0.01820416706930846,-0.005655066619627177
1783696354353711600,6.649711669921875,-0.019967267751693725,0.0009435279278084635,0.009094210755452513
1783696354363674600,6.659674560546875,-0.03388356490135193,0.0008449263915419578,-0.008493103057146073
1783696354373637600,6.6696376953125,-0.016382395002245902,0.00790481830779463,-0.015520809736847876
1783696354383600600,6.6796005859375,-0.03209609696269035,-0.011200096993520856,0.005709061829186976
1783696354393564700,6.689564697265625,-0.03403904772400856,-0.007017441014014184,-0.013345036600343882
1783696354403527700,6.699527587890625,-0.02131809783875942,0.012639116820693016,0.0005032368144020437
1783696354413490700,6.70949072265625,-0.036280104649066926,0.012190861596539615,-0.010483144363202154
1783696354423453700,6.71945361328125,-0.033738018950819966,0.005377857113443314,-0.016513985492661594
1783696354433417700,6.729417724609375,-0.01982055275738239,0.013894121850468217,0.012661584380827843
1783696354443380500,6.73938037109375,-0.02639408592879772,0.003942527080699801,0.008252937625721097
1783696354453343700,6.74934375,-0.038218963757157325,0.0011732450304552911,-0.008951770077459514
1783696354463306800,6.759306640625,-0.026848843958973884,0.009963212142325937,0.007041625607199967
1783696354473270500,6.7692705078125,-0.026999066084623335,-0.006090937286242842,0.007059088198654353
1783696354483233800,6.77923388671875,-0.03014671646058559,-0.007115129234828054,-0.0013504647608846426
1783696354493196800,6.78919677734375,-0.021768764215707778,0.001965710582397878,-0.0012399170584976673
1783696354503159800,6.799159912109375,-0.03912497268617153,-0.012677366471849381,-0.00012059417236596345
1783696354513123800,6.809123779296875,-0.02686287248432636,-0.00120287298373878,-0.00780227124877274
1783696354523086800,6.8190869140625,-0.009506664013862609,0.012710428491234778,-0.003256663708388805
1783696354533049600,6.829049560546875,-0.04018412635028362,-0.008429938160441816,-0.007252674541994929
1783696354543012600,6.8390126953125,-0.03016249855160713,0.00001603781934827566,0.004454787451773881
1783696354552977200,6.84897705078125,-0.030310382589697836,0.00430065633598715,-0.0004594342052936554
1783696354562940200,6.858940185546875,-0.04541501274108886,0.006899879048950969,0.004808313597179949
1783696354572903200,6.868903076171875,-0.031651860326528544,-0.007644633001647889,-0.013904935505427419
1783696354582866200,6.8788662109375,-0.020728315252065657,0.013155907236412167,-0.006583506576158106
1783696354592830200,6.888830322265625,-0.0270136791318655,-0.011198197297379375,-0.007353796828910708
1783696354602793200,6.898793212890625,-0.0192407070428133,0.007876286333054304,-0.011860424065776169
1783696354612756200,6.908756103515625,-0.026716742011904715,0.009752236272767185,0.0022803660221397876
1783696354622719200,6.91871923828125,-0.029713001218438145,-0.007355842655524611,-0.01136606467757374
1783696354632683300,6.928683349609375,-0.02373334228694439,0.008394026596844196,-0.006762552937492728
1783696354642646000,6.93864599609375,-0.025218612408638,0.014721001128666101,0.0015833967339247464
1783696354652609000,6.948609130859375,-0.03449614384174347,-0.009096987234428524,0.0035113691218197343
1783696354662572000,6.958572021484375,-0.03210369574725628,0.013734108983166515,-0.009366671021282672
1783696354672536000,6.9685361328125,-0.03883504982888698,0.005491838881932199,-0.006124218501336872
1783696354682499000,6.9784990234375,-0.04377484431862831,0.0020296791967004536,-0.008740611544810236
1783696354692462000,6.988462158203125,-0.02657002701759338,0.010984591079317032,-0.0024606544924899933
1783696354702425300,6.99842529296875,-0.034951486393809315,0.004161868919804692,0.005885039450600743
1783696354712389000,7.00838916015625,-0.040641806989908213,0.004092493478022516,-0.00833086170013994
1783696354722352400,7.018352294921875,-0.02657762580215931,0.010996939104236662,0.0008163944168016314
1783696354732315400,7.0283154296875,-0.04094049767553806,-0.001733655392192304,-0.002969882656261325
1783696354742278100,7.038278076171875,-0.023735095852613446,-0.011606558902561664,-0.005433496290817856
1783696354752242200,7.0482421875,-0.02343523612320423,0.016248758685216306,-0.014899974424764513
1783696354762205200,7.058205078125,-0.037350948750972744,0.011042677942104636,-0.006886763839051127
1783696354772168200,7.068168212890625,-0.021944705304503438,0.0035215617222711442,-0.017331000963971017
1783696354782131200,7.078131103515625,-0.025832360392808913,0.00003901683613657951,-0.007330342888087034
1783696354792095200,7.08809521484375,-0.04228898967504501,-0.015666684480942786,-0.008049706671200692
1783696354802058200,7.098058349609375,-0.025236732587218282,0.002070120804943144,-0.010957556941919027
1783696354812021200,7.108021240234375,-0.019255320090055466,0.015902867856994272,-0.009274243497475982
1783696354821984300,7.117984375,-0.027182605957984923,-0.010603190546296536,-0.006512121840380132
1783696354831948300,7.1279482421875,-0.024050737673044203,-0.010180800415761769,-0.015507657994329929
1783696354841911000,7.1379111328125,-0.030185294905304905,0.01466528888605535,0.0006360328812152146
1783696354851874000,7.1478740234375,-0.031686347118020056,-0.005978928279131651,-0.023994039049744606
1783696354861837000,7.157837158203125,-0.02167056453824043,-0.0012102891052141785,-0.008907967468351125
1783696354871801000,7.167801025390625,-0.04202010960578918,0.010706468257680535,-0.011870799329318105
1783696354881764000,7.17776416015625,-0.039920506978034974,-0.002361614564806223,-0.013286767074465751
1783696354891727000,7.18772705078125,-0.006555997514724731,0.009183350343629717,-0.012578290011547505
1783696354901690400,7.1976904296875,-0.023165771532058715,0.0147763480450958,0.00649685120601207
1783696354911654100,7.207654052734375,-0.04681669623255729,-0.0010157529138028621,-0.0061322922099381685
1783696354921617200,7.2176171875,-0.02303308506309986,0.0029663024596869943,-0.0179769341846928
1783696354931580400,7.227580322265625,-0.03933890769779682,0.006374028543941676,-0.002051817963272333
1783696354941543200,7.237543212890625,-0.04382628224492073,-0.019928360513411462,-0.010240312050655483
1783696354951507200,7.247507080078125,-0.02617547474205494,0.00566069264281541,-0.013638868447765707
1783696354961470200,7.25747021484375,-0.05011690682172775,0.006866817029565572,0.003985124113410711
1783696354971433200,7.26743310546875,-0.05281213725507259,0.005001571146957576,-0.018971096321195362
1783696354981396200,7.277396240234375,-0.023929741641879082,0.011663074862770736,-0.009356441888213158
1783696354991360300,7.2873603515625,-0.030808395239710806,-0.009764913091249763,0.0052115606358274814
1783696355001323300,7.2973232421875,-0.03364975614547729,-0.00352740694116801,-0.007644011947140097
1783696355011286300,7.307286376953125,-0.019136077624559402,0.004343618694879115,-0.00992434143666178
1783696355021249300,7.317249267578125,-0.03798807761073112,0.009025821694359183,0.002370784251950681
1783696355031213300,7.32721337890625,-0.04547697206139564,0.009845796307735145,-0.023550240805000067
1783696355041176000,7.337176025390625,-0.03874444893598556,0.0112172673240304,-0.00349858270548284
1783696355051139000,7.34713916015625,-0.03859598037600517,0.006979593221656978,-0.0034675299800932405
1783696355061102000,7.35710205078125,-0.030372341910004614,0.001334171213209629,0.0029484380094334482
1783696355071066000,7.367066162109375,-0.03321604090332985,0.007140738600119948,-0.0029653160789981483
1783696355081029000,7.377029052734375,-0.04099485821127891,-0.004144041002169251,-0.006394815603643656
1783696355090992000,7.3869921875,-0.035467034700512885,-0.006132694068737328,-0.008832710275053977
1783696355100955100,7.396955078125,-0.020802549532055854,0.007240545712783932,-0.004410765646956861
1783696355110919200,7.406919189453125,-0.031871640557050704,0.00046549861989915366,0.0007485898775979876
1783696355120882200,7.416882080078125,-0.02484334935545921,-0.010641184469126165,-0.005340520777739584
1783696355130845200,7.42684521484375,-0.032771804267168046,0.009317607715167105,-0.010225918199121952
1783696355140808200,7.43680810546875,-0.048474400311708445,-0.014573482416756451,0.0007068696277216076
1783696355150772000,7.44677197265625,-0.018998714980483052,0.011291611201874911,-0.01308781043626368
1783696355160735200,7.4567353515625,-0.029016835647821426,0.013294000532850622,0.0016344328014180063
1783696355170698200,7.4666982421875,-0.03978898955285549,0.0004945055186748505,0.005379062689840793
1783696355180661200,7.4766611328125,-0.026481179690361022,0.005687909443303943,0.003577237432263791
1783696355190625300,7.486625244140625,-0.03171966486573219,0.014528547296486794,0.0010418006705120205
1783696355200588300,7.49658837890625,-0.0276847102612257,0.005373692394979298,-0.0064421618767082686
1783696355210551300,7.50655126953125,-0.016768179449439046,-0.003562368656694889,-0.007049443587474525
1783696355220514300,7.516514404296875,-0.04848842883706093,0.002729242300800979,0.011556801476702093
1783696355230478300,7.526478271484375,-0.025594459983706474,-0.006960632792860269,-0.006878799728304148
1783696355240441000,7.536441162109375,-0.006148001235723495,-0.0027403482167050242,-0.019152042378671467
1783696355250404000,7.546404052734375,-0.037567806372046465,0.0007185965981334447,-0.0038826866522431373
1783696355260367000,7.5563671875,-0.022008418190479277,-0.004939538761414587,-0.0012852905701845883
1783696355270331100,7.5663310546875,-0.033982933622598646,0.0005271291466429829,-0.0048235111663118
1783696355280294100,7.576294189453125,-0.04400105428993702,0.008983918781392276,0.004313808078505099
1783696355290257200,7.586257080078125,-0.03053717708289623,0.0002395809095352888,-0.014702223362959921
1783696355300220200,7.59622021484375,-0.019765023177862166,0.004420044931955636,-0.007450827462598681
1783696355310184200,7.60618408203125,-0.049991234615445135,0.0006172551155090331,-0.008337291440926492
1783696355320147200,7.616147216796875,-0.026360183659195898,0.0025528262879699467,-0.008490618839114904
1783696355330110000,7.62610986328125,-0.01903378629386425,0.007541903279535472,-0.005833528459072113
1783696355340073200,7.6360732421875,-0.023662030616402624,-0.001663439700193703,0.0015920914970338344
1783696355350037000,7.646037109375,-0.023366262540221214,0.01152067071739584,-0.017344262304343282
1783696355360000300,7.656000244140625,-0.02845511011183262,0.01879840663541108,-0.0024170710790902376
1783696355369963300,7.66596337890625,-0.03862929812371731,0.0035847996842116115,0.0036292598804458973
1783696355379926300,7.67592626953125,-0.024269348859786984,0.0136530065709725,-0.010801124271191656
1783696355389890300,7.685890380859375,-0.023817513439059256,0.02001618492733687,0.006280176248028874
1783696355399853300,7.695853271484375,-0.03757774324417114,0.007444178526103496,-0.0014031813288107513
1783696355409816300,7.70581640625,-0.019169979894161224,-0.0074228800097480415,-0.009913856575265527
1783696355419780400,7.7157802734375,-0.020364742636680602,0.0018904533891007302,0.007627170410193502
1783696355429743400,7.725743408203125,-0.04325461983680725,-0.002626183785125613,-0.0071525751683861015
1783696355439706000,7.7357060546875,-0.020510873109102247,0.006924575098790228,-0.00408712318316102
1783696355449669000,7.745669189453125,-0.01930383540689945,0.013096030275337397,-0.0013772066373378038
1783696355459633200,7.755633056640625,-0.036060324418544766,-0.014202164886333047,-0.005552227299660444
1783696355469596200,7.76559619140625,-0.030977906587719914,0.014135638988763093,-0.013718692218326032
1783696355479559200,7.77555908203125,-0.03666413553059101,0.017313319176808,-0.003733743168227374
1783696355489522200,7.785522216796875,-0.03367722867429256,0.004977130825445056,-0.002926408840715885
1783696355499486200,7.795486328125,-0.013482581907510756,0.01620272758640349,-0.00004533697906881571
1783696355509449200,7.80544921875,-0.04340893361568451,0.00782988990806043,0.0070894468042999505
1783696355519412200,7.815412109375,-0.04370645525753498,-0.004856353989988565,-0.011124730202369391
1783696355529375000,7.825375,-0.020963293051719664,0.009935995341837405,-0.004307853261753917
1783696355539339300,7.83533935546875,-0.032930794221162796,0.005163447177782655,0.0017058175371959805
1783696355549302000,7.845302001953125,-0.0463981785595417,-0.01174768440630287,-0.0050323316114023325
1783696355559265300,7.855265380859375,-0.025747604718804357,0.012730740626901388,-0.0009137903766706586
1783696355569228300,7.865228271484375,-0.0294797769844532,0.0005451031947508453,0.0031120676059275864
1783696355579192300,7.8751923828125,-0.026185996136069298,-0.011748378526046871,-0.007395882404968142
1783696355589155300,7.8851552734375,-0.030519056904315948,0.00714757019970566,-0.007126892737857997
1783696355599118600,7.89511865234375,-0.0450257211625576,0.0055662192923948165,0.008462232994847
1783696355609081600,7.90508154296875,-0.03365209423303604,0.003152363083697855,-0.02237600939385593
1783696355619045400,7.91504541015625,-0.039188685572147365,0.005810037985630333,-0.009902093072235585
1783696355629008600,7.925008544921875,-0.033494273322820664,0.008683072671294211,-0.0021965601962059735
1783696355638971400,7.934971435546875,-0.03365034066736698,0.00200494661424309,-0.0001299830552190542
1783696355648934400,7.944934326171875,-0.03963350673019886,0.0012873363967984915,-0.00797591078262776
1783696355658898400,7.9548984375,-0.032896307429671284,0.0017232801286503673,-0.004318703449331223
1783696355668861400,7.964861328125,-0.02167231810390949,0.0058250894242897625,-0.0030293577585369345
1783696355678824400,7.974824462890625,-0.01703296786546707,0.01265683514047414,0.003906652049720287
1783696355688787500,7.984787353515625,-0.03798164786994457,-0.0007286796007305383,-0.010741028114408253
1783696355698751500,7.99475146484375,-0.023175708404183388,0.0024925474680960176,-0.008812434672005475
1783696355708714500,8.004714599609375,-0.031104747837781905,0.004362798319384456,0.003971497446857392
1783696355718677500,8.014677490234375,-0.05040507611334324,-0.008023658914491534,0.003981726579926907
1783696355728640500,8.024640625,-0.02198036113977432,0.017489771722257137,-0.007157434006594121
1783696355738604500,8.0346044921875,-0.045614919227361675,0.00693896895032376,0.004082410475425422
1783696355748567300,8.0445673828125,-0.042915012618899344,-0.002417728666216135,-0.01185563829280436
1783696355758530300,8.0545302734375,-0.03648527183234691,0.01073587701525539,-0.01768083731494844
1783696355768493300,8.064493408203125,-0.029891280394792556,0.006588438479602336,0.011497180243954061
1783696355778457300,8.074457275390625,-0.04530336906015873,0.00014401158057153224,-0.003463913250900805
1783696355788420400,8.08442041015625,-0.014627660289406775,0.01818663141261786,-0.007115458028391003
1783696355798383400,8.09438330078125,-0.030638299369812008,0.013023987952433525,0.0003901683613657951
1783696355808346600,8.1043466796875,-0.03617372166514397,-0.0062569780355319375,-0.0005703107012435794
1783696355818310400,8.114310302734374,-0.02525426824390888,0.010499547508731484,-0.013621588519401848
1783696355828273400,8.1242734375,-0.03677928634285926,0.009232815508544445,0.004020487687736749
1783696355838236400,8.134236328125,-0.028106735065579414,-0.004629778692498803,-0.008894194671325385
1783696355848199400,8.144199462890626,-0.03574409807622433,-0.002064129455573857,-0.018331921634823084
1783696355858163500,8.15416357421875,-0.03648293374478817,-0.005897460540756583,0.006369315836206078
1783696355868126500,8.16412646484375,-0.030794951236248015,-0.006495682162232697,0.005416070231981575
1783696355878089500,8.17408935546875,-0.03288227890431881,0.013401442962698637,-0.0020741393929347395
1783696355888052500,8.184052490234375,-0.03137713503837585,0.008213774659112095,0.010223214785382151
1783696355898015500,8.194015380859375,-0.022850714233517644,0.0025685353137552738,-0.016674181023053822
1783696355907979500,8.2039794921875,-0.0132715695053339,0.010262670012935996,-0.013331738727353512
1783696355917942500,8.213942626953125,-0.04139467118382454,0.0027056787621229884,0.007452142636850476
1783696355927905300,8.2239052734375,-0.02523380997776985,0.004315415513701737,-0.012533208760805428
1783696355937868300,8.233868408203126,-0.029720015481114387,0.007851407620124519,0.001366392982378602
1783696355947832300,8.243832275390625,-0.03420563646256924,0.0008032061416655778,0.0027776114871725438
1783696355957795300,8.25379541015625,-0.03271627468764782,0.004912358493544161,-0.005341105299629271
1783696355967758300,8.26375830078125,-0.033009704676270485,0.012762085613235831,0.008809731258265674
1783696355977721300,8.273721435546875,-0.034952070915699004,-0.0048718438200652595,-0.007015358654782176
1783696355987685400,8.283685302734375,-0.025231471890211105,0.0016824731942266225,-0.006492613422311842
1783696355997648400,8.2936484375,-0.026874562922120093,0.02420369974505156,-0.0054269204195588824
1783696356007611400,8.303611328125,-0.026865795093774795,0.01277889061756432,-0.015201697317697107
1783696356017574700,8.31357470703125,-0.024020927056670187,-0.003908332550153136,-0.01259505848325789
1783696356027538400,8.323538330078126,-0.036435587471723554,0.0008032426742836833,-0.009199607358686626
1783696356037501400,8.33350146484375,-0.04540566039085388,-0.000051839785091578956,0.007617343135923146
1783696356047464400,8.34346435546875,-0.023411855247616766,0.004908924427442252,-0.015073065969347953
1783696356057427500,8.353427490234376,-0.028345804518461224,0.011562500565126537,0.002421929917298257
1783696356067391500,8.3633916015625,-0.03373568086326122,-0.0026341478958725926,-0.007686755110323428
1783696356077354500,8.3733544921875,-0.025806056907773017,-0.006315357159264385,-0.011281016742624342
1783696356087317500,8.3833173828125,-0.031189503511786457,-0.0013199965573847292,-0.004970956812985241
1783696356097280500,8.393280517578125,-0.018179215291142463,-0.001850559770129621,0.0034120369331911205
1783696356107244500,8.40324462890625,-0.02970014173686504,0.00895282952338457,0.0005580722741782665
1783696356117207600,8.41320751953125,-0.04046878851056099,-0.0012586948242038487,0.004935629771277308
1783696356127170300,8.42317041015625,-0.04212123189270496,0.0016521145885810256,-0.01846132016815245
1783696356137133300,8.43313330078125,-0.02536532740294933,-0.0035402298901230094,-0.0033077363085001706
1783696356147097300,8.443097412109376,-0.026559505623579022,0.0011257160943001507,0.0001660407492890954
1783696356157060400,8.453060302734375,-0.03284954567849636,-0.0017991218438372014,-0.010249445205181836
1783696356167023400,8.4630234375,-0.019234861823916434,-0.0003282455736771226,-0.0035609073519706725
1783696356176986400,8.472986328125,-0.024312018957734105,-0.005745594447292387,-0.0009322028161957859
1783696356186950400,8.482950439453125,-0.030594460228085516,0.002082943753898144,-0.007745755288563669
1783696356196913400,8.492913330078125,-0.009642857614159584,0.009024031596072018,0.004746719603054225
1783696356206876400,8.50287646484375,-0.03896773629784584,0.005436090106703341,-0.000173018479347229
1783696356216839400,8.51283935546875,-0.03224047386944294,0.0041343963909894225,-0.014107070481404662
1783696356226803500,8.522803466796875,-0.03388648751080036,0.010234905223175883,0.010474961056746541
1783696356236766500,8.532766357421876,-0.03613163608908653,-0.0006522898962721228,0.0002600757082924247
1783696356246729500,8.5427294921875,-0.027612229546904562,-0.01748319585099816,-0.011366283873282373
1783696356256692500,8.5526923828125,-0.025671032351255417,0.008021613087877631,0.0037655630785971878
1783696356266656500,8.562656494140626,-0.04123334314227104,-0.0016635492980480193,-0.006154723237454891
1783696356276619500,8.57261962890625,-0.0315144976824522,0.002591404732689261,-0.005121690395288169
1783696356286582500,8.58258251953125,-0.0342073900282383,0.0027826529884710906,-0.008352598607912659
1783696356296545500,8.592545654296876,-0.03420855907201767,-0.004015446186438202,-0.0006475771885365247
1783696356306509600,8.602509521484375,-0.020147885015606878,0.012435118681192398,-0.01079750754199922
1783696356316472600,8.61247265625,-0.021191256588697433,0.007238390288315713,-0.007925861095823347
1783696356326435300,8.622435302734376,-0.03315875775814056,-0.005432254181802272,-0.005418079525977373
1783696356336398300,8.6323984375,-0.017602292186021804,0.0005969429798424244,-0.005738032195344567
1783696356346362400,8.6423623046875,-0.03660217621028423,-0.015662702425569296,0.002051964093744755
1783696356356325400,8.652325439453126,-0.02403086392879486,-0.006587963555566966,-0.01170084958989173
1783696356366288400,8.662288330078125,-0.025375264275074003,0.006026895606704056,-0.00862567992825061
1783696356376251400,8.67225146484375,-0.03315057445168495,0.0044619478449225425,-0.003908770941570401
1783696356386215400,8.68221533203125,-0.03973930519223213,-0.00910451295375824,-0.00967186451293528
1783696356396178400,8.692178466796875,-0.03585223462581634,0.00613291326444596,-0.011777933414094149
1783696356406141400,8.702141357421874,-0.03763911804258823,-0.005146167249418795,-0.0026798502011224625
1783696356416104400,8.7121044921875,-0.02386953588724136,-0.0004899754740297794,-0.007733370731025934
1783696356426067500,8.7220673828125,-0.0214759187489748,0.0013989070124924181,0.003724390817992389
1783696356436031200,8.73203125,-0.03374327964782715,0.003994987920299172,0.0008743716817349195
1783696356445994500,8.741994384765626,-0.02582300804257393,0.009107070237025618,-0.000846095435321331
1783696356455957500,8.75195751953125,-0.020738836646080016,0.009655717095732689,0.004862564535066485
1783696356465920500,8.76192041015625,-0.0395879140228033,0.003226633896306157,0.004549005073867738
1783696356475884500,8.771884521484376,-0.026869302225112912,0.004610051078721881,-0.017782434525899588
1783696356485847600,8.78184765625,-0.023875965628027913,-0.0016326792357489466,-0.0022355039671063423
1783696356495810600,8.791810546875,-0.037490064960718154,0.007190751754306257,0.007255999010242521
1783696356505773600,8.801773681640626,-0.03450257358253002,-0.005733136824518442,-0.00977495956122875
1783696356515737600,8.811737548828125,-0.02656710440814495,0.005536152947694063,-0.005584485601447522
1783696356525700400,8.821700439453124,-0.02686345700621605,-0.0039175022372975946,0.006491773172095418
1783696356535663400,8.831663330078126,-0.029705986955761907,0.0036258988795801997,-0.020336210661940274
1783696356545626400,8.84162646484375,-0.02401683540344238,0.0029519816733896732,-0.004600735261105
1783696356555590400,8.85159033203125,-0.04795651391744613,0.0038709596818313,0.005330510840378702
1783696356565553400,8.861553466796876,-0.018931494963169097,0.005122128786705434,-0.02094287131819874
1783696356575516400,8.871516357421875,-0.026414544194936752,0.00711834410522133,-0.003472023492120206
1783696356585479200,8.881479248046874,-0.03074994305074215,-0.0072518342917785045,-0.009128368753381072
1783696356595443200,8.891443115234376,-0.03315115897357464,0.013121456977538764,0.0028679566517472266
1783696356605406200,8.90140625,-0.014742811101675033,0.009359401030279695,0.00909844853915274
1783696356615369200,8.911369140625,-0.041972178810834884,-0.013118717031180858,0.002871609913557768
1783696356625332500,8.92133251953125,-0.01893091044127941,-0.007625489909760653,-0.009856719560548663
1783696356635296300,8.931296142578125,-0.022513445103168488,0.006937142319418489,-0.0023465631261467934
1783696356645259300,8.94125927734375,-0.02879530185163021,-0.0009781243171542882,-0.007390840903669595
1783696356655222500,8.951222412109376,-0.025509704309701918,-0.004125117105990648,-0.0071918112002313135
1783696356665185500,8.961185546875,-0.03747662095725536,0.017054375979676843,0.002215337961912155
1783696356675148300,8.971148193359374,-0.03688040862977505,-0.0018798954624682663,-0.007547419704869389
1783696356685112300,8.9811123046875,-0.026856442743539807,-0.00045519642159342765,-0.0023044410174712536
1783696356695075300,8.991075439453125,-0.027900983360409734,-0.008398812369816004,-0.005967457037046551
1783696356705038300,9.001038330078124,-0.035983752050995826,-0.013921521314047277,-0.016080562511458993
1783696356715001300,9.01100146484375,-0.027612229546904562,-0.0044364480774849654,0.0032190716443583367
1783696356724965400,9.02096533203125,-0.0523018496453762,0.005777670085988939,-0.00612940613310784
1783696356734928400,9.030928466796874,-0.03839139771461487,-0.0033801804902032014,-0.010607282199524342
1783696356744891400,9.040891357421875,-0.03435001336932182,-0.0003768704883754253,0.00018131138365715742
1783696356754854400,9.0508544921875,-0.04631283836364746,-0.009586524317041038,0.001990187436528504
1783696356764818400,9.060818359375,-0.03330255014300346,0.004495850114524364,-0.024718773127719758
1783696356774781400,9.070781494140626,-0.03226502378880977,0.001311447924748063,-0.013351612471602856
1783696356784744200,9.080744140625,-0.03480769400894642,-0.0038616073315963146,-0.013930910196900367
1783696356794707200,9.090707275390624,-0.043487844070792196,-0.0007140665534883737,-0.0049146235158666965
1783696356804671200,9.100671142578125,-0.01745382362604141,0.01738050266150385,-0.005274688999913632
1783696356814634200,9.11063427734375,-0.045137949365377426,-0.006680792938172817,0.004146744415909052
1783696356824597200,9.12059716796875,-0.03646013739109039,0.0002921878796070814,0.0002281827326864004
1783696356834560500,9.130560546875,-0.029128479328751563,0.020055165230855345,-0.0003615633213892579
1783696356844524300,9.140524169921875,-0.03212415401339531,-0.0019078429153189063,-0.0004785042319446802
1783696356854487300,9.1504873046875,-0.03153554047048092,-0.004081497159972787,-0.005820851640589535
1783696356864450600,9.160450439453125,-0.026593992415070534,0.007374693486467004,0.004798449790291488
1783696356874413300,9.170413330078125,-0.055469373765587804,-0.00462152232080698,0.006343048883788287
1783696356884376300,9.180376220703126,-0.026142156994342802,0.002100296747498214,-0.0006194836052134633
1783696356894340400,9.19034033203125,-0.03347206149101257,0.003286620455235243,0.0029047815307974814
1783696356904303400,9.200303466796875,-0.031069092002511022,-0.004671498942375183,-0.007644011947140097
1783696356914266400,9.210266357421874,-0.024482699349522588,0.01617251511123031,0.005013992237113416
1783696356924229400,9.2202294921875,-0.042432197538018225,0.008474033030495046,0.0075974328590556976
1783696356934193400,9.230193359375,-0.01953530607521534,-0.000778363961353898,0.0011997311785817146
1783696356944156400,9.240156494140624,-0.015199322697520255,0.01240691550001502,-0.00289977656211704
1783696356954119400,9.250119384765625,-0.039432431200146674,0.009343582406640053,0.0005419979222118854
1783696356964082200,9.260082275390625,-0.020280571484565732,-0.004067687830328941,-0.0020391411447897552
1783696356974046500,9.27004638671875,-0.02566343356668949,0.007203099779225885,-0.01008994379453361
1783696356984009200,9.28000927734375,-0.03882745104432106,-0.004218384880013764,0.0018293708516284822
1783696356993972200,9.28997216796875,-0.029251813447475433,-0.002909384640678763,-0.007653620025701821
1783696357003935200,9.299935302734376,-0.013842647391557692,0.0030266908774152397,-0.012429857984185218
1783696357013899300,9.309899169921875,-0.0325426716864109,-0.004890365857444704,-0.013477175080031156
1783696357031957500,9.32795751953125,-0.022820319095253942,-0.00861987124197185,-0.0026059081820771096
1783696357041921300,9.33792138671875,-0.011438508859276771,-0.0007222498599439859,0.0006084142219275236
1783696357051884300,9.34788427734375,-0.021465981876850126,-0.008509469670057297,-0.0003827522398903966
1783696357061847600,9.35784765625,-0.021460136657953263,0.008841551168635487,-0.013348872525244951
1783696357071810300,9.367810302734375,-0.020403905603289602,-0.0002925166731700301,-0.0018742329066619276
1783696357081774600,9.377774658203125,-0.02833469860255718,-0.004926971540786326,0.0044584041809663175
1783696357091737300,9.3877373046875,-0.0316232187539339,-0.01008165089022368,-0.013792597704753278
1783696357101700400,9.397700439453125,-0.01934825907051563,-0.0018475275628268718,-0.0028637919332832095
1783696357111663400,9.407663330078124,-0.041647184640169144,-0.002426350364089012,-0.0032547274796292185
1783696357121627400,9.41762744140625,-0.029977205112576483,-0.004367474494501948,-0.01189081920403987
1783696357131590400,9.42759033203125,-0.0334141938239336,0.0029598361862823363,0.006387728275731206
1783696357141553400,9.437553466796874,-0.04060205950140953,-0.0049299306828528636,0.0012450681576505302
1783696357151516400,9.447516357421875,-0.03057692457139492,-0.0005739274304360151,-0.011029233938641846
1783696357161479400,9.4574794921875,-0.03371346903145313,-0.00010813654959201812,0.005382131429761648
1783696357171443500,9.467443359375,-0.04538695569038391,-0.005312975183688104,-0.006738806735724211
1783696357181406200,9.47740625,-0.0281768776923418,0.0056132733045145865,0.002935651593096554
1783696357191369200,9.487369140625,-0.03326455622017383,0.007427300456538796,0.01517276348415762
1783696357201332200,9.497332275390624,-0.029679098948836326,-0.002824117510020733,0.00446834105309099
1783696357211296300,9.507296142578125,-0.021297055050730703,0.019128880698792636,-0.00016845190208405255
1783696357221259300,9.51725927734375,-0.029678514426946637,0.013368052149750292,0.010248531889729202
1783696357231222300,9.52722216796875,-0.04703998359441757,0.0007707651767879724,-0.003078384532034397
1783696357241185500,9.537185546875,-0.019352935245633123,0.00927902927044779,0.0002724967984482646
1783696357251149300,9.5471494140625,-0.024442951861023902,0.004746938798762858,-0.007442388427816331
1783696357261112600,9.557112548828124,-0.04554243851304054,-0.006097257429175078,0.001800948474742472
1783696357271075300,9.567075439453125,-0.018302549409866333,-0.0030375775976106524,-0.007081080834753811
1783696357281038300,9.577038330078125,-0.019649287843704222,-0.007800809944048523,0.0063597808228805655
1783696357291001300,9.58700146484375,-0.04074818997383117,-0.008645042215846478,-0.0006867036225274204
1783696357300965400,9.59696533203125,-0.02891980501413345,0.0002986541530117392,-0.008483056587167083
1783696357310928400,9.606928466796875,-0.041189504000544545,-0.007042100531235337,0.008134973801858722
1783696357320891400,9.616891357421874,-0.03325812647938728,-0.0030228549525141714,-0.014163476843759416
1783696357331477500,9.6274775390625,-0.043720483782887454,-0.0077986545195803045,-0.00010415449421852826
1783696357341440500,9.6374404296875,-0.04282616529166698,-0.007782835895940661,-0.006611307898536324
1783696357351403500,9.647403564453125,-0.03669336162507534,0.010451360985450447,0.0006720905752852558
1783696357361367600,9.657367431640624,-0.05195581268668174,-0.01560899947695434,0.0014258680846542119
1783696357371330300,9.667330322265625,-0.018747370567917823,0.011136749433726072,-0.003646539808809757
1783696357381293300,9.677293212890625,-0.027727964881062505,0.02163443377893418,0.007313318688049912
1783696357391256300,9.68725634765625,-0.04163900133371353,0.01172919890154153,0.0007763546673581004
1783696357401220400,9.697220458984376,-0.02996960632801056,-0.001886434801109135,0.002483706574514508
1783696357411183400,9.707183349609375,-0.01949438954293728,-0.009066738226637243,0.005156177186779677
1783696357421146400,9.717146484375,-0.042534488868713374,-0.001103285066783428,-0.005025536544434726
1783696357431109400,9.727109375,-0.03056640317738056,0.008051058378070592,-0.0007906754536554217
1783696357441073400,9.737073486328125,-0.019796002838015556,0.013642302513867615,0.009862528246827424
1783696357451036400,9.747036376953124,-0.03760404672920704,-0.0012769976658746599,-0.013521817939355968
1783696357460999200,9.756999267578125,-0.021298224094510078,0.0044364480774849654,-0.009520802137069403
1783696357470962200,9.766962158203125,-0.02593348267972469,0.012280220380425453,0.00007090981174260378
1783696357480926200,9.77692626953125,-0.03132102093696594,0.0033603432785719633,-0.01764372017495334
1783696357490889200,9.78688916015625,-0.014421324062347411,0.01484418911691755,-0.011247845125384627
1783696357500852200,9.796852294921875,-0.023398411244153976,0.004868555884435773,-0.0002688800692558288
1783696357510815500,9.8068154296875,-0.031179566639661788,-0.007244856561720371,-0.011960048515349625
1783696357520779300,9.816779296875,-0.02579670455753803,-0.0005337780831381678,-0.005225369965471327
1783696357530742500,9.826742431640625,-0.03671732702255249,0.004459390561655164,0.0070976301107555624
1783696357540705500,9.83670556640625,-0.032381343644857404,0.00612940613310784,-0.0006177300395444035
1783696357550668300,9.846668212890625,-0.01846913814842701,0.011838942886330186,-0.0026222382623702287
1783696357560632600,9.856632568359375,-0.036872225323319435,-0.006254201556555926,-0.0016544526761397718
1783696357570595600,9.866595703125,-0.026101240462064742,-0.0024905747067183255,-0.012680252548679709
1783696357580558600,9.87655859375,-0.015629530808329583,-0.002666625393368304,-0.004622983625531196
1783696357590521600,9.886521484375,-0.031194179686903953,-0.007866239863075315,-0.0010176891425624488
1783696357600484600,9.896484619140624,-0.028655601119995114,-0.0015932240081951022,-0.00913293533064425
1783696357610448600,9.90644873046875,-0.017881109127402303,-0.00504851556122303,-0.008235511566884816
1783696357620411600,9.91641162109375,-0.050044426107406614,0.0020852453088387847,-0.000788483496569097
1783696357630374700,9.926374755859374,-0.03508241929709911,0.005210647320374846,-0.0020753084367141125
1783696357640337400,9.93633740234375,-0.02685293561220169,0.013597148197889328,-0.00011241086591035126
1783696357650301400,9.946301513671875,-0.03238368173241615,-0.001256502867117524,-0.010712021215632557
1783696357660264400,9.956264404296874,-0.03193652248680592,0.005325104012899101,-0.009299962460622192
1783696357670227500,9.9662275390625,-0.027301848423480986,0.0014742372710257767,0.003784304311685264
1783696357680190500,9.9761904296875,-0.03582651566267013,-0.007186367840133607,0.006903130451962352
1783696357690154500,9.986154541015624,-0.03493862691223621,0.010288279378227889,-0.004777808861061931
1783696357700117500,9.996117431640625,-0.035836452534794803,0.01358238902017474,-0.0011960048515349626
1783696357710080500,10.00608056640625,-0.030750527572631834,0.006844276404194534,-0.0010406681593507527
1783696357720043800,10.016043701171874,-0.01429156020283699,0.006934256242588162,-0.004063121253065765
1783696357730007600,10.026007568359375,-0.03464519692361354,-0.006374868794158101,-0.010734817569330334
1783696357739970600,10.035970458984375,-0.032547347861528395,-0.008255275713279843,-0.008757124288193882
1783696357749933600,10.04593359375,-0.0199812962770462,-0.0039850510481745,0.006259791047126055
1783696357759896600,10.055896484375,-0.03044657618999481,0.006363835943490267,0.0015174553582444786
1783696357769860600,10.065860595703125,-0.1296603991359472,0.02685724646113813,-0.029413178021647033
1783696357779823600,10.07582373046875,-0.1801724427551031,0.1717883530303836,-0.17454652916472405
1783696357789786600,10.08578662109375,0.48324470447003837,0.20557788297273216,0.019790376814827322
1783696357799749600,10.09574951171875,0.18966332467794417,-0.3780237865963951,0.2988506071656011
1783696357809713700,10.105713623046874,-0.5048170693308115,-0.23233473779931663,0.0229111757164821
1783696357819676700,10.1156767578125,-0.5475818598240614,0.17232695341911167,-0.14890596501696854
1783696357829639700,10.1256396484375,0.0066869304180145256,-0.0748201535867527,-0.04042831036970019
1783696357839602400,10.1356025390625,0.49656595833599565,0.044735359913855785,0.10216017859615385
