time,seconds_elapsed,z,y,x
1783696421869344800,0.0623447265625,0.02004325559735298,-0.03976706998199224,0.024989260632172227
1783696421879307800,0.072307861328125,-0.14183715914189815,0.009591383155249059,-0.025432182094082236
1783696421889270800,0.082270751953125,-0.08466682667732238,0.010737301787361502,-0.02372344194743782
1783696421899233800,0.09223388671875,0.10309855542480945,-0.030056882752664386,0.025808906451985237
1783696421909196800,0.10219677734375,0.05909633209109306,-0.029765827384218572,0.023947533026896416
1783696421919159800,0.112159912109375,-0.14678572145998478,0.009985971963405608,-0.026988800418935716
1783696421929123800,0.122123779296875,-0.10667115321457385,0.003645991819538176,-0.02223696624934673
1783696421939086600,0.132086669921875,0.06870294934809207,-0.008069836143776774,0.027905732600763438
1783696421949049600,0.142049560546875,0.0417535676240921,-0.008550568865425883,0.00011898673716932534
1783696421959012900,0.152012939453125,-0.10085925206542014,0.0046647769406437875,-0.0345503582470119
1783696421968976000,0.161975830078125,-0.0963560954272747,0.0037571240438148377,-0.012676087830215692
1783696421978939000,0.17193896484375,0.008090951997041702,-0.020537724583409727,0.022643464691005647
1783696421988902000,0.18190185546875,0.01767009672522545,-0.008535371296294033,-0.008060520326159894
1783696421998866000,0.191865966796875,-0.07150982346236705,0.011759265246242285,-0.010925554368458688
1783696422008829000,0.201828857421875,-0.06089022977054119,-0.012532441575825214,-0.0030261428881436583
1783696422018791700,0.211791748046875,0.018570260435342788,-0.011174706823937595,0.00642367637194693
1783696422028754700,0.221754638671875,-0.024960838255286215,-0.001092617542296648,0.0024692761903628707
1783696422038717700,0.2317177734375,-0.07913491151332855,0.0015277575565502046,-0.014766228509880602
1783696422048680700,0.2416806640625,-0.014798340681195258,0.010312208243086934,-0.005569361097551882
1783696422058643700,0.251643798828125,0.010339023184776306,-0.008887509202212094,0.01942201842647046
1783696422068607000,0.26160693359375,-0.04966507140100002,0.0017238281179219484,-0.013190394027903675
1783696422078570800,0.27157080078125,-0.06043138008713722,0.01645805405434221,-0.011401610914990305
1783696422088533800,0.28153369140625,-0.02571311792731285,-0.005289557775482535,0.005948313945159316
1783696422098496800,0.291496826171875,-0.008359247544407844,-0.01849379766564816,-0.0016345058666542172
1783696422108459800,0.301459716796875,-0.05937514903247356,0.0019231500823050736,-0.02051825269795954
1783696422118422800,0.3114228515625,-0.07014321128427982,0.007278795363940298,-0.01155029867067933
1783696422128385800,0.3213857421875,-0.0013128361642360687,-0.007483341492712498,-0.0026641046427190304
1783696422138348800,0.331348876953125,-0.00460018727183342,0.00039027795922011134,0.007644377273321151
1783696422148312800,0.341312744140625,-0.05502455260753631,0.011684336846508086,-0.005115918241627514
1783696422158275800,0.35127587890625,-0.058470309147238726,0.0024821356719359755,-0.006604841625131666
1783696422168238800,0.36123876953125,-0.010427870512008667,-0.002816957116872072,0.008542897015623748
1783696422178201600,0.37120166015625,-0.03317512437105179,-0.010044606815464794,0.004322283645905554
1783696422188164600,0.38116455078125,-0.03677870182096958,-0.01200739478841424,-0.011064816708676517
1783696422198127900,0.3911279296875,-0.04006897553801536,-0.008365458089485764,-0.006547558479942381
1783696422208091000,0.4010908203125,-0.006849427503347397,-0.0004456248756498098,0.006197831726819277
1783696422218054000,0.411053955078125,-0.020167174237966535,-0.007555310750380158,-0.013761033522710204
1783696422228018000,0.421017822265625,-0.028838556471467016,-0.0023211364239454266,-0.011426526160538197
1783696422237981000,0.43098095703125,-0.03617547523081303,-0.010584997302480042,-0.009055741908587515
1783696422247944000,0.44094384765625,-0.017018939340114593,-0.0053159343257546425,-0.0019519012527540326
1783696422257906700,0.45090673828125,-0.020449498310685158,-0.00183273185249418,0.005657696968130767
1783696422267869700,0.46086962890625,-0.032868834900856014,-0.014626929637044667,-0.004023921753838658
1783696422277832700,0.470832763671875,-0.04543780909478664,-0.003137238579802215,-0.0016030878150835631
1783696422287795700,0.480795654296875,-0.029111528193950652,-0.004869323069415986,0.007382657597213983
1783696422297759700,0.490759765625,-0.035547698721289635,-0.007990231568925083,-0.01176112840976566
1783696422307722800,0.50072265625,-0.025970892080664634,-0.007842785922251641,-0.005459215253964066
1783696422317685800,0.510685791015625,-0.021175474497675893,-0.007583586996793746,0.005609985368885099
1783696422327648800,0.520648681640625,-0.02386953588724136,-0.010345891316980122,0.009462678741663694
1783696422337611800,0.53061181640625,-0.02267886479794979,0.0014214841704815624,0.004281038320064544
1783696422347574800,0.54057470703125,-0.031209377256035804,0.006005450959876179,0.004486351633816957
1783696422357537800,0.550537841796875,-0.042888709133863445,-0.015438282552547752,0.0018772285813465712
1783696422367501800,0.560501708984375,-0.01969429602921009,-0.0009916413858532904,0.0035942981649190187
1783696422377464800,0.57046484375,-0.017747838136553763,0.0019369228793308137,-0.0050844636574387545
1783696422387427800,0.580427734375,-0.03855506384372711,-0.01361512224599719,0.006606193332001567
1783696422397390800,0.590390869140625,-0.008781272348761558,-0.003397898809984326,-0.01503678907956928
1783696422407353900,0.600353759765625,-0.030475802284479138,-0.002348791615851223,0.004483209828659892
1783696422417316600,0.610316650390625,-0.02644377028942108,-0.007945954035781324,-0.01499696852583438
1783696422427279600,0.620279541015625,-0.021206454157829284,0.00045461189970374103,-0.005299896506406367
1783696422437243600,0.63024365234375,-0.021358429849147795,0.011419840691424906,0.006829078835062682
1783696422447206700,0.64020654296875,-0.033784196180105204,-0.003829312497191131,-0.016362155931815503
1783696422457169700,0.650169677734375,-0.02270925993621349,0.0012808335907757281,-0.0019307488668709992
1783696422467133000,0.6601328125,-0.03842120833098888,-0.012412504990585148,0.00006564911473542451
1783696422477096000,0.670095947265625,-0.029599019449949263,-0.019607786789536476,-0.01649403868317604
1783696422487059000,0.680058837890625,-0.029290391892194748,0.003654284723848104,0.0016049509786069391
1783696422497021700,0.690021728515625,-0.037515783923864364,-0.015485190434195101,0.0016017726408317685
1783696422506984700,0.699984619140625,-0.025400983238220213,-0.00978332553077489,-0.0052790363814681765
1783696422516948700,0.70994873046875,-0.02210018812716007,-0.004332366648502647,0.006550919480808079
1783696422526911700,0.719911865234375,-0.04095511072278023,-0.007880158790573476,-0.0008153349708765745
1783696422536874800,0.729874755859375,-0.033629297879338264,0.00013031184878200291,-0.02498915103431791
1783696422546837800,0.739837646484375,-0.019551672688126562,-0.0003636091480031609,0.0016774316929280757
1783696422556800800,0.74980078125,-0.03915595234632492,-0.0036126740718260405,-0.006414616282656788
1783696422566763800,0.759763671875,-0.028683658170700073,0.002811988680809736,-0.02039469938352704
1783696422576726800,0.769726806640625,-0.02119008754491806,-0.0032344884091988204,-0.012857435746490955
1783696422586689800,0.779689697265625,-0.03570201250016689,-0.00929050051253289,-0.00807392779700458
1783696422596653800,0.78965380859375,-0.009072364249825477,0.005973484919033944,0.0021139964792877435
1783696422606616800,0.799616943359375,-0.037353871360421176,-0.012248363937437534,0.006410561162047088
1783696422616579800,0.809579833984375,-0.03720540280044079,-0.004894311380200088,-0.01737213669195771
1783696422626542800,0.81954296875,-0.015957447588443755,-0.0053935661392286414,-0.007260894381068647
1783696422636505900,0.829505859375,-0.015056699356436729,-0.004614398460276424,-0.008890139550715685
1783696422646468600,0.839468505859375,-0.04977846864759922,-0.012128610015287995,-0.006929981926269829
1783696422656431600,0.849431640625,-0.011611527338624,-0.007766907674446702,-0.01795242079794407
1783696422666395600,0.859395751953125,-0.040782092243432995,-0.007977481685206294,0.008673976049385964
1783696422676358700,0.869358642578125,-0.04108604362607002,-0.016647731407545507,-0.01230875235516578
1783696422686321700,0.87932177734375,-0.019837503892183302,-0.004503741160035133,-0.00979790204539895
1783696422696284700,0.88928466796875,-0.035841713231801985,-0.0015521248128265142,0.010564210242778063
1783696422706247700,0.89924755859375,-0.031954058143496514,-0.010446721342951059,-0.013957615540735423
1783696422716211000,0.9092109375,-0.022227613899111747,0.0049401232833042735,0.00013487842604517937
1783696422726173700,0.919173583984375,-0.03344517348408699,-0.00809654148761183,-0.0035791371284052726
1783696422736136700,0.92913671875,-0.0234235456854105,-0.011353862783126532,-0.0003698927583172917
1783696422746100700,0.939100830078125,-0.020131518402695656,0.009611987551860511,0.01114193706549704
1783696422756063700,0.949063720703125,-0.027764205238223073,0.005878500111959875,0.009065824911184609
1783696422766026800,0.95902685546875,-0.014302666118741035,-0.009704232412576674,-0.024407880547642705
1783696422775989800,0.96898974609375,-0.02222878294289112,-0.011365882014483212,-0.017340097585879264
1783696422785952800,0.978952880859375,-0.027021862438321113,-0.0008089782953262329,0.006632496817037463
1783696422795915800,0.988915771484375,-0.021191256588697433,-0.002992459814250469,-0.016192790714278815
1783696422805878500,0.99887841796875,-0.027769465935230254,0.00030157676246017216,0.00129252402856946
1783696422815842600,1.008842529296875,-0.03959200567603111,-0.01012052159588784,0.0015628288699313997
1783696422825805600,1.0188056640625,-0.026574703192710873,-0.010045483598299324,-0.00459755692332983
1783696422835768600,1.0287685546875,-0.01354863288104534,0.014289697039313614,0.003039294630661607
1783696422845731800,1.03873193359375,-0.03809153798520565,-0.007945844437927008,-0.0022123057546094057
1783696422855694800,1.04869482421875,-0.029420155751705167,0.0022677622688934205,-0.011018968272954226
1783696422865657900,1.058657958984375,-0.0192407070428133,0.005561396986804902,0.005624561883509158
1783696422875620900,1.068620849609375,-0.028071663752198217,-0.009810615396499633,0.005636727245338261
1783696422885583600,1.07858349609375,-0.024929858595132828,-0.007757153465412557,-0.005224091323837637
1783696422895547600,1.088547607421875,-0.02133154184222221,-0.012891739874891936,-0.012098032213933765
1783696422905510700,1.0985107421875,-0.038541035318374633,0.0010401932353153824,-0.0098387455124408
1783696422915473700,1.1084736328125,-0.024770868641138075,-0.0060947001459077,-0.011895349248684942
1783696422925436700,1.118436767578125,-0.023120178824663162,0.0016663988422602415,0.006992927627265453
1783696422935399700,1.128399658203125,-0.0261205296844244,-0.010494031083397568,-0.004743285536952317
1783696422945362700,1.13836279296875,-0.02148234848976135,0.009394581941515207,-0.00635974429026246
1783696422955326000,1.148325927734375,-0.04048340155780315,0.001057363565824926,0.0006802008165046572
1783696422965288700,1.158288818359375,-0.03644903147518635,-0.010803608489222825,-0.01395955176949501
1783696422975252700,1.168252685546875,-0.023127777609229086,-0.0066645724557340144,-0.01578709599021822
1783696422985215700,1.1782158203125,-0.02536766549050808,-0.013431618905253708,-0.00405026177149266
1783696422995178800,1.1881787109375,-0.03420622098445892,-0.0062962505999952555,-0.012132665135897695
1783696423005141800,1.198141845703125,-0.025075404545664787,-0.0017099822556599974,-0.011546024354360997
1783696423015104800,1.208104736328125,-0.02925882771015167,-0.005064005391299724,0.01349171506203711
1783696423025067800,1.21806787109375,-0.023127777609229086,-0.009871369140408932,-0.008071589709445834
1783696423035030800,1.22803076171875,-0.011751228070259094,-0.006012136428989469,-0.0021691972652450203
1783696423044993500,1.23799365234375,-0.030755203747749326,-0.0025725173691287634,0.004722608075104654
1783696423054957600,1.24795751953125,-0.038842064091563225,-0.011894837792031467,-0.00955101461224258
1783696423064920600,1.257920654296875,-0.025374679753184318,0.0061314884923398495,-0.00007302870359271765
1783696423074883600,1.267883544921875,-0.04797463409602642,-0.0018407324958592652,0.0002288768524304032
1783696423084846800,1.277846923828125,-0.026883915272355077,-0.014069149623811244,-0.01306121469028294
1783696423094809900,1.287809814453125,-0.020887889727950096,0.00200136641766876,-0.006658142714947462
1783696423104772900,1.29777294921875,-0.034355858588218685,-0.009017711453139782,-0.010752097497694194
1783696423114735900,1.30773583984375,-0.033459202009439463,-0.009416428447142243,-0.023307554622925816
1783696423124700000,1.317699951171875,-0.030009353816509245,-0.0066826195690780875,-0.0018579758916050194
1783696423134662700,1.32766259765625,-0.028368016350269316,-0.01605199400410056,-0.01137044859174639
1783696423144625700,1.337625732421875,-0.008469137659668922,-0.0021788053438067433,-0.002562617029622197
1783696423154588700,1.347588623046875,-0.028510639691352844,0.0013414412042126059,-0.004537095440365374
1783696423164551700,1.3575517578125,-0.030153730723261832,-0.0029266280364245176,-0.007223083121329545
1783696423174514700,1.3675146484375,-0.020579262170195577,-0.004307086076773703,-0.00950450858939439
1783696423184477700,1.377477783203125,-0.02955284222066402,-0.009055741908587515,-0.00893554959502071
1783696423194441000,1.38744091796875,-0.036738369810581206,-0.004520619229599833,0.0005076207285746932
1783696423204404700,1.39740478515625,-0.009351765713095664,0.0073402432275936,-0.008861059586703777
1783696423214367700,1.40736767578125,-0.022515198668837545,-0.003849916893802583,-0.0060282838461920615
1783696423224330800,1.417330810546875,-0.04033025682270527,-0.006611088702827691,-0.0027605507545173168
1783696423234293800,1.427293701171875,-0.022377251502871513,0.004938187054544687,-0.008093143954128027
1783696423244256800,1.4372568359375,-0.02252805815041065,-0.002294175351783633,0.006921360228396952
1783696423254219800,1.4472197265625,-0.02328501399755478,-0.0118552364340052,0.004157485005632042
1783696423264182800,1.457182861328125,-0.01445581085383892,0.001840001843497157,-0.004887516313232481
1783696423274145800,1.467145751953125,-0.037944822990894314,-0.0056328913204371925,-0.00890267023872584
1783696423284109800,1.47710986328125,-0.02612695942521095,-0.01895560649111867,0.0024159385679289698
1783696423294072600,1.487072509765625,-0.02597147660255432,-0.007834602615796028,-0.004490333689190447
1783696423304035600,1.49703564453125,-0.020879706421494483,-0.0035279914630576966,-0.002768660995736718
1783696423313998600,1.50699853515625,-0.021932430344820023,0.005306691573373973,-0.02313913925345987
1783696423323961900,1.5169619140625,-0.019239537999033926,0.0015277575565502046,0.007455247909389436
1783696423333924900,1.5269248046875,-0.03256196090877056,-0.013913885996863246,0.004594013259373605
1783696423343888000,1.536887939453125,-0.038707039535045625,-0.008046126474626361,-0.011938859596848487
1783696423353851000,1.546850830078125,-0.023587796336412427,-0.006724120623245835,-0.004278407971560955
1783696423363815000,1.55681494140625,-0.04349252024590969,-0.014414711658470332,0.006307027722336351
1783696423373777700,1.566777587890625,-0.040053777968883514,-0.011335231147892772,-0.01059201156515628
1783696423383740700,1.57674072265625,-0.019092823004722596,0.0021780016262084242,0.008227876249700785
1783696423393703700,1.58670361328125,-0.026121114206314085,-0.006827471399866044,-0.01671235760897398
1783696423403666700,1.596666748046875,-0.018652678021788598,-0.007299363227933645,-0.013654614006169139
1783696423413629700,1.606629638671875,-0.02178922248184681,0.00717193745598197,0.003434979417361319
1783696423423592700,1.6165927734375,-0.03076806322932243,-0.01630655328705907,-0.0036000337859615683
1783696423433556000,1.626555908203125,-0.015802549287676812,-0.013070347844809293,-0.013438560102693736
1783696423443519700,1.636519775390625,-0.02821487161517143,0.0053082259433344,-0.0003039148500189185
1783696423453482800,1.646482666015625,-0.03180968123674392,-0.0024103125447407364,-0.002231668042205274
1783696423463445800,1.65644580078125,-0.016546645653247833,0.005494067371636629,-0.014623860897123813
1783696423473408800,1.66640869140625,-0.021929507735371587,-0.003598682079091668,-0.0016104674039408564
1783696423483371800,1.676371826171875,-0.027321137645840644,-0.019186529170162975,0.00016187603082507847
1783696423493334800,1.686334716796875,-0.014904723665118217,-0.011366649199463426,-0.0032455943251028657
1783696423503297800,1.6962978515625,-0.03480652496516704,-0.008476992172561586,0.008976027735881506
1783696423513260800,1.7062607421875,-0.02793430110812187,-0.010606441949307918,-0.002388356441259384
1783696423523224800,1.716224853515625,-0.017603461229801175,0.012283764044381678,0.0025812486648559567
1783696423533187600,1.7261875,-0.036601591688394546,-0.004434438783489167,0.0034247502842918035
1783696423543150600,1.736150634765625,-0.034067104774713516,-0.009302775472216307,-0.004493950418382883
1783696423553113600,1.746113525390625,-0.026885668838024138,-0.0024525807838886977,-0.011298917725495993
1783696423563076600,1.75607666015625,-0.028975334593653677,-0.009312420083396136,-0.000696786625124514
1783696423573039900,1.766039794921875,-0.04050327530205249,-0.01705046698953956,-0.004625577441416681
1783696423583003000,1.7760029296875,-0.023589549902081487,0.0006505728632211685,-0.017798947269283234
1783696423592966000,1.7859658203125,-0.028974165549874305,0.0005225625693798065,0.001711808886565268
1783696423602930000,1.795929931640625,-0.03271861277520657,-0.010693389580398798,-0.014354688566923141
1783696423612892700,1.805892578125,-0.016101824495196343,-0.011829188677296041,-0.0017311711741611361
1783696423622855200,1.815855224609375,-0.03450374262630939,-0.011244557189755141,-0.005695325564779341
1783696423632818200,1.825818115234375,-0.03137245886325836,-0.0005663651784881949,-0.010535714800655842
1783696423642781000,1.835781005859375,-0.02239128002822399,0.005657733500748873,0.0008333090189844369
1783696423652744000,1.845743896484375,-0.037359716579318046,-0.0015270269041880965,-0.007912124831415712
1783696423662707200,1.855707275390625,-0.027487141862511635,-0.010807590544596313,-0.0051118996536359184
1783696423672670200,1.865670166015625,-0.02208382151424885,-0.0002623041979968548,-0.009176189950481056
1783696423682634200,1.87563427734375,-0.02103226663470268,-0.013025595387630163,-0.004883059333823621
1783696423692597200,1.88559716796875,-0.02477496029436588,-0.006808730166777968,-0.013724720100313424
1783696423702560300,1.895560302734375,-0.024019758012890816,-0.00614891455117613,-0.009471044711209834
1783696423712523300,1.905523193359375,-0.03210428026914596,-0.003938946884125471,0.008003675572387873
1783696423722486000,1.915486083984375,-0.030469372543692586,-0.010115151301026344,0.0008464972941204905
1783696423732449000,1.925448974609375,-0.03121171534359455,0.002026245130598545,0.0030438977405428886
1783696423742412000,1.935412109375,-0.040193478700518606,-0.0149768390532583,-0.005164214362762868
1783696423752375000,1.945375,-0.020298107141256332,-0.0068630541699007145,0.0032124227078631517
1783696423762339000,1.955339111328125,-0.013411270236968994,-0.009500636131875217,0.00034691374152898786
1783696423772302000,1.965302001953125,-0.047082069170475006,-0.01054448262900114,-0.003785656018555164
1783696423782265000,1.97526513671875,-0.027328736430406567,0.007501753932237625,-0.008822627272456885
1783696423792228000,1.98522802734375,-0.023136545437574384,-0.007455905496515333,-0.011747538275830447
1783696423802191000,1.995191162109375,-0.033172201761603355,-0.013179215046763419,-0.004882949735969305
1783696423812154000,2.005154052734375,-0.026733693146705626,0.0061652446314692496,-0.009338285177014767
1783696423822117000,2.0151171875,-0.036762335208058355,0.008637443431280553,-0.0035202465480193494
1783696423832080100,2.025080078125,-0.03766892865896225,-0.005777852749079465,-0.011034019711613654
1783696423842044200,2.035044189453125,-0.0294406140178442,0.0010260551121085881,-0.006290661109425127
1783696423852007200,2.045007080078125,-0.03587561550140381,-0.00007708382420241832,-0.0010096519665792583
1783696423861970200,2.05497021484375,-0.04276829762458801,-0.011437778206914663,-0.002450242696329951
1783696423871933200,2.06493310546875,-0.018228315129876136,0.013455438172258435,-0.0053453430833294985
1783696423881896000,2.07489599609375,-0.03872632875740528,0.012357925259135663,-0.007634549999050795
1783696423891859000,2.08485888671875,-0.036489948007464405,-0.00026482494864612816,-0.014400135143846273
1783696423901822200,2.094822265625,-0.028255203625559805,-0.00425272554103285,-0.007075381746329367
1783696423911785200,2.10478515625,-0.03559153786301612,0.005867211532965302,0.008932225126773118
1783696423921749000,2.1147490234375,-0.021827800926566124,-0.001894946901127696,-0.02065258313473314
1783696423931712300,2.124712158203125,-0.023321254354715347,0.007081774954497814,-0.004110650189220905
1783696423941675300,2.13467529296875,-0.03888414966762066,-0.009754757023416459,0.007472199044190346
1783696423951638300,2.14463818359375,-0.029757424882054326,-0.003546951891854405,-0.008850099801272153
1783696423961601000,2.15460107421875,-0.02779752298593521,0.0100385789334774,-0.010675488597527146
1783696423971564000,2.16456396484375,-0.048745033946633334,-0.002140701823122799,0.007305464175157248
1783696423981527000,2.174527099609375,-0.03648118017911911,-0.005950871228426694,-0.016811397536657748
1783696423991490000,2.184489990234375,-0.021513912671804428,-0.01332611270416528,-0.010425897750630974
1783696424001453000,2.194453125,-0.03154372377693653,-0.0050601694663986565,-0.008552651224657893
1783696424011417000,2.2044169921875,-0.021224574336409566,0.013200294367410242,-0.012888488471880554
1783696424021380000,2.214380126953125,-0.020470541098713872,-0.003451565225981176,0.007354819742217659
1783696424031343000,2.224343017578125,-0.04157470392584801,-0.012659830815158783,0.0038212753212079403
1783696424041306000,2.23430615234375,-0.02092296104133129,-0.006019735213555396,-0.004490370221808553
1783696424051269000,2.24426904296875,-0.01777589518725872,-0.0037870077254250644,-0.0016056450983509421
1783696424061232000,2.254232177734375,-0.03438976085782051,-0.009722096862830222,-0.007255231825262307
1783696424071195100,2.264195068359375,-0.016285948890447616,-0.006876278977654874,-0.00927289179060608
1783696424081158100,2.274158203125,-0.022114801174402236,-0.015900931628234683,0.013321326931193471
1783696424091122200,2.2841220703125,-0.03199555919766426,-0.018736629978194832,-0.012886698373593389
1783696424101085200,2.294085205078125,-0.027205986833572386,0.0034495924646034833,-0.016519392320141196
1783696424111048200,2.304048095703125,-0.021218144595623014,0.0011343012595549226,0.0012714081753045319
1783696424121011000,2.314010986328125,-0.033797640183568,0.000044314065761864185,-0.014157814287953078
1783696424130974000,2.323973876953125,-0.026314590951800346,0.00326108415517956,-0.007208616204559802
1783696424140937200,2.333937255859375,-0.040977907076478005,-0.005784793946519494,-0.00554875670094043
1783696424150900200,2.343900146484375,-0.022431612038612363,-0.008644275030866264,-0.018642814214900136
1783696424160863200,2.35386328125,-0.019140753799676894,-0.00024060382284224032,-0.0035304391484707594
1783696424170827300,2.3638271484375,-0.037248072898387906,-0.013961634128727017,0.0015308262964710592
1783696424180790300,2.373790283203125,-0.03320785759687424,-0.011337824963778257,-0.007352262458950281
1783696424190753300,2.383753173828125,-0.029462241327762602,0.010979513045400381,-0.003274491626024246
1783696424200716000,2.393716064453125,-0.02646773568689823,-0.0038218963757157324,-0.009320786052942275
1783696424210679000,2.403678955078125,-0.021088380736112595,-0.0054143897315487265,-0.007694573090597987
1783696424220642000,2.41364208984375,-0.009708908587694168,0.005911452533490956,-0.004825337797217071
1783696424230605000,2.42360498046875,-0.03768880240321159,-0.0045918213022872805,0.007555639543943107
1783696424240568000,2.433568115234375,-0.033649171623587604,-0.001816036446020007,-0.01911441378202289
1783696424250532000,2.443531982421875,-0.024064181676506993,0.0006639072688296437,-0.011637355899624526
1783696424260495000,2.4534951171875,-0.046807928404211996,-0.011042166485451161,-0.01656648286487907
1783696424270458000,2.4634580078125,-0.03260112387537956,0.007992898450046778,-0.011867730589397251
1783696424280421000,2.473421142578125,-0.006713818424940109,0.019512071330100297,-0.00033964375052601096
1783696424290384100,2.483384033203125,-0.03036123599410057,-0.015428857137076556,-0.003151815094426274
1783696424300347100,2.49334716796875,-0.024826982742547986,0.008330240645632148,-0.01053118475601077
1783696424310310100,2.50331005859375,-0.03245733149051666,-0.008242233568616211,-0.0010221461219713092
1783696424320273200,2.513273193359375,-0.02557809337079525,-0.014300766422599554,-0.008495806470885872
1783696424330237200,2.5232373046875,-0.021093056911230087,0.003980703666619957,-0.0121455246174708
1783696424340200200,2.5332001953125,-0.02034486889243126,-0.0005934358485043048,-0.0026511720959097144
1783696424350163200,2.5431630859375,-0.026037527576088904,-0.0012842311242595315,-0.0015097104432061313
1783696424360126000,2.5531259765625,-0.028585458493232727,0.00246434428691864,-0.00977488649599254
1783696424370089000,2.5630888671875,-0.03351297802329063,-0.006936776993237435,-0.0033285964334383604
1783696424380052000,2.573052001953125,-0.023339959055185315,-0.004431406576186419,-0.00696293434780091
1783696424390015200,2.58301513671875,-0.015710779350996018,-0.0037885055627673862,-0.01383979784734547
1783696424399978200,2.592978271484375,-0.02228548156619072,-0.00492112632188946,-0.0035125381655991077
1783696424409942300,2.6029423828125,-0.03097030780315399,-0.010357983613573015,-0.007810929479263723
1783696424419905300,2.6129052734375,-0.016906711137294767,0.0011802227605134249,0.0038990532651543616
1783696424429868300,2.622868408203125,-0.03710486503541469,0.012928820482268929,0.00252246768232435
1783696424439831000,2.6328310546875,-0.04698386949300766,-0.016794263738766312,-0.005998217501491308
1783696424449794000,2.6427939453125,-0.020053192469477652,0.004033493299782276,0.008306129117682576
1783696424459757000,2.652757080078125,-0.02468962009847164,0.003268281080946326,0.0036124914087355135
1783696424469720000,2.662719970703125,-0.050581601724028584,-0.018253157310187815,-0.0054190659066662185
1783696424479683000,2.67268310546875,-0.023942016601562498,0.006380860143527388,-0.01533511443901807
1783696424489646000,2.68264599609375,-0.03426233508586883,0.0015519786823540926,-0.006137114515528083
1783696424499610000,2.692610107421875,-0.034412557211518285,0.0003165186032652855,-0.0153373429287225
1783696424509573000,2.702572998046875,-0.013460370075702666,0.0035791005957871674,-0.012993885075114666
1783696424519536000,2.7125361328125,-0.03949731312990189,-0.012363185956142842,-0.0023076924204826353
1783696424529499100,2.7224990234375,-0.04517945041954517,-0.004828443069756031,-0.01696720915287733
1783696424539462100,2.732462158203125,-0.021228081467747687,0.0032834421174600717,0.0031241599025204777
1783696424549425200,2.742425048828125,-0.03589724281132221,-0.008075462166965008,0.0033516850480809807
1783696424559388200,2.75238818359375,-0.030219197174906728,-0.004151201395317912,-0.015175065039098263
1783696424569351200,2.76235107421875,-0.02288929267823696,0.009760821438021957,-0.001817716946452856
1783696424579315200,2.772315185546875,-0.03755962306559086,-0.02452138739209622,-0.006022219431586563
1783696424589278200,2.7822783203125,-0.026641338688135147,-0.003127557436004281,-0.010359591048769653
1783696424599241000,2.792240966796875,-0.029781974801421165,0.0077198171297088265,0.003567629353702068
1783696424609204000,2.802203857421875,-0.03682371000647545,-0.0071176865180954335,0.011721125192940234
1783696424619167000,2.8121669921875,-0.03383621862828731,-0.013400675777718423,-0.004443535405397415
1783696424629131000,2.822131103515625,-0.03053717708289623,-0.01028605088852346,-0.018968831298872828
1783696424639093800,2.83209375,-0.040565234622359274,-0.009068820585869252,-0.006650288202054798
1783696424649057000,2.84205712890625,-0.020513795718550682,-0.0014662000950425862,-0.016789222237467764
1783696424659020800,2.852020751953125,-0.027695816177129743,0.015511713114939629,-0.012852175049483775
1783696424668984000,2.861984130859375,-0.028003274691104887,-0.006210508545301854,-0.0041077275797724725
1783696424678947000,2.871947021484375,-0.018731003955006598,0.002258921375311911,-0.0015349544823169707
1783696424688910000,2.88191015625,-0.027556699967384336,-0.00009962444957345723,0.00043210780695080754
1783696424698873000,2.891873046875,-0.029201544564962385,-0.021388642324320972,0.00014894348401576279
1783696424708836000,2.901836181640625,-0.014684943434596061,-0.016245288086496293,-0.007252711074613035
1783696424718798800,2.911798828125,-0.04131576072871685,-0.012692783236689865,0.0012009002223610876
1783696424728761900,2.921761962890625,-0.03847732243239879,-0.014102175110578536,-0.008964702624268829
1783696424738726000,2.931725830078125,-0.020219196686148643,-0.009495010108686983,-0.010329013247415423
1783696424748689000,2.94168896484375,-0.02844751132726669,-0.012635609689354895,0.0006806392079219222
1783696424758652000,2.95165185546875,-0.029053076004981995,0.003292173413187265,-0.0066853229828178875
1783696424768615000,2.961614990234375,-0.015578092882037162,0.014881306256912648,-0.015771606160141526
1783696424778578000,2.971577880859375,-0.03413607835769653,-0.00249452022947371,0.0006037380468100309
1783696424788541200,2.981541259765625,-0.019632921230792997,0.003755808869563043,-0.016424955502338707
1783696424798504000,2.99150390625,-0.022024784803390502,0.001660334427654743,-0.00900521729774773
1783696424808467000,3.001467041015625,-0.045215106254816055,-0.00658029170576483,0.0007891776163130998
1783696424818430000,3.011429931640625,-0.03624269524812698,-0.00838555102944374,-0.009221892255730927
1783696424828394000,3.02139404296875,-0.02277764899730682,0.0010887816173955798,-0.013705869269371031
1783696424838357000,3.03135693359375,-0.03833879074454307,-0.0075381404198706144,-0.00706723497249186
1783696424848320000,3.041320068359375,-0.02173778455555439,-0.018534458469599484,-0.012755180948413908
1783696424858283000,3.051282958984375,-0.008866612544655799,0.0012464929297566413,0.003152984138205647
1783696424868246000,3.06124609375,-0.04163724776804447,-0.007214826749637722,-0.0036636370740830895
1783696424878208800,3.071208740234375,-0.027278467547893523,-0.0007734685905277729,-0.02070387493055314
1783696424888172000,3.081172119140625,-0.03311141148507595,0.005079897080175578,-0.013025778050720692
1783696424898135000,3.091135009765625,-0.04508943404853344,-0.006447605236805975,0.003141512896120548
1783696424908098800,3.101098876953125,-0.01711538545191288,-0.005752024188078939,-0.005733757879026234
1783696424918062000,3.11106201171875,-0.02698796016871929,0.0026046295404434203,-0.0016050971090793608
1783696424928025000,3.121025146484375,-0.028496611166000364,-0.0008540960786864162,-0.007272657884098589
1783696424937988000,3.130988037109375,-0.022514029625058173,-0.009900485637038946,-0.01234488311447203
1783696424947951000,3.140951171875,-0.034330724146962165,0.003089234719611704,-0.001071319025941193
1783696424957913900,3.150913818359375,-0.03957914619445801,-0.0025857787095010278,0.00712806178163737
1783696424967876900,3.160876953125,-0.02731646147072315,0.0020570055950433013,-0.006442381072416901
1783696424977839900,3.17083984375,-0.013994038560986518,-0.0007312003513798117,0.010569836265966295
1783696424987804000,3.180803955078125,-0.029413726010918614,-0.003819521755538881,-0.010098675090260804
1783696424997767000,3.190766845703125,-0.019838088414072988,0.0023795155476778744,0.0032120939143002033
1783696425007730000,3.20072998046875,-0.046316930016875264,-0.002274301607534289,-0.005197057186439633
1783696425017693000,3.21069287109375,-0.021931261301040648,-0.00803666452653706,-0.006940685983374714
1783696425027656200,3.22065625,-0.012951836031675337,-0.003410648693703115,-0.003223382493294775
1783696425037619000,3.230618896484375,-0.025217443364858625,0.0001923807669430971,0.006961290379986167
1783696425047582000,3.24058203125,-0.03929039238095283,-0.002310651562549174,-0.009209909556992352
1783696425057545000,3.250544921875,-0.020583353823423384,-0.00020651889014989137,-0.005085998027399182
1783696425067509000,3.260509033203125,-0.03106090869605541,-0.00853697873149067,0.017519911132194102
1783696425077472000,3.270471923828125,-0.029421909317374227,-0.005682210354879498,-0.014618928993679583
1783696425087435000,3.28043505859375,-0.024183424142003057,0.008803118854388593,-0.014317973285727202
1783696425097398000,3.29039794921875,-0.03944704424738884,-0.011512268215231597,0.01544164355341345
1783696425107361000,3.300361083984375,-0.021043372550606728,-0.014712598626501858,-0.006437485701590776
1783696425117323800,3.31032373046875,-0.019095745614171027,0.0012572335194796322,-0.004361227416805923
1783696425127286800,3.320286865234375,-0.04049275390803814,-0.007872158147208392,0.0006970788860693574
1783696425137250000,3.33025,-0.04603285237848759,-0.0006962021032348275,-0.003987169940024614
1783696425147213800,3.3402138671875,-0.015204583394527434,0.006826813812740147,-0.00411770098451525
1783696425157177000,3.350177001953125,-0.027623335462808606,0.00729629448801279,0.0015161401839926837
1783696425167140000,3.36014013671875,-0.024185177707672117,-0.007551292162388563,-0.002844210449978709
1783696425177103000,3.37010302734375,-0.012205986100435256,0.006496047488413751,-0.0043944720992818475
1783696425187066000,3.380066162109375,-0.04078969102799892,-0.005756627297960221,0.002995309358462691
1783696425197028900,3.39002880859375,-0.022686463582515717,-0.012207374339923261,-0.013652677777409552
1783696425206992000,3.399991943359375,-0.023279753300547597,-0.014149557916261254,-0.004684212293475866
1783696425216955000,3.409954833984375,-0.03361059317886829,-0.011766206443682313,-0.003756101130507886
1783696425226918000,3.41991796875,-0.02538286305963993,-0.004501512670330703,-0.009880283099226653
1783696425236882000,3.4298818359375,-0.025819500911235808,-0.005401712913066148,-0.004948233524523675
1783696425246845000,3.439844970703125,-0.03704875093400478,0.00680314067620784,0.0008162848189473151
1783696425256808000,3.449807861328125,-0.02582593065202236,0.0063809697413817045,0.00021660189274698495
1783696425266771200,3.459771240234375,-0.022228198421001433,0.004160736408643425,0.0045078328132629394
1783696425276734000,3.46973388671875,-0.02402735679745674,-0.004074775158241391,-0.00885729672703892
1783696425286697000,3.479697021484375,-0.015950433325767517,-0.008136179378256201,-0.0117343865333125
1783696425296660000,3.489659912109375,-0.03285772898495197,-0.0030209917889907952,0.00853022019714117
1783696425306623000,3.499623046875,-0.03241466139256954,-0.015831519653834402,-0.01172737227063626
1783696425316587000,3.5095869140625,-0.01714753415584564,-0.0039869142116978765,-0.015560228431783616
1783696425326550000,3.519550048828125,-0.03285305280983448,0.0019514263287186621,-0.001167911268211901
1783696425336513000,3.529512939453125,-0.028065234011411665,-0.006286532923579216,-0.00219093417301774
1783696425346476000,3.53947607421875,-0.02102174524068832,0.008784012295119464,-0.006576492313481867
1783696425356438800,3.549438720703125,-0.03777531164288521,0.0039735432734712955,-0.014040398453362286
1783696425366401800,3.55940185546875,-0.026713234880566594,-0.01688073644582182,-0.007423683727346361
1783696425376365000,3.569364990234375,-0.019978958189487455,0.005122274917177856,-0.009838453251495956
1783696425386328000,3.579328125,-0.03224515004456043,-0.00818268540110439,0.010980718621797858
1783696425396291000,3.589291015625,-0.028513562300801275,-0.006961838369257747,0.00043952392842620607
1783696425406255000,3.599255126953125,-0.02073649855852127,0.010925335172750055,-0.008537344057671726
1783696425416218000,3.609218017578125,-0.02776654332578182,-0.005942834052443504,-0.0073247533975169055
1783696425426181000,3.61918115234375,-0.025820669955015182,0.00368234177455306,-0.010196582506783305
1783696425436143900,3.629143798828125,-0.01788403173685074,-0.0011990005262196063,0.0012695084791630505
1783696425446107000,3.63910693359375,-0.04676350474059582,-0.017096973012387752,-0.006816621212288737
1783696425456070000,3.64906982421875,-0.020874445724487302,0.003488682365976274,-0.018297727104276417
1783696425466033000,3.659032958984375,-0.02296118887066841,0.015502506895177065,-0.007773227817378938
1783696425475996000,3.668995849609375,-0.04167115003764629,-0.006986205625534057,0.0018232699044048784
1783696425485960000,3.6789599609375,-0.023563246417045592,-0.008263860878534614,-0.005612579184770584
1783696425495923000,3.6889228515625,-0.010837035834789276,0.004547726432234048,0.010119462149962783
1783696425505886000,3.698885986328125,-0.04301145873069763,-0.008328888938762246,-0.012398330334760248
1783696425515849000,3.708848876953125,-0.025354806008934975,-0.001665193265862763,-0.012881547274440526
1783696425525812000,3.71881201171875,-0.029690789386630057,0.0034685894260182977,0.004919007430039346
1783696425535775000,3.72877490234375,-0.02131342166364193,-0.004590725323744118,0.004344860803894698
1783696425545738000,3.738738037109375,-0.020711364117264746,-0.00906030848585069,-0.009052746233902871
1783696425555701000,3.748700927734375,-0.03207446965277195,-0.0010772738426923752,0.008028371622227132
1783696425565665000,3.7586650390625,-0.036865211060643194,-0.01712141333390027,0.00005710048209875822
1783696425575628000,3.7686279296875,-0.01891045217514038,0.0015011252779513597,-0.008464388419315218
1783696425585591000,3.778591064453125,-0.021596330258250234,0.00820044025350362,0.009317461584694682
1783696425595553800,3.7885537109375,-0.02054945155382156,-0.002470737495087087,-0.005119169644638896
1783696425605516800,3.798516845703125,-0.03790799811184406,-0.006547741143032908,0.002577412739954889
1783696425615480000,3.80847998046875,-0.029675591817498206,-0.010562968133762477,0.001723535856977105
1783696425625442000,3.818442138671875,-0.022349194452166557,-0.015179960409924387,-0.010557451708428561
1783696425635405000,3.828405029296875,-0.013369769182801246,0.0073914254255592815,-0.008606865629926323
1783696425645368000,3.8383681640625,-0.04195113602280617,0.0005700549729168415,0.004637121748737991
1783696425655332000,3.84833203125,-0.023411855247616766,-0.005492131142877042,0.0007565539883449674
1783696425665294800,3.858294921875,-0.014286299505829811,0.003407397290691733,-0.00988762615546584
1783696425675257900,3.8682578125,-0.030302199283242223,-0.001080561778321862,-0.00486698498185724
1783696425685220900,3.878220947265625,-0.036596330991387364,-0.01025101610776037,-0.026581936651095747
1783696425695184000,3.888183837890625,-0.018785949012637138,0.00877034909594804,-0.011739208838902414
1783696425705147100,3.898147216796875,-0.03045826662778854,-0.00870985108036548,-0.01584149305857718
1783696425715110100,3.908110107421875,-0.028519992041587828,-0.003894632818363607,-0.015090966952219604
1783696425725073200,3.9180732421875,-0.027921441626548766,0.007333886552043259,-0.003118606944568455
1783696425735037200,3.928037109375,-0.018491934502124784,0.001122172430343926,0.013664185552112757
1783696425745000000,3.938,-0.02223871981501579,0.003975150708667934,-0.0015964388785883784
1783696425754963000,3.947962890625,-0.030919454398751257,0.007934519326314329,0.00435121747944504
1783696425764926000,3.957926025390625,-0.03301613441705704,-0.00562996871098876,-0.004642857369780541
1783696425774889000,3.967888916015625,-0.009377484676241873,-0.010631174531765281,-0.004744089254550636
1783696425784852000,3.97785205078125,-0.02867722842991352,0.0006034092532470822,0.0014196210069581864
1783696425794815000,3.98781494140625,-0.03960837228894234,-0.009031155456602573,-0.003571611409075558
1783696425804778000,3.997778076171875,-0.022402385944128037,-0.005884454928711057,-0.015477810845337807
1783696425814742000,4.007741943359375,-0.03331950127780437,-0.00557447566408664,-0.0014625833658501505
1783696425824704800,4.017704833984375,-0.03901040639579296,0.0029127091089263557,0.0036181539645418525
1783696425834668000,4.02766796875,-0.031681670942902564,0.0009388152200728654,-0.014652758198045193
1783696425844631000,4.037631103515625,-0.02554711371064186,-0.0002252601232379675,0.0023806115262210367
1783696425854594000,4.047593994140625,-0.0361766442745924,-0.008381605506688357,0.0076786083364859216
1783696425864557000,4.05755712890625,-0.032438042268157004,0.014952654460072516,-0.004525258872099221
1783696425874520000,4.06752001953125,-0.025553543451428413,0.018126242994889616,0.01187649841774255
1783696425884483000,4.077483154296875,-0.032898060995340345,0.001394705761410296,-0.0014815803272649644
1783696425894445800,4.08744580078125,-0.0049205052673816675,0.011138868325576185,-0.00901182970162481
1783696425904409900,4.097409912109375,-0.04441898744106292,-0.015989194433577356,-0.0037271672969684004
1783696425914372900,4.107372802734375,-0.03335106545984745,-0.0006733692169189453,-0.0016938348384574055
1783696425924335900,4.1173359375,-0.02826455597579479,0.00604589256811887,-0.005988171031512319
1783696425934299000,4.127298828125,-0.018538111731410026,-0.01589552480075508,0.0026143472168594596
1783696425944262100,4.13726220703125,-0.024673253485560417,-0.018280629839003085,-0.00876899738907814
1783696425954225200,4.14722509765625,-0.023172201272845267,0.013687347231991588,-0.013018361929245293
1783696425964188200,4.157188232421875,-0.0370914210319519,0.0073832421191036696,0.0024614582100883123
1783696425974151000,4.16715087890625,-0.037844285225868225,-0.010394150905497371,-0.014053038739226758
1783696425984115000,4.177114990234375,-0.015543606090545654,-0.011922639114409684,-0.005472257398627698
1783696425994078000,4.187077880859375,-0.025264205116033552,-0.0037873730516061184,-0.0016552563937380909
1783696426004041000,4.197041015625,-0.0159989486426115,0.005775222400575876,-0.007170914542675018
1783696426014004000,4.20700390625,-0.020478724405169485,0.003619724867120385,-0.012293956644833088
1783696426023967000,4.216967041015625,-0.04622106842696667,-0.011214088986255227,0.00039155660085380073
1783696426033930000,4.226929931640625,-0.02019581581056118,-0.0029137320222333072,-0.005661605958268046
1783696426043893000,4.23689306640625,-0.012857143485546112,0.009726298113912343,0.007868322222307324
1783696426053856000,4.24685595703125,-0.043831542941927905,-0.010460786400921643,-0.009222915169037877
1783696426063819800,4.25681982421875,-0.02602934426963329,0.0011591434398666024,-0.015005955549888312
1783696426073783000,4.266782958984375,-0.0335100554138422,0.0032964477295055984,-0.0064170274354517455
1783696426083746000,4.27674609375,-0.02408522446453571,-0.005784611283428966,-0.008804799354821443
1783696426093709000,4.286708984375,-0.033814006796479223,0.010974471544101834,-0.006196699215658009
1783696426103672000,4.296672119140625,-0.024535306319594382,-0.00016600421667099,0.003389715503528714
1783696426113635000,4.306635009765625,-0.04219838878214359,-0.004702770863473415,0.005067293326929212
1783696426123598000,4.31659814453125,-0.02738309696614742,-0.004757788986340165,-0.011345569878816604
1783696426133560800,4.326560791015625,-0.021096564042568204,-0.0032680253526195884,0.008355155891180037
1783696426143523800,4.33652392578125,-0.042647886115312575,-0.021099340521544215,-0.00917027166634798
1783696426153488000,4.34648779296875,-0.015415595796704292,-0.007674991607293486,-0.008755443787761032
1783696426163451000,4.356450927734375,-0.02095218713581562,-0.0006857172418385744,0.00876596518177539
1783696426173414000,4.366413818359375,-0.037115386429429055,-0.01037990318443626,-0.01410604756809771
1783696426183377200,4.376377197265625,-0.02214987248778343,0.006944996832311153,-0.008275405185855924
1783696426193340200,4.386340087890625,-0.026036943054199218,0.002377250525355339,-0.0030878830127418037
1783696426203303200,4.39630322265625,-0.03696574882566929,-0.00997632735222578,-0.0036215514980256556
1783696426213266000,4.406265869140625,-0.009582651859521864,0.008855981552787124,-0.007321392396651208
1783696426223229000,4.41622900390625,-0.0302291340470314,-0.005066562674567103,-0.009947247388213872
1783696426233192000,4.42619189453125,-0.03742050685584545,-0.014906440698169172,-0.0012162073893472551
1783696426243156000,4.436156005859375,-0.01392681854367256,0.0036092765383422373,-0.005971183364093303
1783696426253119000,4.446118896484375,-0.029788989064097403,-0.00648665860556066,0.013995865191891789
1783696426263082000,4.45608203125,-0.032039398339390755,-0.015159465611167251,-0.006958148574829101
1783696426273045000,4.466044921875,-0.01916705728471279,0.010369345257803798,-0.005177183442190289
1783696426283008000,4.476008056640625,-0.03653144906163215,-0.006988324517384171,0.005123882352374494
1783696426292971000,4.485970947265625,-0.03593991290926933,-0.010991788005083799,-0.013868804746121167
1783696426302934000,4.49593408203125,-0.034434769043326374,0.0026420389413833617,-0.0034816681033000346
1783696426312897000,4.50589697265625,-0.040270051068067546,-0.011521109108813106,-0.0004107727579772472
1783696426322861000,4.515861083984375,-0.031444939577579496,-0.005403758739680051,-0.01121383325792849
1783696426332824000,4.525823974609375,-0.022910335466265676,-0.0027232509514316917,-0.002962101208604872
1783696426342787000,4.535787109375,-0.03623509646356106,-0.00532550587169826,-0.005579809426330029
1783696426352750000,4.54575,-0.00706102442741394,-0.006084617143310606,-0.0001879603201523423
1783696426362713000,4.555713134765625,-0.0185784437417984,-0.005201075774431229,-0.01092076859548688
1783696426372675800,4.56567578125,-0.0395312153995037,-0.005886866081506014,-0.01360310301464051
1783696426382638800,4.575638916015625,-0.023524083450436592,0.005772738182544708,-0.000600377045944333
1783696426392601900,4.585601806640625,-0.02800795086622238,0.016081585424765944,-0.0013239055475220084
1783696426402566000,4.59556591796875,-0.028463877940177917,-0.00010857494100928306,0.00021685762107372282
1783696426412529000,4.60552880859375,-0.032658407020568846,0.006776033473573625,-0.004147913459688425
1783696426422492000,4.615491943359375,-0.02981178541779518,0.0021061784990131856,0.014059322349540888
1783696426432455200,4.625455078125,-0.0390957465916872,-0.009080109164863825,-0.010201550942845642
1783696426442418200,4.635418212890625,-0.020093524479866027,-0.003179579884186387,-0.016773038287647066
1783696426452381000,4.645380859375,-0.027575989189743993,0.0011277984535321593,-0.0020559461491182446
1783696426462344000,4.655343994140625,-0.03491407699286937,-0.013533983301185071,0.006926109468750655
1783696426472307000,4.665306884765625,-0.016058569875359533,0.0063021323515102265,0.0038317601826041935
1783696426482270000,4.67527001953125,-0.036706805628538126,-0.003565912320651114,0.006173172209598124
1783696426492234000,4.68523388671875,-0.038056466671824454,0.00330192762222141,0.0007381050162017345
1783696426502197000,4.695197021484375,-0.018448679882287978,0.01730367456562817,-0.0009748363815248012
1783696426512160000,4.705159912109375,-0.019493220499157905,-0.004655862981826067,0.006826996475830674
1783696426522123000,4.715123046875,-0.039707741010189056,-0.014071195450425147,-0.007522029535286128
1783696426532086000,4.7250859375,-0.01172784719467163,-0.006278276551887393,-0.009567636953480542
1783696426542049000,4.735049072265625,-0.022945406779646873,-0.005197020653821527,-0.005709317557513713
1783696426552012000,4.745011962890625,-0.02324877364039421,-0.00831493347864598,-0.01086494675502181
1783696426561975000,4.75497509765625,-0.021004209583997725,0.00584350186381489,0.0019183277767151593
1783696426571938000,4.76493798828125,-0.03282031958401203,-0.01623264780063182,0.005469846245832741
1783696426581902000,4.774902099609375,-0.026833061867952344,-0.005707892785407603,-0.007174092880450188
1783696426591865000,4.784864990234375,-0.022336334970593452,-0.010305340110883117,-0.008580890938453377
1783696426601828000,4.794828125,-0.03714519704580307,0.005379574146494269,-0.000767002317123115
1783696426611790800,4.804790771484375,-0.014248305583000182,0.0014069807210937142,-0.008513963182084262
1783696426621753900,4.81475390625,-0.026961656683683395,0.007928454911708831,0.004432648685202002
1783696426631717400,4.82471728515625,-0.03429740639925003,-0.004484780731238425,-0.008206906526908277
1783696426641680400,4.834680419921875,-0.032955344140529634,-0.006790281194634735,-0.015784684837423263
1783696426651643400,4.844643310546875,-0.006169628545641899,0.014815766740031539,0.00014149082992225885
1783696426661607200,4.854607177734375,-0.040592707151174544,-0.012383315428718924,0.012541501665115355
1783696426671570200,4.864570068359375,-0.01740297022163868,-0.007252016954869031,-0.008938618334941565
1783696426681533400,4.874533447265625,-0.003183306211233139,0.006214563665911555,0.00785911600254476
1783696426691496400,4.884496337890625,-0.038655017086863516,0.00044949733316898343,0.010062653928808868
1783696426701459500,4.89445947265625,-0.034168811583518977,0.0004229746524244547,-0.005825783544033765
1783696426711422500,4.90442236328125,-0.026532033094763756,0.008631013690494,0.00782583478745073
1783696426721385500,4.914385498046875,-0.045835868501663206,-0.0022899375680834055,0.012479432746954261
1783696426731348200,4.92434814453125,-0.01246376025378704,0.002960164979845285,0.009130049253813922
1783696426741311200,4.934311279296875,-0.039838673913478846,0.0034321298731490968,0.006947590648196637
1783696426751275300,4.944275146484375,-0.046425651088356966,-0.015514964517951011,-0.009794504511915146
1783696426761238300,4.95423828125,-0.009014496582746506,0.012429383060149847,-0.009203991272859275
1783696426771201300,4.964201171875,-0.022781156128644942,0.0019864245768636463,0.013197590953670442
1783696426781164300,4.974164306640625,-0.028325346252322196,-0.004093479858711361,0.006452464075013995
1783696426791127600,4.98412744140625,-0.02069675107002258,0.0017861892970278859,-0.004737074991874397
1783696426801090600,4.994090576171875,-0.043889410609006876,0.013671345945261417,0.005470576898194849
1783696426811053300,5.00405322265625,-0.044350013858079906,0.0006334390653297305,-0.01037624992262572
1783696426821016300,5.014016357421875,-0.01920972738265991,-0.009121281425468622,-0.006489800410717725
1783696426830980400,5.02398046875,-0.030875615257024765,-0.005372158025018871,0.01219973902273923
1783696426840943400,5.033943359375,-0.023848493099212643,-0.019810250559076665,-0.0013184987200424074
1783696426850906400,5.04390625,-0.026833061867952344,-0.0022980478093028067,-0.005699782544188201
1783696426860869400,5.053869384765625,-0.04478782075345516,0.002275762912258506,0.0013314677994698285
1783696426870832400,5.063832275390625,-0.03237023772895336,-0.0035378918025642634,0.0004617722928524017
1783696426880795400,5.07379541015625,-0.015004092386364937,0.005441022010147571,-0.00525854158271104
1783696426890758400,5.08375830078125,-0.03475567156076431,-0.0007784004939720034,-0.0017594474205747245
1783696426900721400,5.093721435546875,-0.026830723780393598,-0.0001441942436620593,-0.002390475333109498
1783696426910684400,5.103684326171875,-0.01950432641506195,0.01612834717594087,0.006608458354324102
1783696426920648400,5.1136484375,-0.02639408592879772,-0.0009509075166657567,0.015148286630026995
1783696426930611500,5.123611572265625,-0.04151040651798248,0.005188325890712439,-0.0070670888420194386
1783696426940574500,5.133574462890625,-0.011280103427171706,-0.007489588570408523,0.0004154489330947399
1783696426950537500,5.143537353515625,-0.03088496760725975,-0.0013274126788601279,-0.0007574307711794972
1783696426960500500,5.15350048828125,-0.02535539053082466,0.0033302769338712096,-0.006283610314130782
1783696426970463200,5.163463134765625,-0.02699965060651302,0.00640234132297337,0.008228278108499944
1783696426980426200,5.17342626953125,-0.039272856724262235,-0.002388502571731806,-0.0025167685938999053
1783696426990389200,5.18338916015625,-0.015481062248349189,-0.004120623593963682,-0.01315086573511362
1783696427000353300,5.193353271484375,-0.034029110851883884,0.0014523177001625298,-0.0025710195317864416
1783696427010316300,5.20331640625,-0.029396774876117703,-0.004458331115730106,0.006477269722707569
1783696427020279300,5.213279296875,-0.01698328350484371,-0.0002444762803614139,0.0016851035427302122
1783696427030242600,5.22324267578125,-0.028951369196176528,0.0022005787841975688,-0.0030912805462256073
1783696427040205600,5.23320556640625,-0.03374678677916527,-0.0034621231526136397,0.001108691894263029
1783696427050168300,5.243168212890625,-0.023279168778657912,0.007500986747257411,-0.004875606679730117
1783696427060131300,5.25313134765625,-0.028518238475918768,-0.007492913038656115,-0.0027402020862326024
1783696427070094300,5.26309423828125,-0.03121171534359455,0.004615677101910114,-0.008714819516427814
1783696427080057300,5.273057373046875,-0.022380174112319944,0.00621054507791996,-0.001695917197689414
1783696427090021400,5.283021484375,-0.03300152136981487,0.0035489246532320975,0.01254942924324423
1783696427099984400,5.292984375,-0.0348041868776083,-0.0004154489330947399,-0.0050010596903041
1783696427109947400,5.302947509765625,-0.01969254246354103,-0.00023808307219296693,0.0003847980665042996
1783696427119910400,5.312910400390625,-0.0279155964076519,-0.004738645894452929,0.0006622998336330056
1783696427139214300,5.33221435546875,-0.017440964144468305,0.004847403498552739,0.003941869493573904
1783696427149177300,5.34217724609375,-0.03869008840024471,0.01348247230965644,-0.00605075140632689
1783696427159140400,5.352140380859375,-0.030465865412354468,0.009056362963095307,-0.005374897971376777
1783696427169103400,5.362103271484375,-0.014155366602540015,-0.0012674261199310422,0.01362235570438206
1783696427179066400,5.37206640625,-0.028967151287198064,-0.0051551177408546206,-0.007692782992310822
1783696427189029400,5.382029296875,-0.02433189270198345,-0.005925188797898591,-0.011150156904570758
1783696427198992100,5.3919921875,-0.026724925318360328,0.002138729061745107,0.006495024575106799
1783696427208955400,5.401955322265625,-0.035254853254556656,0.0006614230507984757,-0.0180606669453904
1783696427218919200,5.411919189453125,-0.012963526469469069,-0.006921396761015057,-0.013506437707133591
1783696427228882400,5.42188232421875,-0.025077742633223533,-0.004726151739060878,0.020651889014989138
1783696427238845400,5.431845458984375,-0.035551205852627756,-0.010360540896840393,-0.0014462167529389262
1783696427248808400,5.441808349609375,-0.013701777616143225,0.01246112990528345,-0.011450637688487768
1783696427258771500,5.451771484375,-0.029409049835801122,-0.0038935368398204445,0.009873962956294417
1783696427268734500,5.461734375,-0.026571196061372756,-0.0052217897688969965,-0.01020012617073953
1783696427278697200,5.471697265625,-0.01819558190405369,0.006252630653977393,-0.0032865108573809265
1783696427288660200,5.48166015625,-0.03645195408463478,0.0045129839124158026,0.010122567422501743
1783696427298623200,5.491623291015625,-0.023740356549620627,-0.004554338836111128,-0.0033585897129029033
1783696427308587300,5.501587158203125,-0.015066051706671715,0.0029560002613812685,-0.0017744623266160487
1783696427318550300,5.51155029296875,-0.038407764327526094,0.005106346695683896,-0.0017434826664626598
1783696427328513300,5.52151318359375,-0.03437105615735054,-0.009823876736871897,-0.012460070459358394
1783696427338476500,5.5314765625,-0.022843699970841406,0.00950673707909882,-0.004064326829463243
1783696427348439600,5.541439453125,-0.035109307304024694,0.015513503213226794,0.007291545247659087
1783696427358402300,5.55140234375,-0.027187282133102415,0.0016877338912338017,-0.0076899699807167045
1783696427368365300,5.561365234375,-0.024191022926568984,0.00859057208225131,-0.008512282681651414
1783696427378328300,5.571328369140625,-0.025227964758872984,-0.01974127697609365,0.008914324143901467
1783696427388291300,5.581291259765625,-0.033007951110601425,-0.009559088320843874,0.0013889701403677463
1783696427398255400,5.59125537109375,-0.03569441371560097,0.012899229061603545,-0.0028231311293318868
1783696427408218400,5.60121826171875,-0.034191607937216754,-0.005807553767599165,0.0004389394065365195
1783696427418181400,5.611181396484375,-0.038086861810088156,-0.014008578542992471,-0.00006075374390929937
1783696427428144400,5.621144287109375,-0.02835340330302715,0.0051570539696142075,-0.0021821298120543358
1783696427438107100,5.631107177734375,-0.027754268366098404,-0.004431918032839894,0.0018699951229616998
1783696427448692200,5.641692138671875,-0.017137597283720968,0.005731785117648542,-0.008380290332436561
1783696427458655200,5.6516552734375,-0.026564181798696518,0.006459953261725604,0.009436448321864008
1783696427468619300,5.661619384765625,-0.028359833043813704,-0.013281615975312888,0.0011922419918701053
1783696427478582300,5.671582275390625,-0.017740823873877525,0.013088321892917155,-0.002895757974125445
1783696427488545500,5.681545654296875,-0.038085108244419096,0.0016328253662213682,0.0021097586955875157
1783696427498508500,5.691508544921875,-0.04047755633890628,-0.008506620125845073,-0.0021774536369368433
1783696427508471300,5.70147119140625,-0.024165303963422775,-0.0004995104873552919,-0.008563428346998988
1783696427518434300,5.711434326171875,-0.04076806371808052,-0.009869396379031241,0.010514598947390914
1783696427528397300,5.721397216796875,-0.034337738409638406,-0.01071136362850666,-0.00933452231734991
1783696427538360300,5.7313603515625,-0.03524082472920417,0.003861534266360104,-0.00686889938879758
1783696427548324400,5.741324462890625,-0.03688391576111316,-0.00303425312936306,0.009670549338683486
1783696427558287400,5.751287353515625,-0.04122749792337417,0.006136603058874607,-0.0034346140911802646
1783696427568250400,5.76125048828125,-0.014599018716812132,0.010014321275055409,-0.007564151643961668
1783696427578213400,5.77121337890625,-0.03629354865252971,-0.009418510806374252,0.0011584493201225996
1783696427588176100,5.781176025390625,-0.037492987570166586,-0.003674231533333659,0.0010018705189228057
1783696427598139400,5.791139404296875,-0.027772388544678686,0.00039952071160078047,-0.006067264149710536
1783696427608102400,5.801102294921875,-0.03929039238095283,-0.004131437248922884,-0.007167626607045531
1783696427618065400,5.8110654296875,-0.026277181550860403,-0.00451101115103811,-0.008620017372444272
1783696427628028200,5.821028076171875,-0.03571428745985031,0.016416041543520984,-0.010150587940588592
1783696427637992200,5.8309921875,-0.024185762229561803,-0.008910634349472821,-0.00010715016890317201
1783696427647955200,5.840955078125,-0.034816461837291715,-0.015576412381604314,0.002536057816259563
1783696427657918200,5.850918212890625,-0.028682489126920698,0.005331351090595126,-0.0023246800879016516
1783696427667881000,5.860880859375,-0.04573474621474743,-0.004122961681522428,0.007570142993330955
1783696427677844000,5.870843994140625,-0.02254384024143219,0.0012219430103898048,-0.011451003014668821
1783696427687807000,5.880806884765625,-0.018650924456119537,-0.004993716634064912,-0.005581599524617195
1783696427697770200,5.890770263671875,-0.035408582511544225,0.004352605718933046,-0.004975231129303574
1783696427707733200,5.900733154296875,-0.03481178566217422,0.006235496856085956,-0.010526216319948434
1783696427717697000,5.910697021484375,-0.022986323311924933,0.004515906521864235,0.0033675036717206236
1783696427727660300,5.920660400390625,-0.038547465059161186,-0.002608392400108278,0.005805654071457684
1783696427737623300,5.930623291015625,-0.038697687184810634,0.0031098756488412618,-0.0018078896721825002
1783696427747586000,5.9405859375,-0.017736147698760033,0.00025455928295850755,0.005233224478363991
1783696427757549000,5.950549072265625,-0.03328618353009224,-0.0026740415148437022,-0.002617379424162209
1783696427767512000,5.960511962890625,-0.03149170132875442,-0.0036334245989099144,-0.007145633970946073
1783696427777475000,5.97047509765625,-0.028042437657713887,0.006022182898968458,0.012190751998685299
1783696427787438000,5.98043798828125,-0.04255728522241115,-0.0021329203754663468,-0.010047200631350279
1783696427797402000,5.990402099609375,-0.022809797701239583,-0.002428396190702915,-0.011585954505950211
1783696427807365000,6.000365234375,-0.02803717696070671,0.0055323535554111,0.007452252234704792
1783696427817328000,6.010328125,-0.046589317217469214,-0.00856046920493245,0.0006760360980406404
1783696427827291100,6.020291015625,-0.015172434690594672,-0.0007634951857849956,-0.009932342080026864
1783696427837254100,6.030254150390625,-0.026695699223875997,-0.006120528706908226,0.013712737401574849
1783696427847217200,6.040217041015625,-0.0314881941974163,0.002010353441722691,-0.015570822891034185
1783696427857180200,6.05018017578125,-0.014584990191459654,-0.0000516571220010519,-0.011269691631011665
1783696427867143200,6.06014306640625,-0.027155133429169653,-0.003442285940982401,-0.0057721536606550215
1783696427877107200,6.070107177734375,-0.031197102296352384,-0.01818776392377913,-0.017640322641469537
1783696427887070200,6.0800703125,-0.027751930278539658,0.012324863239750265,-0.0006187164202332496
1783696427897033200,6.090033203125,-0.03956453314721584,-0.0021023791067302225,0.003423179381713271
1783696427906996000,6.099995849609375,-0.031630233016610144,-0.011337934561632573,-0.015546053775958716
1783696427916959000,6.109958984375,-0.035815994268655775,0.006267572494782507,-0.000027582126669585704
1783696427926922000,6.119921875,-0.028331775993108748,-0.0011953837970271706,0.000922448607161641
1783696427936885000,6.129885009765625,-0.017857143729925154,-0.0021015753891319034,0.000042377837002277374
1783696427946848300,6.13984814453125,-0.02518587918281555,0.004430748989060521,0.011231697708182036
1783696427956812000,6.14981201171875,-0.03221533942818641,-0.0038130189495161173,-0.00022226444855332373
1783696427966775300,6.159775390625,-0.01980360162258148,-0.007954064277000725,0.0017366875994950532
1783696427976738300,6.16973828125,-0.03191898683011531,0.0036314883701503275,0.004397650437057018
1783696427986701000,6.179701171875,-0.038198505491018296,-0.01413008603081107,-0.0053830447452142835
1783696427996664000,6.1896640625,-0.02039572229683399,0.00936064313929528,-0.009913491249084472
1783696428006627000,6.199626953125,-0.030265958926081655,0.003623633857257664,-0.006272285202518105
1783696428016590000,6.209590087890625,-0.05106266323924064,-0.010373436911031602,-0.003597330372221768
1783696428026553000,6.219552978515625,-0.02263619470000267,0.003642813481763005,0.003336743207275867
1783696428036517000,6.22951708984375,-0.023377952978014944,-0.0006711407272145151,0.0028660204229876396
1783696428046480100,6.239480224609375,-0.03728372873365879,0.004483721285313368,-0.007791494126431643
1783696428056443100,6.249443115234375,-0.021276012262701986,-0.009307634310424327,-0.01006860874556005
1783696428066406000,6.259406005859375,-0.024714754539728163,0.0011241451917216182,0.0009787819042801856
1783696428076369200,6.269369140625,-0.027108371677994725,-0.002930683157034218,-0.00934033100362867
1783696428086332200,6.279332275390625,-0.026961072161793706,-0.0027061171535402535,-0.008128434463217853
1783696428096295200,6.289295166015625,-0.019468670579791066,0.003308393895626068,-0.00018021540511399507
1783696428106258200,6.299258056640625,-0.027102526459097862,-0.003682305241934955,-0.007512786782905459
1783696428116222200,6.30922216796875,-0.02037701759636402,0.016683569905906914,-0.008953706306219101
1783696428126185200,6.319185302734375,-0.036082536250352855,0.0037740386459976434,-0.005026705588214099
1783696428136148200,6.329148193359375,-0.03174363026320934,-0.009282499869167803,-0.0007842457128688692
1783696428146111000,6.339111083984375,-0.01648877798616886,0.004996675776131451,0.0034017347348853943
1783696428156074000,6.349073974609375,-0.021875147199630737,0.003393149569630623,0.016508140273764727
1783696428166037000,6.359037109375,-0.017986907589435577,-0.00867090730946511,0.0063276321189478036
1783696428176000000,6.369,-0.008411854514479636,0.0014238222580403089,0.00437828814946115
1783696428185964000,6.378964111328125,-0.02501344522535801,-0.0003095774058252573,-0.0002281827326864004
1783696428195927000,6.388927001953125,-0.02695931859612465,-0.0025849749919027087,-0.0022611863976344463
1783696428205890300,6.398890380859375,-0.010796119302511214,0.003345949427038431,0.0050687546316534274
1783696428215853300,6.408853271484375,-0.020367080724239348,0.004234678427688777,-0.00047430298086255786
1783696428225816000,6.418816162109375,-0.02096563113927841,-0.0018978329779580235,-0.02051891028508544
1783696428235779000,6.428779052734375,-0.029938042145967483,0.018792123025096953,0.004736892328783869
1783696428245742000,6.4387421875,-0.04190963496863842,-0.013275441962853074,0.004931720781140029
1783696428255705000,6.448705078125,-0.02635433844029903,-0.0032564079800620673,0.0007860358111560344
1783696428265669000,6.458669189453125,-0.025603812333941458,0.0002498831078410148,0.01414466254543513
1783696428275632000,6.468632080078125,-0.03726911568641662,-0.009151895759440958,0.005308591269515455
1783696428285595100,6.47859521484375,-0.026201778227090834,-0.00870385973099619,-0.014585574713349342
1783696428295558100,6.48855810546875,-0.0320329685986042,0.00166537592895329,-0.0020123627357184885
1783696428305521000,6.49852099609375,-0.03367430606484413,-0.008493760644271969,-0.0003685775840654969
1783696428315484200,6.508484130859375,-0.030685061120986935,-0.005671908156573772,0.0021555340660735964
1783696428325447200,6.518447265625,-0.028287936851382253,0.009567710018716752,-0.0005893441952764987
1783696428335410200,6.52841015625,-0.05057867911458015,0.0005810878235846757,-0.00610934972576797
1783696428345374200,6.538374267578125,-0.02544482237994671,0.009010806788317859,-0.010817819677665829
1783696428355337200,6.548337158203125,-0.027984569990634915,0.009702332716435193,0.014423442954197525
1783696428365300200,6.55830029296875,-0.019006898286938665,0.0009932488210499285,-0.0003314239114522934
1783696428375263200,6.56826318359375,-0.027092005065083503,0.01297952775619924,-0.0014204977897927164
1783696428385226000,6.57822607421875,-0.03007540479004383,-0.003242087193764746,0.01919905985817313
1783696428395189000,6.58818896484375,-0.05087386266887187,-0.0084676398223266,0.0016490823812782764
1783696428405152000,6.598152099609375,-0.016609774017333982,-0.0012862404182553292,0.006820274474099278
1783696428415116000,6.608115966796875,-0.03456219481527805,0.006508176317624748,0.0008430997606366872
1783696428425079000,6.6180791015625,-0.03321545638144016,0.0008585530580952763,-0.0039841742653399705
1783696428435042000,6.6280419921875,-0.014061843100190163,0.010284808779507874,0.004733531327918172
1783696428445005000,6.638005126953125,-0.038594811332225795,-0.012860285290703176,-0.008072758753225207
1783696428454968300,6.64796826171875,-0.018693594554066658,-0.0035732553768903015,-0.003726582775078714
1783696428464931000,6.65793115234375,-0.013004443001747131,0.014111892786994576,-0.0021614888828247786
1783696428474894000,6.66789404296875,-0.0313970087826252,0.0021772344412282108,0.012301409298926591
1783696428484857000,6.677857177734375,-0.028256957191228865,-0.003781199039146304,-0.015949081618897618
1783696428494821000,6.687821044921875,-0.025413842719793318,-0.010303842273540795,0.0009174436384811997
1783696428504784100,6.6977841796875,-0.04381634537279606,-0.006188662039674818,0.006423566774092614
1783696428514747100,6.7077470703125,-0.03200140441656112,-0.005420782939717173,-0.004501841463893651
1783696428524710100,6.717710205078125,-0.025262451550364492,-0.004233582449145614,-0.009968692035041749
1783696428534673200,6.727673095703125,-0.03228957370817661,0.002106507292576134,-0.003174246121942997
1783696428544636000,6.737635986328125,-0.023613515299558636,-0.0008571282859891653,-0.009113536510430276
1783696428554599200,6.74759912109375,-0.018816928672790525,-0.0010115516627207397,0.0010270049601793288
1783696428564562200,6.757562255859375,-0.042159810337424275,-0.01339680332019925,0.005911635196581482
1783696428574526000,6.76752587890625,-0.021812603357434273,0.0011592530377209187,-0.01126128912884742
1783696428584489200,6.7774892578125,-0.020306290447711945,-0.0012021423313766718,0.0001382028942927718
1783696428594452200,6.7874521484375,-0.03631225335299969,-0.0045109746184200045,0.0034454277461394667
1783696428604415200,6.797415283203125,-0.034520693761110305,0.006298880948498844,-0.017276896156556903
1783696428614378200,6.807378173828125,-0.03242226017713547,-0.0034684798281639814,0.0021252119930461047
1783696428624341000,6.817341064453125,-0.04229425037205219,-0.00591938011161983,-0.001358319273777306
1783696428634304800,6.8273046875,-0.03092939127087593,0.003380472751148045,-0.008796835244074463
1783696428644268800,6.837268798828125,-0.03002221329808235,0.007164959725923836,0.008734693260677159
1783696428654231600,6.8472314453125,-0.028372108003497123,-0.0033455475682392715,-0.003910195713676512
1783696428664194600,6.857194580078125,-0.013258710023760795,-0.006002930209226906,-0.011841171376034616
1783696428674157600,6.867157470703125,-0.02776654332578182,0.005207505515217781,0.0008464607615023851
1783696428684120600,6.87712060546875,-0.04212999972105026,-0.02198083606380969,-0.004348514065705239
1783696428694083600,6.88708349609375,-0.012056933018565178,-0.012246025849878788,-0.005898191193118691
1783696428704046800,6.897046875,-0.03120470108091831,-0.002272511509247124,0.0000035436639562249183
1783696428714009900,6.907009765625,-0.039437107375264166,-0.012538286794722079,-0.012289499665424227
1783696428723973600,6.9169736328125,-0.02043722335100174,-0.0004738645894452929,-0.015384689201787113
1783696428733936600,6.9269365234375,-0.03344984965920448,-0.008276756892725825,-0.00010736936461180447
1783696428743899600,6.936899658203125,-0.03764087160825729,-0.0034761151453480124,-0.011614669143781065
1783696428753862700,6.946862548828125,-0.016098901885747908,0.00463441833499819,0.0021168460234999653
1783696428763825700,6.95682568359375,-0.037192543318867684,-0.013147322071157395,-0.0028425299495458602
1783696428773788700,6.96678857421875,-0.028809914898872375,-0.0073064870884642,-0.00009345043711364268
1783696428783751700,6.976751708984375,-0.018928572353720665,0.0018195435773581264,-0.018296229266934097
1783696428793714700,6.986714599609375,-0.04017477400004864,-0.0028947350608184933,0.003994987920299172
1783696428803678700,6.9966787109375,-0.02476326985657215,-0.004808569325506687,-0.01951155987344682
1783696428813641500,7.006641357421875,-0.01892740330994129,0.006843107360415161,-0.0022829963706433773
1783696428823604500,7.0166044921875,-0.04076923276185989,-0.011533530198968946,0.00921367241665721
1783696428833567700,7.026567626953125,-0.033442250874638556,-0.008956446252577006,-0.008197882970236242
1783696428843530800,7.03653076171875,-0.01803250029683113,0.004515248934738337,0.005342931930534541
1783696428853493800,7.04649365234375,-0.03389116368591785,-0.007632796433381736,0.0038051644366234537
1783696428863456800,7.056456787109375,-0.024624153646826744,-0.015258870865032076,-0.007170403086021542
1783696428873420800,7.0664208984375,-0.03644552434384823,0.004333827953226864,0.001977693281136453
1783696428883383800,7.0763837890625,-0.03285772898495197,-0.009309899332746863,0.002661255098506808
1783696428893346600,7.0863466796875,-0.028669629645347593,-0.005891176930442452,-0.006093458036892116
1783696428903309600,7.0963095703125,-0.027466683596372603,0.005998254034109413,-0.005107077348046004
1783696428913272600,7.1062724609375,-0.030009353816509245,-0.013027641214244066,-0.010488879984244704
1783696428923235600,7.116235595703125,-0.027924364235997198,-0.005523293466120958,-0.014735139251872897
1783696428933198600,7.126198486328125,-0.025225626671314238,0.0034109774872660634,-0.003295863207615912
1783696428943161600,7.13616162109375,-0.037352702316641805,-0.00046666766367852683,-0.009471117776446044
1783696428953125600,7.146125732421875,-0.02254559380710125,0.00457534509152174,-0.008207673711888491
1783696428963088600,7.156088623046875,-0.026882161706686017,0.0014092092107981442,0.006712978174723684
1783696428973051600,7.1660517578125,-0.03526128299534321,-0.005717245135642588,-0.014931575139425694
1783696428983014700,7.1760146484375,-0.024192191970348356,0.004881963355280458,-0.0071490315044298765
1783696428992977700,7.185977783203125,-0.03196808666884899,0.007491926657967269,0.007465732770785689
1783696429002940700,7.195940673828125,-0.028375030612945554,0.00024875059667974706,0.0036129663327708838
1783696429012903700,7.205903564453125,-0.015511457386612892,0.01067497714087367,-0.012639737875200808
1783696429022866700,7.21586669921875,-0.03705401163101196,-0.009113865303993225,-0.006452244879305362
1783696429032830700,7.225830810546875,-0.03092413057386875,-0.008859634814597665,-0.005695435162633657
1783696429042793700,7.235793701171875,-0.012821487650275229,0.0032821634758263825,-0.00651906303782016
1783696429052756500,7.245756591796875,-0.039455812075734134,-0.005360321456752718,0.008959770720824599
1783696429062719500,7.255719482421875,-0.02988543517589569,0.01150682485513389,-0.0028190029434859753
1783696429072682500,7.2656826171875,-0.018812252497673033,0.012229403508640825,-0.00816938752811402
1783696429082645800,7.275645751953125,-0.03437339424490928,0.0019687062570825217,0.010414536106400191
1783696429092608800,7.28560888671875,-0.02958966709971428,-0.009526903084293008,-0.016270568658225237
1783696429102571800,7.29557177734375,-0.0176198278427124,0.008257504202984272,0.009677928927540779
1783696429112535800,7.305535888671875,-0.041996728730201716,-0.005164543156325817,0.011066168415546416
1783696429122498800,7.315498779296875,-0.040055531534552574,-0.0028992651054635644,0.0015749211665242908
1783696429132461600,7.325461669921875,-0.024941549032926558,-0.003695895375870168,0.0005807590300217271
1783696429142424600,7.335424560546875,-0.03451134141087532,-0.00840242909900844,0.0015066051706671714
1783696429152387600,7.3453876953125,-0.0250835878521204,-0.0047153746167197825,-0.011909633502364158
1783696429162350600,7.3553505859375,-0.016855273211002348,0.005642024474963546,0.004410765646956861
1783696429172313600,7.365313720703125,-0.04349018215835094,-0.0013395415080711245,-0.0028553528985008595
1783696429182277600,7.375277587890625,-0.022842530927062035,-0.011013817173801363,-0.02096325651910156
1783696429192240600,7.38524072265625,-0.019399112474918365,-0.007773739274032413,0.0003121712217107415
1783696429202203600,7.39520361328125,-0.03481412374973297,-0.002873948001116514,0.0005238046783953904
1783696429212166700,7.405166748046875,-0.014769699108600615,0.0008809475529938936,-0.021888262409530578
1783696429222129700,7.415129638671875,-0.03018295681774616,-0.011744031144492328,-0.007178878653421998
1783696429232092700,7.4250927734375,-0.03137771956026554,-0.01408241096418351,-0.009264598886296152
1783696429242055700,7.4350556640625,-0.025993103912472722,-0.012663959001004695,-0.004457892724312841
1783696429252018700,7.445018798828125,-0.03151917385756969,-0.005538417970016599,-0.0022726576397195455
1783696429261982700,7.454982666015625,-0.03660451429784298,-0.015083148971945046,-0.0002952931521460414
1783696429271945700,7.46494580078125,-0.013564999493956564,-0.0008909209577366709,-0.007007613739743828
1783696429281908700,7.47490869140625,-0.025979075387120246,0.0002234334923326969,0.0043034693475812675
1783696429291871500,7.48487158203125,-0.04857727616429328,-0.018281323958747087,-0.010803681554459035
1783696429301834500,7.49483447265625,-0.028678981995582577,0.006112272335216403,-0.012940730115771293
1783696429311797500,7.504797607421875,-0.04049743008315563,0.010723236729390918,-0.002221292778663337
1783696429321760800,7.5147607421875,-0.03645838382542133,-0.007683613305166363,-0.010561141502857207
1783696429331724500,7.524724609375,-0.026138065341114996,0.00010543313585221766,-0.005653970641084015
1783696429341687600,7.5346875,-0.0415489849627018,-0.008855579693987965,-0.006174122057668864
1783696429351650800,7.54465087890625,-0.022256839993596074,-0.005020860369317233,-0.010927965521253644
1783696429361613800,7.55461376953125,-0.023005028012394905,0.002577631935663521,-0.002049516408331692
1783696429371576600,7.56457666015625,-0.026740707409381864,-0.01118771243598312,0.00243815039973706
1783696429381539600,7.57453955078125,-0.02195464217662811,0.0017855317099019885,-0.004179294978640973
1783696429391502600,7.584502685546875,-0.034378070420026774,-0.009070026162266731,0.0014127528747543692
1783696429401466600,7.594466552734375,-0.027789339679479597,-0.000881605140119791,0.005672310015372932
1783696429411429600,7.6044296875,-0.025700258445739744,-0.010832286594435572,-0.003524228603392839
1783696429421392600,7.614392578125,-0.019566285735368727,-0.0022190277563408018,0.013792415041662752
1783696429431355600,7.624355712890625,-0.03302840937674045,-0.0017278467059135437,0.004307962859608233
1783696429441318700,7.634318603515625,-0.02495323947072029,0.0017652195742353797,-0.001741911763884127
1783696429451281700,7.64428173828125,-0.018071663263440133,0.005648527280986308,-0.007519654915109276
1783696429461244700,7.65424462890625,-0.036921325162053105,-0.0033445977201685306,0.00777870771009475
1783696429471207700,7.664207763671875,-0.026600422155857086,-0.0013487111952155827,-0.006079940968193113
1783696429481171700,7.674171630859375,-0.028992870250344274,0.0014684285847470164,0.008563428346998988
1783696429491134700,7.684134765625,-0.03483049036264419,-0.006111505150236189,-0.00641118221655488
1783696429501097700,7.69409765625,-0.017773557099699973,-0.0016535393606871365,-0.015757139243371784
1783696429511060700,7.704060791015625,-0.03018471038341522,-0.001442563491128385,-0.004518938729166984
1783696429521023700,7.714023681640625,-0.048286768785119054,-0.008602554780989884,-0.0049456031760200855
1783696429530986500,7.723986572265625,-0.0316758257240057,0.000007927578128874301,-0.008492628133110702
1783696429540949500,7.733949462890625,-0.026125790381431577,0.0019361556943506002,-0.008953998567163944
1783696429550913500,7.74391357421875,-0.042431028494238854,-0.015291056101582944,-0.01461169553529471
1783696429560876500,7.75387646484375,-0.02118658041357994,-0.007785904635861516,-0.014968326953239738
1783696429570839600,7.763839599609375,-0.029412556967139243,-0.00023947131168097256,0.00670998250003904
1783696429580802600,7.773802490234375,-0.04916530518531799,-0.013617679529264569,-0.011934731411002576
1783696429590765800,7.783765869140625,-0.010109306082129477,0.005805581006221473,-0.01071757417358458
1783696429600728800,7.793728759765625,-0.02761807476580143,-0.013539426661282777,-0.0004949439100921154
1783696429610691600,7.803691650390625,-0.03674655311703682,-0.013512830915302037,-0.01577792630307376
1783696429620655600,7.813655517578125,-0.01924012252092361,-0.00299388458635658,-0.0027499197626486417
1783696429630619100,7.823619140625,-0.035541853502392765,-0.0003907163506373763,-0.00003532704170793295
1783696429640582100,7.83358203125,-0.03015899142026901,-0.0222914363829419,-0.0006366904683411121
1783696429650545200,7.843545166015625,-0.013104980766773223,0.0006395034799352287,0.0022893530461937186
1783696429660508000,7.8535078125,-0.024482114827632902,-0.0059620136769488455,-0.0022297683460637927
1783696429670471000,7.863470947265625,-0.03766132987439632,0.0025410262523218987,-0.021080745418928563
1783696429680434000,7.873433837890625,-0.02703764452934265,0.0021780016262084242,-0.0033262583458796144
1783696429690397000,7.88339697265625,-0.039006314742565155,0.009945420757308601,0.015621237904019652
1783696429700361000,7.89336083984375,-0.043049452653527255,-0.004349536979012191,-0.00128854197319597
1783696429710324000,7.903323974609375,-0.016111761367321013,0.010107479451224208,-0.007428652163408696
1783696429720287000,7.913286865234375,-0.038107904598116873,-0.0019136516015976666,-0.0030954817973077296
1783696429730250200,7.923250244140625,-0.039159459477663035,-0.001953727883659303,-0.018522110444679857
1783696429740213000,7.933212890625,-0.03572071720063686,-0.00085310969799757,-0.01342164550051093
1783696429750176000,7.943176025390625,-0.033473230534791946,-0.01778648964650929,0.0004331307202577591
1783696429760139000,7.953138916015625,-0.019410802912712095,-0.006871493204683065,-0.007082870933040976
1783696429770103000,7.96310302734375,-0.02883446481823921,0.0004297331867739558,0.00857376707792282
1783696429780066000,7.973066162109375,-0.03900689926445484,-0.009705109195411205,-0.005632781722582876
1783696429790029000,7.983029052734375,-0.03152969525158405,0.018788652426376937,-0.011220153400860727
1783696429799992000,7.992991943359375,-0.027934885630011556,0.003718983990512788,0.011414762657508253
1783696429809955000,8.002955078125,-0.030924715095758438,-0.008876805145107209,0.0019353885093703865
1783696429819917800,8.012917724609375,-0.03212824566662311,0.002982851735688746,-0.015140797443315385
1783696429829880800,8.022880859375,-0.0455921228736639,0.00487980793081224,-0.0008145312532782554
1783696429839844900,8.032844970703126,-0.035415596774220466,-0.018449556665122508,-0.007307071610353886
1783696429849808000,8.042807861328125,-0.009225508984923362,-0.001377681561373174,-0.011120528951287269
1783696429859771100,8.052771240234375,-0.03091419370174408,0.006330920054577291,0.0026546426946297288
1783696429869734100,8.062734130859376,-0.043188568863272665,-0.006165646490268409,0.004174216944724321
1783696429879697200,8.072697265625,-0.019703063857555388,-0.0007537409767508506,-0.015548501461371779
1783696429889660200,8.08266015625,-0.027779987329244613,-0.00372804407980293,-0.005955255142599344
1783696429899623000,8.092622802734375,-0.03182604784965515,-0.01200922141931951,-0.014596936357580125
1783696429909587200,8.102587158203125,-0.01851180824637413,-0.007090104391425847,-0.009235372791811823
1783696429919550000,8.112550048828124,-0.0382592957675457,0.010069448995776473,0.01359060885924846
1783696429929513000,8.122512939453125,-0.028689503389596936,0.00007474573664367198,-0.009295322818122804
1783696429939476000,8.13247607421875,-0.013728081101179122,0.006768982678279281,0.0020464111357927322
1783696429949439000,8.14243896484375,-0.026745968106389045,-0.00934471491780132,0.009604498365148902
1783696429959402000,8.152402099609375,-0.033632805010676385,-0.006077968206815421,-0.017055471958220002
1783696429969365000,8.162364990234375,-0.02720072613656521,0.0012099237790331244,-0.0073612860156223175
1783696429979328000,8.172327880859376,-0.04051087408661842,-0.014411204527132212,0.0017896598957479
1783696429989292000,8.1822919921875,-0.037674189355969424,-0.020167101172730326,-0.009356149627268313
1783696429999255000,8.192255126953125,-0.018521160596609115,-0.00040616964809596536,-0.0009739230660721659
1783696430009218000,8.202218017578126,-0.03213876706063747,-0.008544650581292808,0.0034105390958487987
1783696430019181000,8.21218115234375,-0.02601122409105301,-0.003745689334347844,-0.012704400609247386
1783696430029144000,8.22214404296875,-0.024962591820955275,0.0010306582219898701,-0.005385090571828186
1783696430039107000,8.232107177734376,-0.03364157283902168,-0.005619593447446823,-0.005050707518309354
1783696430049070000,8.242070068359375,-0.023023148190975187,0.0008347703237086534,-0.001916793406754732
1783696430059034000,8.2520341796875,-0.031554829692840576,0.020899835894070566,-0.0030578897332772612
1783696430068997000,8.2619970703125,-0.03693827629685402,-0.00400017555207014,0.0021158596428111193
1783696430078959900,8.2719599609375,-0.018844985723495484,-0.006119432728365063,-0.012053097093664108
1783696430088923000,8.2819228515625,-0.029316110855340957,-0.004702040211111307,0.011595416454039513
1783696430098886000,8.291885986328126,-0.04263151950240135,-0.024569829643703994,-0.0028854557758197187
1783696430108849200,8.30184912109375,-0.03111585375368595,0.0010603227078914642,-0.015470577386952936
1783696430118812200,8.311812255859374,-0.03560439734458923,0.005157309697940945,-0.00011558920368552207
1783696430128776200,8.321776123046876,-0.0339630598783493,-0.01359378719702363,-0.006701178139075637
1783696430138739200,8.3317392578125,-0.02948445315957069,0.008951295153424143,-0.006682802232168615
1783696430148702200,8.3417021484375,-0.021999065840244292,0.004418145235814154,-0.003435965798050165
1783696430158665000,8.3516650390625,-0.03860825533568859,-0.014637122237496077,-0.0008422960430383682
1783696430168628000,8.3616279296875,-0.018708207601308823,0.002195025826245546,-0.011008300748467445
1783696430178591000,8.371591064453124,-0.023044190979003905,0.0010256532533094286,0.001279847210086882
1783696430188554000,8.381553955078125,-0.03935936596393585,-0.0067857876826077695,-0.00144124831687659
1783696430198517000,8.39151708984375,-0.016465981632471084,0.008419964755699038,-0.0008887290006503462
1783696430208481000,8.40148095703125,-0.02708557532429695,-0.010266177144274115,0.0040457682594656945
1783696430218444000,8.411444091796875,-0.03861117794513702,-0.007958046332374215,-0.004768821837007999
1783696430228407000,8.421406982421875,-0.028140637335181233,0.004990209502726793,0.0033711204009130597
1783696430238370000,8.4313701171875,-0.0405512060970068,-0.0109688455209136,0.00024670477006584403
1783696430248333000,8.4413330078125,-0.040707273441553116,-0.014042700008302926,-0.0005736717021092772
1783696430258296000,8.451296142578125,-0.03277648044228554,0.0037349852772429583,0.00920274916384369
1783696430268259000,8.461259033203126,-0.03965864117145538,-0.0010335442988201975,0.006890088307298719
1783696430278223000,8.47122314453125,-0.03501870641112327,-0.015057283878326415,-0.004818213936686516
1783696430288186000,8.48118603515625,-0.013460370075702666,0.0021074206080287693,-0.01085300058890134
1783696430298149000,8.491149169921876,-0.03186228820681572,-0.013131028523482382,0.0024891499346122144
1783696430308112100,8.501112060546875,-0.023486089527606963,-0.003942088689282536,-0.011259316367469727
1783696430318075000,8.511074951171874,-0.02169336089193821,-0.005852196626923978,0.0026876681813970205
1783696430328038000,8.521037841796876,-0.0354576823502779,-0.007053206447139382,0.015942103888839484
1783696430338001000,8.5310009765625,-0.03771101423501968,0.0023263240557163953,-0.008035203221812844
1783696430347965000,8.54096484375,-0.030676877814531326,-0.0038726401822641488,0.012066248836182058
1783696430357928000,8.550927978515626,-0.03591302490234375,-0.016379034001380206,-0.0025567718107253313
1783696430367891200,8.56089111328125,-0.027243396234512326,-0.010630663075111806,-0.006566957300156355
1783696430377854200,8.570854248046874,-0.031582302221655846,0.00029587767403572795,0.007034611344523728
1783696430387817200,8.580817138671875,-0.039214404535293575,-0.017314232492260634,0.009387933005020022
1783696430397780000,8.590780029296875,-0.023658523485064507,-0.009052015581540764,-0.0008145312532782554
1783696430407743000,8.600742919921874,-0.03293371683061123,0.0033828473713248966,0.024544768267683682
1783696430417706000,8.6107060546875,-0.038171032962203026,-0.008400712065957485,-0.0009409706445410847
1783696430427670000,8.620669921875,-0.03084580464065075,0.017334471562691033,-0.014204502973891794
1783696430437633000,8.630633056640624,-0.013635142120718955,0.00639262364655733,-0.004227298838831484
1783696430447596000,8.640595947265625,-0.04087035504877567,-0.0026590996740385887,-0.008026216197758913
1783696430457559000,8.65055908203125,-0.02636369079053402,0.008852803215011954,-0.00450257211625576
1783696430467522000,8.66052197265625,-0.028303134420514107,-0.0037192762514576313,0.01120283693987876
1783696430477485000,8.670485107421875,-0.027553777357935905,-0.007048712935112417,0.001039462582953274
1783696430487448000,8.680447998046875,-0.03533434823155403,-0.002479980247467756,0.0023184330102056262
1783696430497411800,8.690411865234376,-0.02365560087561607,-0.008467274496145545,0.005568813108280301
1783696430507375000,8.700375,-0.02066284880042076,0.0005429477702826261,-0.010779314298182725
1783696430517338000,8.710338134765625,-0.02022153477370739,-0.0009292802067473531,0.01004066129270941
1783696430527301000,8.720301025390626,-0.03473696686029434,-0.008653810044191777,0.004599858478270471
1783696430537264000,8.73026416015625,-0.0353401934504509,0.0021979849683120846,-0.0014971066899597645
1783696430547227100,8.74022705078125,-0.03220423351228237,0.004784129003994167,-0.008419489831663667
1783696430557190000,8.75018994140625,-0.05494330406486988,0.004327836603857577,0.009399294649250805
1783696430567154000,8.76015380859375,-0.034143677142262456,-0.0011952011339366436,-0.009027319531701505
1783696430577117000,8.770116943359374,-0.026666473129391667,0.001681011889502406,-0.007441986569017171
1783696430587080000,8.780079833984376,-0.02891512883901596,-0.0016200754825025797,-0.004816569968871772
1783696430597043000,8.79004296875,-0.01635141534209251,-0.0010655103396624327,-0.007333923084661364
1783696430607006000,8.800005859375,-0.015006430473923683,0.01032656556200236,-0.008657792099565267
1783696430616969200,8.80996923828125,-0.0453787723839283,0.0009024287324398755,0.01247881169244647
1783696430626932200,8.81993212890625,-0.03595218786895275,0.00820394738484174,-0.004680559031665325
1783696430636895200,8.829895263671874,-0.02397591887116432,0.018295462081953883,0.004405724145658314
1783696430646858200,8.839858154296875,-0.03894026376903057,-0.00921078633982688,-0.001299282562918961
1783696430656821000,8.849821044921875,-0.022487726140022278,0.007891082043386996,-0.009375584980100393
1783696430666784000,8.859783935546876,-0.02532791800200939,0.009601612288318575,0.011151764339767396
1783696430676747000,8.8697470703125,-0.04627835157215595,-0.010421513836458325,0.00726253834888339
1783696430686710000,8.8797099609375,-0.021741876208782193,0.003046966480463743,-0.015524353400804101
1783696430696673300,8.88967333984375,-0.029366964259743687,-0.0014697802916169166,0.004085479215346277
1783696430706637000,8.899636962890625,-0.042536826956272124,-0.01202259235754609,0.015417787753790616
1783696430716600000,8.90960009765625,-0.020094109001755713,-0.0009441489823162555,-0.01652867160513997
1783696430726563300,8.919563232421876,-0.031160861939191816,-0.0009694295540452003,-0.0023071444312110544
1783696430736526000,8.929526123046875,-0.02981003185212612,-0.004269092153944075,0.0020715821096673605
1783696430746489000,8.939489013671874,-0.014995324558019637,-0.005309029660932719,-0.0006091448742896318
1783696430756452000,8.9494521484375,-0.036537878802418704,-0.009104403355903923,0.00022076661121100185
1783696430766415000,8.9594150390625,-0.04356909261345863,-0.015226064573973417,-0.005984006313048303
1783696430776379100,8.969379150390624,-0.020976737055182455,-0.004528071883693337,-0.009249766643345356
1783696430786342100,8.979342041015625,-0.03757482063472271,-0.004173120966181159,0.0071557169735431666
1783696430796305200,8.98930517578125,-0.03637421267330646,-0.001020100295357406,-0.007020071362517774
1783696430806268200,8.99926806640625,-0.018268062618374825,0.00773833916708827,0.0022064240030944347
1783696430816231000,9.00923095703125,-0.0374181687682867,-0.0037556992717087266,0.006247735283151269
1783696430826194000,9.01919384765625,-0.0266477684289217,0.01399513453952968,-0.011724047802388667
1783696430836157200,9.0291572265625,-0.01931435680091381,0.006185483701899647,-0.0014012085674330592
1783696430846121000,9.039120849609375,-0.03008008096516132,-0.00880099996253848,-0.005783296109177172
1783696430856084200,9.049084228515625,-0.03426934934854507,0.0028287206199020145,0.006822429898567497
1783696430866047200,9.059047119140626,-0.02334405070841312,0.010705445344373583,-0.008273103630915284
1783696430876010200,9.06901025390625,-0.024389760369062423,-0.014989771600067614,0.009432502799108624
1783696430885973200,9.07897314453125,-0.031126375147700308,-0.016812603113055227,-0.01049527319241315
1783696430895936000,9.08893603515625,-0.03561199612915516,0.005677643777616322,-0.01001534418836236
1783696430905899000,9.09889892578125,-0.03514963931441307,0.010610606667771935,-0.0021062515642493963
1783696430915863000,9.108863037109375,-0.019886603730916975,0.00568633854072541,-0.01170881370063871
1783696430925826000,9.118825927734376,-0.036495208704471586,0.015679909288696944,0.003258709535002708
1783696430935789000,9.1287890625,-0.03604512684941292,-0.00020012568198144435,-0.010059256395325063
1783696430945752000,9.138751953125,-0.021088380736112595,0.002838694024644792,-0.015464512972347437
1783696430955715000,9.148715087890626,-0.025129180559515952,0.0077758946985006325,0.002955452272109687
1783696430965678300,9.15867822265625,-0.02991758387982845,-0.004255063628591597,-0.004487593742832541
1783696430975641000,9.16864111328125,-0.02153904711306095,-0.019698533812910316,-0.01563201502636075
1783696430985605000,9.178605224609376,-0.02452186231613159,0.0008273542022332549,-0.002584353937394917
1783696430995568000,9.188568115234375,-0.045611412096023554,-0.0054143897315487265,-0.0036115780932828782
1783696431005531100,9.19853125,-0.026762334719300267,-0.008544979374855757,-0.020987806438468395
1783696431015494100,9.208494140625,-0.028102643412351608,-0.0012700930010527372,0.003601239362359047
1783696431025457200,9.21845703125,-0.053090369674563404,-0.006670673402957618,-0.012148191498592495
1783696431035420200,9.228420166015624,-0.02122282077074051,-0.006393573494628072,-0.00015098931062966584
1783696431045383200,9.238383056640625,-0.027349779218435285,0.0017474647218361497,0.0022816081311553714
1783696431055347200,9.24834716796875,-0.03572597789764404,-0.004973441031016409,-0.004262735478393734
1783696431065310000,9.25831005859375,-0.015224457138776779,-0.00046162616237998004,0.0001980433227494359
1783696431075273000,9.26827294921875,-0.023754969596862793,0.0014957915157079696,0.006649886343255639
1783696431085236000,9.278236083984375,-0.042166824600100516,-0.001987885881587863,-0.007219758653081953
1783696431095199200,9.28819921875,-0.025858079355955122,0.009206402425654231,-0.005485263010673224
1783696431105162200,9.298162353515625,-0.03917757965624332,0.016279007693007587,0.003188676506094634
1783696431115125200,9.308125244140625,-0.03259586317837238,0.001911386579275131,-0.018438596879690884
1783696431125088300,9.318088134765626,-0.02601706930994987,-0.009886530176922679,-0.007999620451778173
1783696431138166300,9.331166259765626,-0.029907062485814092,-0.004003134694136679,-0.0007469824424013495
1783696431148129300,9.34112939453125,-0.026778116810321807,-0.012421966938674448,-0.011433467357978224
1783696431158092000,9.351092041015624,-0.028870120653510092,-0.0030380890542641282,-0.003382993501797318
1783696431168055000,9.361054931640625,-0.054305006161332124,-0.00381236136239022,0.006289017141610383
1783696431178018000,9.37101806640625,-0.025884967362880706,0.00028404110576957464,-0.008150354034081101
1783696431187981000,9.38098095703125,-0.03396656700968742,0.013036555173061787,0.009057714669965206
1783696431197944000,9.390944091796875,-0.038004444223642346,-0.00687193159610033,-0.0020752353714779018
1783696431207908000,9.400908203125,-0.02963058363199234,-0.0013538257617503404,-0.004290208007209003
1783696431217871000,9.41087109375,-0.021999650362133978,-0.018156674665771425,0.016283647335506975
1783696431227834000,9.420834228515625,-0.03083177611529827,-0.006097403559647501,-0.010515146936662495
1783696431237797000,9.430797119140625,-0.014077040669322013,0.004775470773503184,-0.01240994770731777
1783696431247760100,9.440760009765626,-0.025595629027485845,-0.01230794863756746,0.0035346769321709867
1783696431257723100,9.45072314453125,-0.024849779096245764,-0.0107264881324023,-0.006986680549569428
1783696431267686100,9.46068603515625,-0.010035071802139282,0.00933317061048001,-0.008806589453108608
1783696431277650200,9.470650146484376,-0.03277472687661648,-0.0053437721807509655,-0.0063990168547257776
1783696431287613200,9.48061328125,-0.03426934934854507,-0.0192292358007282,0.0020521102242171763
1783696431297576200,9.490576171875,-0.027083237236738205,0.004025602254271507,0.0011577917329967022
1783696431307539200,9.500539306640626,-0.030219781696796417,-0.001713050995580852,0.006759484197571873
1783696431317502000,9.510501953125,-0.02917699464559555,-0.004605192240513861,0.002416851883381605
1783696431327465000,9.52046484375,-0.019301497319340704,0.010789178105071186,0.003949285615049303
1783696431337428000,9.530427978515625,-0.030668694508075713,-0.005630991624295712,0.004195917319878935
1783696431347392000,9.54039208984375,-0.02887596587240696,-0.012479067420773208,0.0005003872701898217
1783696431357355000,9.55035498046875,-0.02782324194908142,0.0013566387733444571,-0.008373276069760321
1783696431367318300,9.560318359375,-0.03768587979376316,-0.014343509585782885,-0.0027304478771984575
1783696431377281300,9.57028125,-0.024668577310442922,-0.008277779806032776,-0.013094788166321814
1783696431387244300,9.580244384765624,-0.023917466682195663,-0.006734130560606718,0.0016191986996680497
1783696431397207000,9.59020703125,-0.034089316606521605,-0.004327617408148944,0.0073436042284592985
1783696431407170000,9.600170166015625,-0.024063012632727622,-0.013499971433728932,-0.006823014420457184
1783696431417134000,9.610134033203124,-0.026306407645344733,-0.01054941453244537,0.0033601240828633307
1783696431427097000,9.62009716796875,-0.03423077090382576,-0.0067959802830591795,-0.0059525882614776485
1783696431437060000,9.63006005859375,-0.024810616129636764,-0.009176555276662111,-0.01879069825299084
1783696431447023000,9.640023193359376,-0.029745149922370907,-0.004941474990174174,0.0032317119302228093
1783696431457609200,9.650609130859374,-0.0442588284432888,-0.006517893994040787,-0.004662329255230724
1783696431467572200,9.660572265625,-0.020924130085110664,-0.005997596446983516,0.007302760761417448
1783696431477535000,9.670534912109375,-0.014787234765291214,0.00657718643322587,-0.002170512439496815
1783696431487498000,9.680498046875,-0.03319499811530113,-0.011876827211305499,-0.006877411488816142
1783696431497461000,9.6904609375,-0.02572013218998909,0.005701389979384839,-0.011710822994634508
1783696431507424000,9.700424072265625,-0.030949265015125273,0.010743987256474793,-0.0040955256853252645
1783696431517387300,9.71038720703125,-0.03170212920904159,-0.008614354816637932,-0.006487754584103823
1783696431527350300,9.720350341796875,-0.026769933503866195,-0.0005007525963708758,-0.013992394593171774
1783696431537314300,9.730314208984375,-0.038137130692601204,-0.0058874506033957,0.007709076539985835
1783696431547277300,9.74027734375,-0.028563246661424634,-0.014347674304246901,-0.0006844751328229904
1783696431557240000,9.750239990234375,-0.030960955452919006,0.011709836613945663,0.00014408464580774306
1783696431567203000,9.760203125,-0.03768763335943222,0.004027611548267304,0.011536672004126012
1783696431577166000,9.770166015625,-0.04098316777348518,-0.006826923410594463,0.0010658756658434867
1783696431587129000,9.780129150390625,-0.026626141119003296,0.01073405038435012,-0.0037143443480134007
1783696431597092000,9.790092041015624,-0.028415947145223615,-0.004863587448373436,-0.009518610179983079
1783696431607056100,9.80005615234375,-0.03634615562260151,-0.01190404401179403,-0.005191102369688451
1783696431617019100,9.81001904296875,-0.013595979154109953,-0.004720196922309697,-0.0114198041588068
1783696431626982100,9.819982177734374,-0.03468962058722973,-0.01100077502913773,0.0042909021269530055
1783696431636945200,9.829945068359375,-0.030806641674041745,-0.007784625994227826,-0.015496844339370727
1783696431646908200,9.839908203125,-0.027964111724495887,0.009693528355471789,-0.002572919227927923
1783696431656871400,9.849871337890624,-0.048014381584525104,-0.007611863243207335,0.01333692635912448
1783696431666835200,9.859835205078125,-0.025877953100204465,-0.003919109672494233,-0.00911214827094227
1783696431676798500,9.869798583984375,-0.024233108502626416,-0.00497040882371366,-0.008783975762501358
1783696431686761500,9.879761474609374,-0.051015901488065715,-0.009118504946492611,0.006515555906482041
1783696431696724500,9.889724365234375,-0.03501052310466766,-0.013008315459266305,-0.01097808827329427
1783696431706687500,9.8996875,-0.03231529267132282,0.00329969913251698,0.003938983416743576
1783696431716650200,9.909650146484376,-0.028572014489769933,-0.00486968839559704,0.004699592525698244
1783696431726613200,9.91961328125,-0.017953005319833754,-0.00022412761207669973,-0.010282580289803445
1783696431736577300,9.929577392578125,-0.035164252361655234,0.0017218188239261508,0.003867489083111286
1783696431746540300,9.939540283203126,-0.04892974286377429,-0.011473726303130387,-0.0034690278174355623
1783696431756503300,9.94950341796875,-0.01586275504231453,0.01468885242473334,-0.015020276336185634
1783696431766466300,9.95946630859375,-0.015561726269125938,-0.001024886068329215,-0.0002608063606545329
1783696431776429300,9.96942919921875,-0.0345645329028368,-0.00596427869927138,-0.0071655077151954166
1783696431786392600,9.979392578125,-0.025140870997309682,-0.0003265650732442736,-0.005213825658150017
1783696431796355300,9.989355224609374,-0.028576690664887428,0.0010295987760648132,0.00030135756675153967
1783696431806319400,9.9993193359375,-0.028427053061127663,-0.012517682398110628,-0.005036934721283614
1783696431816282400,10.009282470703125,-0.012267360898852348,-0.0019185835050418972,-0.008256371691823005
1783696431826245400,10.019245361328124,-0.019147768062353132,0.00982409593258053,0.011063647664897144
1783696431836208400,10.02920849609375,-0.036653614136576654,-0.005121982656233012,-0.0027263927565887567
1783696431846171400,10.03917138671875,-0.018853169029951093,0.007842785922251641,-0.007123385606519877
1783696431856134400,10.049134521484374,-0.03739887954592704,0.005991532032378018,0.0066025766028091305
1783696431866097400,10.059097412109375,-0.08200199138224125,0.006931150970049202,-0.019908815562725064
1783696431876061400,10.0690615234375,-0.10118483075797557,0.17027937323953957,-0.14716931395009158
1783696431886024400,10.0790244140625,0.27817455182373524,0.04685688211247325,0.07689016479384153
1783696431895987200,10.0889873046875,0.07357084764540195,-0.23362609278410673,0.09325283218231052
1783696431905950200,10.0989501953125,-0.23463234721720216,-0.022751674305833875,0.012649090225435793
1783696431915913200,10.108913330078124,-0.32915479747653004,-0.012836356425844133,-0.04172744680214673
1783696431925876500,10.11887646484375,0.04068096995651722,-0.01675780418589711,0.014621120950765907
1783696431935840300,10.12884033203125,0.2374626022070646,-0.0393475293956697,0.06503569554481654
1783696431945803500,10.138803466796874,0.06521569175422191,0.01443710615336895,0.046563196395523844
1783696431955766500,10.1487666015625,-0.11622048732638358,0.049297955121658736,-0.00952259223535657
1783696431965729500,10.1587294921875,-0.19327040925920008,-0.01242467035241425,-0.0700951708914712
