time,seconds_elapsed,z,y,x
1783696358477082400,0.069082275390625,-0.2197217783331871,-0.05485471246596425,-0.03432904364652931
1783696358487045600,0.079045654296875,-0.2178355261951685,0.017742906233109534,-0.031111031448096037
1783696358497009400,0.089009521484375,0.030943419796228406,0.020161621280014513,-0.0042885640393942595
1783696358506972700,0.09897265625,0.19011691366434097,0.016887494980171322,0.044161030624620616
1783696358516935700,0.108935791015625,0.0018085107266902923,-0.009402326856553555,0.01604253205601126
1783696358526898400,0.1188984375,-0.19661679707765578,0.005197057186439633,-0.047947892219573254
1783696358536862500,0.128862548828125,-0.13612345767021178,0.01082633177768439,-0.014366963526606559
1783696358546825500,0.138825439453125,0.055142626029253,-0.020073541137762368,0.022551183297671376
1783696358556788000,0.1487880859375,0.10391863963603973,0.01745839020330459,-0.000820084211230278
1783696358566751000,0.1587509765625,-0.0725268915504217,0.00023307810351252554,-0.0024906477719545362
1783696358576715000,0.168715087890625,-0.1343453420817852,0.007545994932763278,0.012362455303780735
1783696358586678000,0.178677978515625,-0.04036591265797615,-0.02016509187873453,-0.008993490327335894
1783696358596641000,0.18864111328125,0.037628012126684186,-0.0072996920214965936,-0.009972893286123871
1783696358606604000,0.19860400390625,-0.00651508098244667,0.004011427598446607,0.004273877926915884
1783696358616568000,0.208568115234375,-0.030190555602312086,0.019141155658476055,-0.003852583774924278
1783696358626531000,0.218531005859375,-0.06491349393725394,-0.0005312938651069999,0.008530366327613592
1783696358636493800,0.228493896484375,-0.059517772373557085,-0.013664550878293812,0.0026425503980368375
1783696358646456800,0.238456787109375,-0.007296002227067947,0.020706614876911042,0.0017173618445172904
1783696358656420900,0.2484208984375,0.020358897417783735,-0.012728512137196958,0.0071015756335109466
1783696358666384000,0.2583837890625,-0.03369593337476253,-0.017456453974545,-0.015244696209207176
1783696358676347100,0.26834716796875,-0.04973287594020366,-0.008262618769519031,-0.020925152998417615
1783696358686310100,0.27831005859375,-0.04450140502750873,-0.02437401481065899,0.0041685178562998765
1783696358696274000,0.28827392578125,-0.011896189498901366,0.012705058196373284,-0.0019771087592467666
1783696358706237200,0.2982373046875,0.00019756839871406555,-0.0007769026566296815,-0.0035166663514450192
1783696358716200200,0.3082001953125,-0.03753858027756214,0.0014147256361320614,-0.010147336537577212
1783696358726164200,0.318164306640625,-0.03232406049966812,-0.0047361251438036555,-0.019751177315600214
1783696358736127200,0.328127197265625,-0.04265490037798881,0.006765183285996317,-0.027170038737356662
1783696358746090000,0.338090087890625,-0.0477443324714899,-0.006285436945036053,-0.02184431366994977
1783696358756053000,0.348052978515625,-0.035626609176397324,-0.007881583562679588,-0.014639716053381562
1783696358766016000,0.35801611328125,-0.03022445787191391,0.0023409005703404545,-0.010993541570752859
1783696358775980000,0.36797998046875,-0.04665887532234192,-0.0008166866777464747,-0.002499232937209308
1783696358785943000,0.377943115234375,-0.044831659895181654,0.012307254517823458,-0.01595470764208585
1783696358795906000,0.387906005859375,-0.028342881909012792,0.020790822561644016,0.004919847680255771
1783696358805870000,0.3978701171875,-0.0232318225055933,0.015156871795281766,0.01626267761271447
1783696358815833000,0.4078330078125,-0.027259178325533866,0.021891148486360906,-0.0052543403316289185
1783696358825796000,0.417796142578125,-0.030384032347798344,0.016112053628265857,-0.008877828058414161
1783696358835758800,0.4277587890625,-0.04323299252688884,0.007595496630296111,0.00703300390932709
1783696358845723000,0.437722900390625,-0.026613866159319877,0.0087775094890967,-0.003497157933376729
1783696358855686000,0.447685791015625,-0.027644378250837324,-0.006651530311070382,-0.006597754297219216
1783696358865649000,0.45764892578125,-0.029718846437335012,0.009021364714950323,-0.000958214040286839
1783696358875612000,0.46761181640625,-0.025963293296098706,0.0035629531785845753,-0.02219002183508128
1783696358885576000,0.477575927734375,-0.03506780624985695,0.005089103299938142,-0.00993150182981044
1783696358895539000,0.4875390625,-0.02696224120557308,-0.013794241672568023,-0.007283288875967264
1783696358905502200,0.497502197265625,-0.004796586626768112,-0.006543320696242153,0.004446494547463953
1783696358915465200,0.50746533203125,-0.027977555727958677,0.015701974990032612,0.018699512838199733
1783696358925429000,0.517428955078125,-0.03366436919271946,-0.0012364829923957586,-0.006534333672188222
1783696358935392000,0.52739208984375,-0.02542904028892517,0.0005500350981950759,-0.007710245583765208
1783696358945355000,0.53735498046875,-0.03230009510219097,-0.013189224984124302,-0.010755020107142627
1783696358955318000,0.547318115234375,-0.04276595953702926,-0.022844978612475097,-0.014637451031059026
1783696358965282000,0.557281982421875,-0.03153670951426029,-0.0012339257091283798,-0.007079071540758013
1783696358975245000,0.5672451171875,-0.034060675033926964,-0.02117923735734075,0.0006709580641239882
1783696358985208000,0.5772080078125,-0.017583002963662147,-0.0165761274760589,-0.0057329176288098095
1783696358995171000,0.587171142578125,-0.022350948017835617,-0.008509908061474562,-0.007543547247350215
1783696359005135000,0.597135009765625,-0.036541970455646514,-0.00242485252674669,-0.004505019801668822
1783696359015098000,0.60709814453125,-0.026346155133843422,0.006642104895599186,-0.003923566651903093
1783696359025061000,0.61706103515625,-0.025579262414574623,0.015843210091628132,-0.0026738588517531752
1783696359035024000,0.62702392578125,-0.03693243107795715,0.002003996766172349,0.012640578125417232
1783696359044988000,0.63698779296875,-0.031389409998059274,0.0051884720211848616,-0.012245222132280468
1783696359054951000,0.646950927734375,-0.03197802354097366,0.013662943443097174,-0.0055897462984547015
1783696359064914000,0.656913818359375,-0.025983167040348053,-0.0035017245106399057,-0.00661404784489423
1783696359074877000,0.666876953125,-0.02163490870296955,0.007044036759994924,-0.009901398952491581
1783696359084841000,0.676841064453125,-0.02894727754294872,0.007154986321181059,0.02222765043172985
1783696359094804000,0.686803955078125,-0.034334231278300285,-0.012688472387753426,0.010935746968910098
1783696359104767000,0.69676708984375,-0.01518997034728527,-0.029744309672154485,-0.00226060187574476
1783696359114730200,0.706730224609375,-0.0109971948325634,0.0036018238842487334,-0.021265673531778155
1783696359124694000,0.716694091796875,-0.062464931741356845,-0.0063519263099879025,-0.004774374794960022
1783696359134657000,0.726656982421875,-0.035094109734892846,-0.00245415168646723,-0.015239289381727575
1783696359144620000,0.7366201171875,-0.02551613405048847,-0.02161507149133831,-0.007920856127142906
1783696359154583000,0.7465830078125,-0.029997078856825826,-0.01274831281621009,-0.011164989147521554
1783696359164547000,0.756547119140625,-0.03612637539207935,0.012155424956977367,-0.008660678176395594
1783696359174510000,0.766510009765625,-0.05512275228500366,0.0038977380909025667,0.006700630149804055
1783696359184473000,0.77647314453125,-0.01950081928372383,-0.0038511224702000614,-0.014775434729643166
1783696359194436000,0.78643603515625,-0.025772154638171195,0.011300086769275366,-0.0061377355700358745
1783696359204400000,0.796400146484375,-0.03294599179029464,0.014802249671332536,0.008388546704128384
1783696359214363100,0.806363037109375,-0.023224223721027372,-0.00783602738790214,0.0034469255834817885
1783696359224326100,0.816326171875,-0.032059272083640095,-0.0022870880238711833,-0.013444551452063023
1783696359234289000,0.826288818359375,-0.0354968453168869,0.0035109672630205748,0.0043046383913606405
1783696359244253000,0.8362529296875,-0.03310790435373783,-0.0012490136804059148,0.0032150530563667414
1783696359254216000,0.8462158203125,-0.021442016479372977,0.01341590987946838,0.0006956906465813517
1783696359264179000,0.856178955078125,-0.030112229669094083,-0.0029280528085306283,-0.005498780079372227
1783696359274142000,0.866141845703125,-0.03849193547964096,0.0006407455889508128,0.005459434449672698
1783696359284106000,0.87610595703125,-0.026377719315886495,0.021330445863679052,-0.003994293800555169
1783696359294069000,0.886069091796875,-0.026375965750217435,-0.001301511052623391,-0.00943126069009304
1783696359304032000,0.896031982421875,-0.031021161207556724,-0.005279219044558704,-0.020856544741615652
1783696359313995000,0.9059951171875,-0.033416531911492346,-0.005769048388116062,-0.006845445447973907
1783696359323959000,0.915958984375,-0.05585515821278095,-0.0037943142490461466,-0.01158796379994601
1783696359333921800,0.925921875,-0.02382686578929424,-0.00040865386612713337,-0.0125809568926692
1783696359343885000,0.935885009765625,-0.02397591887116432,0.006558883591555058,0.007392594469338655
1783696359353848000,0.94584814453125,-0.03504559441804886,-0.003348250981979072,-0.0040425899216905235
1783696359363812000,0.95581201171875,-0.01874094082713127,0.016082498740218578,-0.004640738477930426
1783696359373775000,0.965775146484375,-0.02442950785756111,0.014241181722469628,-0.002258482983894646
1783696359383738000,0.975738037109375,-0.03715162678658962,-0.006076214641146362,0.009907353769242762
1783696359393701000,0.985701171875,-0.03566401857733726,-0.0030420345770195124,-0.009336604676581919
1783696359403665200,0.9956650390625,-0.020699089157581327,-0.013440825125016272,-0.008084449191018939
1783696359413628200,1.005628173828125,-0.03132160545885563,-0.00042830841466784473,-0.019940745070949197
1783696359423591200,1.015591064453125,-0.0383639251857996,0.00018993308153003453,-0.006532580106519162
1783696359433554000,1.025553955078125,-0.028194997870922087,-0.0018244024155661463,-0.007197071897238493
1783696359443518000,1.03551806640625,-0.03311959479153156,-0.00417860085889697,-0.002796023926697671
1783696359453481000,1.04548095703125,-0.0272837282449007,0.014516089673712849,-0.003838299521245062
1783696359463444000,1.05544384765625,-0.031772271835803986,0.008718217049911619,0.014796623648144304
1783696359473407000,1.065406982421875,-0.03970832553207874,0.010005772642418741,-0.008811484823934733
1783696359483371000,1.07537109375,-0.0254886615216732,-0.0010339096250012517,-0.006380750545673072
1783696359493334000,1.085333984375,-0.027276713982224463,0.009030388271622359,0.01583583050277084
1783696359503297000,1.095297119140625,-0.04403846369087696,-0.005295585657469928,-0.015110877229087053
1783696359513260000,1.105260009765625,-0.013513561567664145,0.00933324367571622,-0.01248900429289788
1783696359523224000,1.11522412109375,-0.03580255026519298,-0.005541961633972824,-0.005883541613258421
1783696359533186800,1.125186767578125,-0.026229250755906104,-0.005815371747873723,-0.011944449087418615
1783696359543149800,1.13514990234375,-0.019942717832326887,0.009931647960282862,-0.007806289836764335
1783696359553113000,1.145113037109375,-0.036243279770016665,0.01229161855727434,0.001833791298419237
1783696359563076600,1.15507666015625,-0.024276363122463226,0.006825827432051301,0.00469787549264729
1783696359573039900,1.165039794921875,-0.014109189373254775,0.012376081970334052,-0.010338438662886619
1783696359583003000,1.1750029296875,-0.028925650233030318,0.004346395173855126,0.005666391731239855
1783696359592966000,1.1849658203125,-0.042996261161565776,-0.0052355260333046315,-0.017430369685217738
1783696359602928600,1.1949287109375,-0.020855741024017334,-0.003289214271120727,-0.00409063031449914
1783696359612892700,1.204892578125,-0.03791793498396873,-0.010389328599907457,-0.00021367928329855203
1783696359622855700,1.214855712890625,-0.03612579087018966,-0.0025740152064710853,-0.010329049780033529
1783696359632818700,1.224818603515625,-0.02564472886621952,0.008094751389324665,-0.004851604749634862
1783696359642781700,1.23478173828125,-0.04614566510319709,-0.008294840538688003,-0.003581804009526968
1783696359652745700,1.244745849609375,-0.027144612035155294,-0.0006630304859951138,-0.01785462297927588
1783696359662708700,1.254708740234375,-0.008431143736839295,0.01861212681569159,0.007566270535811781
1783696359672671700,1.264671630859375,-0.024739304459095,-0.007680909891426562,0.0013098404895514248
1783696359682634800,1.274634765625,-0.022953590086102486,0.007424998901598155,-0.0171499453086406
1783696359692598800,1.284598876953125,-0.028186814564466475,-0.001993950296193361,-0.00965728799831122
1783696359702561500,1.2945615234375,-0.032519875332713125,-0.00742456051018089,-0.010831336746364831
1783696359712524500,1.304524658203125,-0.009478606963157653,-0.002074102860316634,-0.00994257121309638
1783696359722487800,1.31448779296875,-0.015613748717308043,0.0066053530817851425,-0.0009683701081201433
1783696359732451600,1.32445166015625,-0.03685936584174633,-0.0046059228928759695,-0.0001739683274179697
1783696359742414600,1.33441455078125,-0.03267477363348007,0.0062570145681500435,0.00031520342901349065
1783696359752377900,1.3443779296875,-0.03955576531887054,0.002489844054356217,-0.0003198065388947725
1783696359762340900,1.3543408203125,-0.03791267428696155,-0.003978803970478475,-0.014306173250079154
1783696359772305000,1.364304931640625,-0.025054946279525755,0.005450155164673924,-0.02615786602012813
1783696359782268000,1.374267822265625,-0.031193595165014264,0.011322773525118826,-0.001722914802469313
1783696359792231000,1.38423095703125,-0.025506781700253486,-0.009913454716466368,-0.0011526041012257337
1783696359802193700,1.394193603515625,-0.024315526089072226,0.007442169232107699,-0.006965674294158816
1783696359812157700,1.40415771484375,-0.041673488125205035,0.005851429441943765,-0.007342690913006663
1783696359822120700,1.41412060546875,-0.04152560408711433,-0.008628712135553359,-0.0013557619905099271
1783696359832083700,1.424083740234375,-0.009516016364097594,-0.01088595301043242,-0.0017507161248475312
1783696359842046700,1.434046630859375,-0.04168634760677814,0.008849040355347096,-0.0034315818838775154
1783696359852009700,1.444009765625,-0.039293314990401264,-0.0022663009641692043,-0.013109912670217454
1783696359861973800,1.453973876953125,-0.026575872236490248,-0.005896145366504788,0.0001556289531290531
1783696359871936800,1.463936767578125,-0.02911678889095783,-0.01678169651813805,-0.003433225851692259
1783696359881899800,1.473899658203125,-0.02731996860206127,-0.018548486994951964,-0.024149704535491763
1783696359891862500,1.483862548828125,-0.03809212250709534,-0.009913198988139629,-0.009636172145046293
1783696359901826600,1.49382666015625,-0.04765548514425754,-0.018170666658505797,-0.0034903993990272283
1783696359911789600,1.50378955078125,-0.02550561265647411,0.001217705226689577,-0.008011566617898643
1783696359921752600,1.513752685546875,-0.017868834167718887,-0.0006734422821551561,-0.0054912908926606175
1783696359931715800,1.5237158203125,-0.039566871234774585,0.010734963699802756,0.004355418730527162
1783696359941679600,1.5336796875,-0.01982055275738239,0.008484590957127511,-0.002639225929789245
1783696359951642600,1.543642578125,-0.038379122754931445,0.008018580880574881,-0.0034049496052786705
1783696359961606000,1.55360595703125,-0.041671734559535975,-0.00976812796164304,-0.011053126270882785
1783696359971569000,1.56356884765625,-0.01160451307594776,0.006496997336484491,-0.024370873005501923
1783696359981533000,1.573532958984375,-0.02716273221373558,0.00926660818029195,-0.021244630743749437
1783696359991496000,1.583495849609375,-0.02715396438539028,0.0072459160076454275,-0.01871123980861157
1783696360001458700,1.593458740234375,-0.023270400950312613,0.01259432783089578,-0.011018383751064538
1783696360011421700,1.603421630859375,-0.018638064974546432,0.009984218397736548,0.010601363915391265
1783696360021385700,1.6133857421875,-0.029424831926822662,0.01229870588518679,0.013220716100931167
1783696360031348700,1.6233486328125,-0.026754735934734344,0.016423165404051542,0.012701843325980008
1783696360041311700,1.633311767578125,-0.032761282873153684,-0.0035210502656176684,-0.0016962459912523626
1783696360051274800,1.643274658203125,-0.03322948490679264,-0.006712941642105579,-0.020180179850012064
1783696360061237800,1.65323779296875,-0.031000702941417692,-0.009028744303807616,-0.006501892707310617
1783696360071201800,1.663201904296875,-0.038036008405685426,-0.022892105689831077,-0.010691489884257315
1783696360081164800,1.673164794921875,-0.03937807066440582,-0.02741758375763893,-0.021552308453433214
1783696360091127600,1.68312744140625,-0.026658874344825743,-0.003056282298080623,-0.0342411826999858
1783696360101090600,1.693090576171875,-0.03308393895626068,-0.002716711612790823,0.0015566913900896906
1783696360111054600,1.7030546875,-0.026944705548882484,0.00533569847214967,-0.010053338111191988
1783696360121017600,1.713017578125,-0.022453239348530767,0.01685326391700655,-0.000389803035184741
1783696360130980600,1.722980712890625,-0.026037527576088904,0.016080124120041728,-0.0004176043575629592
1783696360140944000,1.73294384765625,-0.025291093122959137,0.01405157743450254,-0.012715579590387641
1783696360150907600,1.74290771484375,-0.026342063480615616,0.022325448250398037,-0.0007083674650639295
1783696360160871000,1.752870849609375,-0.05343348402380943,-0.011185301283188164,-0.013282054366730153
1783696360170834000,1.762833984375,-0.029049568873643874,-0.003229739168845117,-0.025530527902022003
1783696360180796700,1.772796630859375,-0.019621230792999267,0.004038973192498087,0.002649162801913917
1783696360190760700,1.7827607421875,-0.04325812696814537,-0.003608801614306867,-0.0051362303772941225
1783696360200723700,1.7927236328125,-0.018413608568906784,0.0021327011797577142,-0.005282726175896823
1783696360210686700,1.802686767578125,-0.02798398546874523,0.004855513739772141,0.000514708056487143
1783696360220649700,1.812649658203125,-0.04697802427411079,0.007358071145229041,-0.011543430538475513
1783696360230612700,1.82261279296875,-0.031115269231796264,0.012232874107360838,-0.00834956640060991
1783696360240576800,1.83257666015625,-0.033353403547406194,-0.003124744424410164,-0.001953216427005827
1783696360250539800,1.842539794921875,-0.05399813216924667,-0.005846643668971955,-0.007017258350923657
1783696360260502800,1.852502685546875,-0.025269465813040733,0.009235043998248874,-0.009020926323533058
1783696360270465500,1.862465576171875,-0.03124970926642418,-0.01720313680060208,0.0005479162063449621
1783696360280429800,1.872429931640625,-0.04142039014697075,-0.00835321966242045,-0.013394465232640504
1783696360290392600,1.882392578125,-0.009251227948069572,0.009907098040916025,-0.011506642192043363
1783696360300355600,1.89235546875,-0.032742578172683716,-0.0032102672833949327,0.007279781744629144
1783696360310318600,1.902318603515625,-0.018220131823420523,-0.006263078982755541,0.002352517942897975
1783696360320282600,1.91228271484375,-0.0203168118417263,0.017957133505679665,-0.002504201373271644
1783696360330245600,1.92224560546875,-0.022262100690603255,0.004186930295825004,0.010063896037824451
1783696360340209000,1.932208984375,-0.029745734444260596,0.001865830404497683,-0.0018016425944864748
1783696360350172000,1.942171875,-0.021821955707669257,0.005112630305998027,-0.01535206557381898
1783696360360135000,1.952135009765625,-0.038576691153645516,-0.011231880371272563,0.0022067893292754886
1783696360370099000,1.962098876953125,-0.027350363740324974,-0.001985474728792906,0.00004986702371388673
1783696360380061700,1.972061767578125,-0.009542904371023177,-0.0015391922660171985,0.002727123408950865
1783696360390024700,1.982024658203125,-0.029290391892194748,-0.003524045940302312,0.004291888507641852
1783696360399987700,1.99198779296875,-0.02599544200003147,0.005983092997595667,-0.013652166320756077
1783696360409951700,2.00195166015625,-0.010734159982204436,-0.0003179433753713965,0.009763415253907441
1783696360419914800,2.011914794921875,-0.022554946157336234,-0.0020981413230299947,-0.007191117080487311
1783696360429877800,2.021877685546875,-0.036328619965910906,-0.01108772266022861,-0.018394173216074703
1783696360439840800,2.0318408203125,-0.026453122639656067,-0.011069675546884535,-0.005988901683874428
1783696360449804800,2.0418046875,-0.03737316058278083,-0.009391659332066774,-0.005229826944880187
1783696360459767800,2.051767822265625,-0.037973464563488955,-0.00469835041668266,-0.0042135991070419545
1783696360469730600,2.06173046875,-0.01791734948456287,0.01630257123168558,-0.0013715440815314649
1783696360479693600,2.071693603515625,-0.04738426698744297,-0.004448869167640805,-0.010100099862366914
1783696360489656600,2.081656494140625,-0.022693477845191955,0.018254509017057715,-0.00842767313811928
1783696360499620600,2.09162060546875,-0.02149403892755508,0.02133556043021381,0.005356448999233544
1783696360509583600,2.10158349609375,-0.03720248019099235,0.010469335033558309,0.002927395221404731
1783696360519546600,2.111546630859375,-0.012667758393287657,0.00258687468804419,-0.01072656119763851
1783696360529510000,2.121510009765625,-0.020891981381177902,0.0036249124988913532,-0.0028922873754054306
1783696360539473700,2.1314736328125,-0.03944645972549915,-0.014748108331300318,-0.008941906270571053
1783696360549437000,2.14143701171875,-0.02238777289688587,0.00552303773779422,-0.0037545302279293536
1783696360559400000,2.15139990234375,-0.03510287756323814,-0.006051920450106263,0.000688347590342164
1783696360569363000,2.161363037109375,-0.01324585054218769,0.002970101851969957,-0.00006104600485414267
1783696360579327000,2.171326904296875,-0.022826748836040495,0.009953056074492633,-0.009298391558043658
1783696360589290000,2.1812900390625,-0.04153378739356994,0.0022049992309883235,-0.010017755341157317
1783696360599253000,2.1912529296875,-0.04033610204160213,-0.005906374499574304,-0.03054364335630089
1783696360609215700,2.2012158203125,-0.013106149810552596,0.009230842747166752,-0.010713299857266247
1783696360619180000,2.211179931640625,-0.024478023174405096,0.007124846911244094,0.006205357446148991
1783696360629142800,2.221142822265625,-0.02149286988377571,-0.003539280042052269,-0.01317961690556258
1783696360639105800,2.231105712890625,-0.002641454419493675,0.01610262821279466,0.01333900871835649
1783696360649068800,2.24106884765625,-0.029727029743790625,-0.0024268618207424876,0.0077998235633596775
1783696360659031800,2.25103173828125,-0.04260696958303451,-0.011295702855102717,0.001252776540070772
1783696360668995800,2.260995849609375,-0.015385200658440588,0.006968121979571878,0.004085406150110066
1783696360678958800,2.270958740234375,-0.026603929287195204,-0.004752710952423513,-0.010035948584973812
1783696360688921900,2.280921875,-0.03364332640469074,-0.005074745981022716,-0.007557904566265642
1783696360698884900,2.290884765625,-0.02751519891321659,-0.004833922962471843,-0.02078969005048275
1783696360708849000,2.300848876953125,-0.03976560867726803,-0.021006620736792683,-0.017868688037246463
1783696360718811600,2.310811767578125,-0.026730186015367505,-0.0028092852670699355,-0.011958221884444356
1783696360728775000,2.32077490234375,-0.02836392469704151,0.0023238763703033326,0.002987856704369187
1783696360738738000,2.330738037109375,-0.03612929800152778,-0.004693199317529797,-0.0007283142745494843
1783696360748701700,2.34070166015625,-0.01726911470890045,0.009918898076564073,0.0061899406813085076
1783696360758665000,2.3506650390625,-0.01757365061342716,0.016915734693966806,0.016424517110921442
1783696360768628000,2.3606279296875,-0.03552899402081966,0.0026654198169708252,0.01419873082023114
1783696360778591000,2.370591064453125,-0.012041735449433325,-0.004324987059645354,-0.006786627932824194
1783696360788555000,2.380554931640625,-0.021772271347045898,0.017975436347350476,-0.007869235537759959
1783696360798518000,2.39051806640625,-0.05080839621722698,-0.00017985007893294095,-0.006176094819046556
1783696360808480800,2.400480712890625,-0.022239888858795166,-0.012340097341500222,-0.008954546556435525
1783696360818443800,2.41044384765625,-0.03421206620335579,-0.0009448065694421529,-0.0016120748391374945
1783696360828406800,2.42040673828125,-0.039891865405440326,-0.02276000374276191,-0.0002034136176109314
1783696360838370800,2.430370849609375,-0.02372983515560627,0.004290354137681424,-0.018299188409000633
1783696360848333800,2.440333740234375,-0.03404840007424354,-0.0035804523026570674,-0.00011284925732761621
1783696360858296800,2.450296875,-0.01997662010192871,-0.004208338410034775,-0.002479359192959964
1783696360868259800,2.460259765625,-0.013845570001006125,0.01599361488036811,-0.002355404019728303
1783696360878224000,2.470223876953125,-0.03030512189269066,0.004264781305007636,0.004726626663096249
1783696360888187000,2.480186767578125,-0.03733808926939964,-0.00645600773897022,-0.019130086275190115
1783696360898150000,2.49014990234375,-0.026716742011904715,0.0053523938786238425,-0.030994601994194088
1783696360908112600,2.500112548828125,-0.030002924075722692,-0.008202997536771,-0.0018752192873507736
1783696360918076700,2.51007666015625,-0.03642448155581951,-0.0017620777690783142,-0.007904160720668733
1783696360928039700,2.520039794921875,-0.03462181604802608,0.010109963669255375,-0.0004909618547186256
1783696360938003000,2.5300029296875,-0.044942719054222105,0.0045917847696691745,0.009982209103740751
1783696360947966000,2.539966064453125,-0.021005963149666785,0.00815696643795818,0.005342931930534541
1783696360957929700,2.5499296875,-0.022208909198641776,0.021079137983731924,0.00020560557469725607
1783696360967893000,2.55989306640625,-0.04570785820782184,0.01010020946022123,-0.0022948329389095305
1783696360977856000,2.56985595703125,-0.032255086916685105,-0.0028969635505229235,-0.009724690678715705
1783696360987819000,2.579819091796875,-0.01729834080338478,0.006566482376120984,-0.016454108531586825
1783696360997783000,2.589782958984375,-0.035549452286958695,-0.0046839930977672336,-0.01417030844334513
1783696361007745800,2.599745849609375,-0.030610242319107053,-0.008432824237272143,-0.008348470422066748
1783696361017708800,2.609708740234375,-0.026124621337652205,0.010213972033001482,-0.005320135576836764
1783696361027671800,2.619671875,-0.030611411362886427,-0.005224748910963535,-0.001770224542915821
1783696361037634800,2.629634765625,-0.011463058778643608,-0.009309059082530439,-0.014325243276730178
1783696361047598800,2.639598876953125,-0.03212064688205719,-0.004736198209039867,-0.006287921163067221
1783696361057561900,2.649561767578125,-0.04245031771659851,0.007429930805042386,-0.011749364906735718
1783696361067524900,2.65952490234375,-0.02583937465548515,-0.011809497596137225,-0.00013257687110453844
1783696361077487900,2.66948779296875,-0.04020516913831234,-0.007336407302692532,-0.0018986366955563425
1783696361087452000,2.679451904296875,-0.039760932502150535,-0.004445910025574267,-0.006752725663222372
1783696361097415000,2.689414794921875,-0.014622984114289283,0.002425108255073428,-0.005505429015867412
1783696361107377700,2.699377685546875,-0.040052608925104136,0.007541757149063051,0.0014304346619173883
1783696361117341000,2.7093408203125,-0.030616672059893605,-0.012549173514917493,0.002724091201648116
1783696361127304700,2.7193046875,-0.023891163197159764,-0.006099960842914879,0.000991677918471396
1783696361137267700,2.729267822265625,-0.03121463795304298,-0.007166603693738579,0.0032070889456197616
1783696361147231000,2.73923095703125,-0.044075288569927214,-0.002154438087530434,0.0006787029791623354
1783696361157194000,2.749194091796875,-0.01759118627011776,0.0093412077864632,-0.005211085711792111
1783696361167158000,2.759157958984375,-0.04182780190408229,-0.0023731588721275327,0.00757105630878359
1783696361177121000,2.76912109375,-0.029547581523656843,-0.0023949688451364633,-0.0048200771002098915
1783696361187084000,2.779083984375,-0.006955810487270355,0.002306450311467051,0.00005118219796568155
1783696361197046800,2.789046875,-0.025658757391571998,-0.004009856695868075,-0.0008630100375041365
1783696361207010800,2.7990107421875,-0.03149403941631317,-0.0101263302821666,-0.004930880530923605
1783696361216973800,2.808973876953125,-0.025665771654248236,0.01114376369640231,-0.0023425080055370926
1783696361226936800,2.818936767578125,-0.029251228925585744,-0.0006940832113847136,0.00843172825872898
1783696361236899800,2.82889990234375,-0.02191547921001911,-0.006784472508355975,-0.0016129516219720243
1783696361246864000,2.83886376953125,-0.02656009014546871,0.010918430507928132,0.009709346979111433
1783696361256827000,2.848826904296875,-0.03075111209452152,0.0035033684784546494,0.008166866777464747
1783696361266790000,2.858789794921875,-0.03315232801735401,0.011238894633948802,0.005233882065489888
1783696361276753000,2.8687529296875,-0.013857844960689545,0.015444529630243778,0.0029226094484329224
1783696361286715600,2.878715576171875,-0.03332183936536312,-0.006356931278668343,0.0016423603795468807
1783696361296679700,2.8886796875,-0.024957331123948094,-0.01769530423171818,-0.016414872499741613
1783696361306642700,2.898642578125,-0.023916882160305974,-0.01074289127793163,0.007483304960094392
1783696361316605700,2.908605712890625,-0.02960135753750801,-0.00845339210126549,-0.009374269805848597
1783696361326569000,2.91856884765625,-0.030346622946858404,-0.008535298231057822,-0.009648008713312447
1783696361336532700,2.92853271484375,-0.03288578603565693,0.009752053609676658,-0.003498911499045789
1783696361346495700,2.938495849609375,-0.052174423873424525,-0.008076631210744381,-0.010882665074802934
1783696361356459000,2.948458984375,-0.028231238228082656,-0.008541618373990058,-0.010139153231121599
1783696361366422000,2.958422119140625,-0.030015783557295797,0.00623944237884134,0.0019043357839807866
1783696361376386000,2.968385986328125,-0.04137538196146488,-0.000635083033144474,-0.0020350860241800544
1783696361386349000,2.97834912109375,-0.010394552764296532,0.014945019142888486,-0.00007796060703694819
1783696361396311800,2.988311767578125,-0.01846387745141983,-0.004227591099776327,-0.005252367570251226
1783696361406274800,2.99827490234375,-0.0397013112694025,0.000006137479841709137,-0.014865341502800583
1783696361416238800,3.00823876953125,-0.02503916418850422,0.005821034303680062,-0.010725172958150505
1783696361426201900,3.018201904296875,-0.029680267992615698,0.020925774052925408,0.00880194981060922
1783696361436164900,3.028164794921875,-0.035227380725741386,0.010832907648943364,-0.017984131110459566
1783696361446127900,3.0381279296875,-0.008605915781855582,0.011105769773572683,0.0008133622094988822
1783696361456092000,3.048091796875,-0.026424481067061422,0.011959719721786678,0.010593801663443446
1783696361466055000,3.058054931640625,-0.030180618730187413,0.005708952231332659,0.005848287636786699
1783696361476018000,3.068017822265625,-0.022121230915188788,0.006030000879243016,-0.01202379793394357
1783696361485980700,3.077980712890625,-0.03829144447147846,-0.014822233013436197,-0.0073910966319963335
1783696361495943700,3.087943603515625,-0.03201426389813423,-0.013646138438768683,-0.017664251506328582
1783696361505907700,3.09790771484375,-0.021837737798690793,-0.004386800249479711,-0.02157422802429646
1783696361515870700,3.10787060546875,-0.04682137240767479,-0.014748546722717581,-0.01898998368475586
1783696361525833700,3.117833740234375,-0.038432898768782614,-0.01244775896705687,-0.005205130895040929
1783696361535797000,3.127796875,-0.0334837519288063,-0.0017182751599699258,0.008209463810175658
1783696361545760800,3.1377607421875,-0.03901274448335171,-0.00522073032297194,-0.0015172726951539516
1783696361555724000,3.14772412109375,-0.03571662554740906,0.001315795306302607,-0.017890571075491607
1783696361565687000,3.15768701171875,-0.02852291465103626,0.00516260692756623,-0.012557612549699842
1783696361575650000,3.167650146484375,-0.04392798905372619,-0.020352065818198026,-0.012687814800627528
1783696361585614000,3.177614013671875,-0.033601240828633305,-0.008291406472586095,-0.014145795056596397
1783696361595577000,3.1875771484375,-0.026270167288184165,-0.006483114941604435,-0.009048398852348326
1783696361605539800,3.197539794921875,-0.05035305366516113,-0.0010028568996116518,-0.0030839740226045248
1783696361615502800,3.2075029296875,-0.027763620716333388,0.005085815364308655,-0.011435293988883495
1783696361625465900,3.2174658203125,-0.02581716282367706,0.0028011019606143236,0.003845386849157512
1783696361635430000,3.227429931640625,-0.04227437662780285,0.011297054561972617,0.007696180525794625
1783696361645393000,3.237392822265625,-0.028070494708418846,0.008755261124670505,-0.01127155479453504
1783696361655356000,3.24735595703125,-0.027924948757886883,-0.00010861147362738847,0.0011808072824031114
1783696361665319000,3.25731884765625,-0.036598669078946114,-0.004899608609825372,-0.015434337029792368
1783696361675283000,3.267282958984375,-0.03151215959489345,-0.004840644964203238,0.00641611411999911
1783696361685246000,3.277245849609375,-0.0413876569211483,-0.004877981299906969,0.0076487611874938004
1783696361695208700,3.287208740234375,-0.0267173265337944,-0.015836963013932108,-0.0072839829957112665
1783696361705171700,3.297171630859375,-0.021482933011651037,0.006315430224500596,-0.009903992768377065
1783696361715135700,3.3071357421875,-0.025975568255782126,-0.0021811434313654897,-0.007599478685669601
1783696361725098800,3.3170986328125,-0.050667526441812515,-0.007617197005450725,-0.01516863529831171
1783696361735061800,3.327061767578125,-0.008023731979727744,0.006889467252790928,-0.01103317946139723
1783696361745025000,3.33702490234375,-0.029716508349776266,-0.0063637263456359505,0.0025695947596803305
1783696361754988800,3.34698876953125,-0.03525368421077728,-0.00688968644849956,0.003974420056305826
1783696361764952000,3.3569521484375,-0.01251169104874134,0.014994593905657529,-0.005710267405584454
1783696361774915000,3.3669150390625,-0.03150631437599659,0.007286430681124329,0.008026654589176178
1783696361784877800,3.3768779296875,-0.020285247659683227,-0.004936031630076468,-0.0046992637321352955
1783696361794842000,3.386842041015625,-0.014157120168209076,0.008888532115519047,-0.01084806868545711
1783696361804804900,3.396804931640625,-0.046179567372798914,0.004310081751458346,-0.00974646411910653
1783696361814767900,3.406767822265625,-0.031816695499420164,-0.005809307333268225,-0.01408040167018771
1783696361824731000,3.41673095703125,-0.023143559700250626,0.005285977578908205,-0.007207374095544218
1783696361834694000,3.42669384765625,-0.04019581678807735,-0.0009081643534824251,0.0038990532651543616
1783696361844658000,3.436657958984375,-0.03196574858129024,0.004348623663559556,-0.012741371618770063
1783696361854621000,3.446620849609375,-0.023738602983951567,0.010785415245406329,-0.005615501794219017
1783696361864584000,3.456583984375,-0.04168985473811626,-0.0028487039620056745,0.006367562270537018
1783696361874547000,3.466546875,-0.025982582518458364,-0.005964461362361908,-0.012829744021967052
1783696361884511000,3.476510986328125,-0.0199988319337368,0.0017990122459828853,0.0011638561476022004
1783696361894473700,3.4864736328125,-0.04228840515315532,-0.003898395678028464,0.002183006594888866
1783696361904436700,3.496436767578125,-0.02254208667576313,-0.0048546004243195055,-0.01676887356918305
1783696361914399700,3.506399658203125,-0.016411036574840544,-0.0018398191804066299,-0.0023133184436708687
1783696361924363800,3.51636376953125,-0.02882394342422485,-0.013902560885250567,0.0005963219253346324
1783696361934326800,3.526326904296875,-0.017304770544171334,0.0062558089917525645,-0.021563231706246733
1783696361944290000,3.5362900390625,-0.032710429468750954,0.009995543509349227,0.012110745565034449
1783696361954253000,3.546253173828125,-0.04123626575171947,-0.010928842304088174,-0.008821640891768038
1783696361964216000,3.556216064453125,-0.022376082459092138,0.012627974372170865,-0.00498776181731373
1783696361974180000,3.56618017578125,-0.027303017467260358,0.010629530563950537,0.0036395620787516235
1783696361984142800,3.576142822265625,-0.02790039883852005,-0.01786171030718833,0.006077054891362786
1783696361994105900,3.58610595703125,-0.023720482805371285,0.007791676789522171,-0.0007438771698623896
1783696362004068900,3.59606884765625,-0.03434884432554245,0.006192242236249148,0.008441299804672599
1783696362014033000,3.606032958984375,-0.033301381099224085,0.005755019862763583,0.0006396496104076505
1783696362023996000,3.615995849609375,-0.012214753928780554,0.017876104158721862,-0.0032436215637251732
1783696362033959000,3.625958984375,-0.024936872857809066,0.002885236580111086,-0.007959872963279485
1783696362043922000,3.635921875,-0.03271569016575813,-0.009539251109212636,-0.023139394981786608
1783696362053886000,3.645885986328125,-0.024336568877100943,-0.008134243149496614,0.0028889994397759437
1783696362063849000,3.655848876953125,-0.0388473247885704,-0.014811236695386469,-0.004132204433903098
1783696362073812000,3.66581201171875,-0.014907646274566649,-0.011631254952400923,-0.017726904946379362
1783696362083774700,3.675774658203125,-0.017002572727203367,0.0061455900829285376,-0.010055420470423996
1783696362093738800,3.68573876953125,-0.04393383427262306,-0.0053865518765524025,0.004658749058656394
1783696362103701800,3.69570166015625,-0.027926117801666258,-0.015821071325056255,-0.005171630484238267
1783696362113664800,3.705664794921875,-0.02284019283950329,0.0026966917380690575,-0.001165865441597998
1783696362123627800,3.715627685546875,-0.04633154306411743,-0.0025183029638603327,-0.0061993295641615985
1783696362133591000,3.725591064453125,-0.03166998050510883,-0.014711977571994066,-0.02027980429958552
1783696362143554800,3.735554931640625,-0.028234160837531087,0.006747026574797928,-0.009258351808600128
1783696362153518000,3.74551806640625,-0.03854804958105087,0.005594422473572194,-0.007346965229324996
1783696362163481000,3.755481201171875,-0.03046761897802353,-0.005496916915848851,-0.005535860686749219
1783696362173443800,3.76544384765625,-0.018645663759112356,0.004793700549937784,0.005274652467295527
1783696362183407900,3.775407958984375,-0.028812837508320806,-0.02373969896249473,0.002020034585520625
1783696362193371000,3.785370849609375,-0.028210195440053938,0.00848809808846563,-0.010827829615026712
1783696362203334000,3.795333984375,-0.021930092257261277,-0.00015504443123936652,0.007515380598790943
1783696362213297000,3.805296875,-0.039738720670342446,-0.004598397173546254,0.0021044249333441256
1783696362223261000,3.815260986328125,-0.020287585747241973,0.024721440008841453,-0.009649798811599612
1783696362233224000,3.825223876953125,-0.03076163348853588,-0.002874861316569149,-0.0040464989118278024
1783696362243187000,3.83518701171875,-0.05111000951230526,-0.005874043132551014,-0.01158613716904074
1783696362253150000,3.84514990234375,-0.032710429468750954,0.00003057780135422945,-0.01001143519822508
1783696362263112700,3.85511279296875,-0.04079319815933704,-0.00563314704876393,-0.004438457371480763
1783696362273077000,3.865076904296875,-0.028519992041587828,0.0021026348350569606,-0.01013962815515697
1783696362283039700,3.875039794921875,-0.010423194336891173,0.0027150311123579737,-0.006287738499976694
1783696362293002800,3.885002685546875,-0.028224223965406418,0.006840696207620203,0.005144961673021317
1783696362302965800,3.8949658203125,-0.03375555460751056,-0.006534077943861484,0.009105243606120347
1783696362312929800,3.9049296875,-0.019395605343580244,0.009896649712137877,-0.007148812308721244
1783696362322892800,3.914892822265625,-0.027175591695308685,-0.001375453071668744,0.0021639731008559464
1783696362332856000,3.92485595703125,-0.037947745600342746,-0.011249379495345055,-0.0035819501399993892
1783696362342819000,3.934819091796875,-0.019846856242418286,-0.00585552109517157,-0.005988938216492533
1783696362352782800,3.944782958984375,-0.029860300734639165,0.0013330752346664666,0.012402604651078581
1783696362362746000,3.95474609375,-0.03374620225727558,-0.010992189863882958,-0.010404051245003938
1783696362372708900,3.964708984375,-0.022673604100942612,-0.003933357393555343,0.0018976503148674963
1783696362382672000,3.974671875,-0.03882628200054168,-0.017080131475441157,0.008421352995187044
1783696362392635000,3.984634765625,-0.013840309303998946,-0.0020670155324041843,-0.002906498563848436
1783696362402599000,3.994598876953125,-0.015637129592895507,0.004260397390834987,0.0027962796550244093
1783696362412562000,4.00456201171875,-0.04301964203715324,-0.004278334906324744,-0.0015615502282977103
1783696362422525000,4.01452490234375,-0.03987549879252911,-0.0020546309748664497,-0.017748313060589133
1783696362432488000,4.024488037109375,-0.014587912800908088,-0.009993424617499113,-0.0012359350031241774
1783696362442452000,4.034451904296875,-0.03523088785707951,-0.005852123561687767,-0.005720715734362602
1783696362452415000,4.0444150390625,-0.032386019819974896,0.00009092968646436929,-0.011089805019460618
1783696362462377700,4.054377685546875,-0.01862111383974552,0.0031758170245215294,-0.006633483197726309
1783696362472340700,4.0643408203125,-0.024457564908266068,-0.0033312998471781608,-0.005369710339605808
1783696362482303700,4.0743037109375,-0.03702829266786575,0.0029135493591427803,-0.0063338791966438285
1783696362492267800,4.084267822265625,-0.009797755914926529,0.01599412633702159,-0.0009209873024374246
1783696362502230800,4.094230712890625,-0.031195933252573013,0.0032287162555381652,-0.0001632277376949787
1783696362512193800,4.10419384765625,-0.021628478962182996,0.004637121748737991,-0.004166289366595447
1783696362522157000,4.114156982421875,-0.02491875267922878,0.0024402327589690682,-0.0022827406423166392
1783696362532120800,4.124120849609375,-0.0395750545412302,-0.014270188621245324,-0.009122304338775575
1783696362542084000,4.134083984375,-0.03209901957213879,-0.014065861688181757,-0.00887377293780446
1783696362552047000,4.144047119140625,-0.027307109120488164,-0.007983436501957476,0.004725348021462559
1783696362562009600,4.154009521484375,-0.05138941097557544,-0.006909487127512693,-0.004219955782592297
1783696362571973600,4.1639736328125,-0.019965514186024665,0.006064926062151789,-0.004750299799628556
1783696362581936600,4.1739365234375,-0.02789338457584381,-0.003193060420267284,0.00800546567067504
1783696362591899400,4.1838994140625,-0.03447977722883224,-0.004969787769205868,-0.01396360689010471
1783696362601862400,4.1938623046875,-0.023861937102675437,-0.007352518187277018,0.000283273920789361
1783696362611825400,4.203825439453125,-0.029095161581039426,0.007049443587474525,0.005656345261260866
1783696362621789400,4.21378955078125,-0.026406945410370825,-0.024248013810813426,-0.011880590070970356
1783696362631752400,4.22375244140625,-0.009057166680693627,0.008716792277805507,-0.0018242562850937247
1783696362641715500,4.233715576171875,-0.04630290149152279,-0.005337817363999783,0.005879449960030615
1783696362651678500,4.243678466796875,-0.0370218629270792,-0.016287373662553728,-0.006902034473419189
1783696362661642500,4.253642578125,-0.01846563101708889,-0.0014576879950240255,-0.0004733896654099226
1783696362671605500,4.26360546875,-0.03477320721745491,-0.009439590127021074,-0.0018332798417657612
1783696362681568500,4.273568603515625,-0.021458967614173888,-0.00394150416739285,-0.010409896463900803
1783696362691531500,4.283531494140625,-0.02565291217267513,0.0038421354461461305,-0.0065523807855322955
1783696362701494500,4.29349462890625,-0.04240940118432045,-0.006802592686936259,0.004912796884961426
1783696362711458600,4.30345849609375,-0.021460136657953263,0.0008634849615395068,-0.011448591861873865
1783696362721421600,4.313421630859375,-0.02474573419988155,0.010774090133793652,0.00529174973256886
1783696362731384600,4.323384521484375,-0.025488076999783515,-0.0016992781985551118,-0.005287402351014316
1783696362741347600,4.33334765625,-0.01756371374130249,-0.0002762961907312274,-0.012690372083894908
1783696362751311600,4.3433115234375,-0.03313186975121498,-0.0011892463171854614,-0.006809278156049549
1783696362761274600,4.353274658203125,-0.04420271434187889,-0.007322305712103843,0.004793116028048098
1783696362771237400,4.3632373046875,-0.036577626290917396,0.006059592299908399,-0.013501469271071254
1783696362781200400,4.373200439453125,-0.02640577636659145,0.004128587704710662,0.001231368425861001
1783696362791164400,4.383164306640625,-0.03523322594463825,0.005976261398009956,-0.00006353022288531064
1783696362801127400,4.39312744140625,-0.018917466437816617,0.008719751419872045,-0.017884214399941263
1783696362811090400,4.40309033203125,-0.026245617368817326,-0.0009284034239128231,0.007671886334754526
1783696362821053400,4.413053466796875,-0.03028057197332382,-0.01056837496124208,-0.011697050197608768
1783696362831016400,4.423016357421875,-0.022055179941654204,-0.00501833961866796,-0.0063401628069579595
1783696362840980500,4.43298046875,-0.006935936743021011,-0.003439692125096917,0.008086458485014736
1783696362850943500,4.442943603515625,-0.03431260396838188,-0.00288512698225677,0.0007692673394456505
1783696362860906200,4.45290625,-0.03595978665351868,-0.0027332974214106798,-0.00189929428268224
1783696362870869500,4.462869384765625,-0.029966683718562124,-0.0019569792866706848,0.008071078252792357
1783696362880833300,4.472833251953125,-0.037895723152160644,-0.00430416346732527,-0.010153729745745658
1783696362890796500,4.482796630859375,-0.02084112797677517,0.010076865117251872,-0.00976151555776596
1783696362900759600,4.492759521484375,-0.028763153147697448,-0.004970591486804187,0.007162110181711614
1783696362910722600,4.50272265625,-0.02232932070791721,-0.0013687310699373482,0.0023671675227582454
1783696362920685600,4.512685546875,-0.028173370561003684,0.00018492811284959314,-0.00823635181710124
1783696362930649600,4.522649658203125,-0.027425767064094542,-0.01011628381218761,-0.011393354543298482
1783696362940612600,4.532612548828125,-0.035057869377732274,-0.008001410550065337,-0.0018227584477514029
1783696362950575600,4.54257568359375,-0.01381049868762493,-0.0011111395796760916,0.0014807035444304346
1783696362960538400,4.552538330078125,-0.03520166176259518,-0.011479498456791042,0.012264438289403915
1783696362970502400,4.56250244140625,-0.03685001349151134,-0.010534143898077308,-0.007642258381471038
1783696362980465400,4.57246533203125,-0.030569910308718678,-0.0035194062978029248,-0.010467508402653038
1783696362990428400,4.582428466796875,-0.050616088515520095,0.00510265690125525,0.003078932521305978
1783696363000391400,4.592391357421875,-0.02577799985706806,-0.001031096613407135,0.00581149929035455
1783696363010354400,4.6023544921875,-0.03340893312692642,0.00712272801939398,0.00021974369790405033
1783696363020318500,4.612318359375,-0.02697100903391838,-0.00410447617676109,0.007452069571614265
1783696363030281500,4.622281494140625,-0.034463410615921015,-0.0025958617120981214,-0.013408091899193822
1783696363040244500,4.632244384765625,-0.022798107263445853,0.010298508511297403,-0.0033811303382739423
1783696363050207500,4.64220751953125,-0.04015373121201992,0.0014401158057153224,0.0009455737544223666
1783696363060171300,4.652171142578125,-0.025496844828128813,-0.01289130148347467,-0.010108794625476002
1783696363070134500,4.662134521484375,-0.028638065463304517,-0.00652439680006355,-0.0027172961346805095
1783696363080097500,4.67209765625,-0.033414778345823286,-0.0010964899998158217,-0.011591690126992762
1783696363090060500,4.682060546875,-0.016506313642859458,0.0051468613691627975,-0.002689019888266921
1783696363100024600,4.692024658203125,-0.03745557816922664,0.006354775854200125,0.018095847856625914
1783696363109987600,4.701987548828125,-0.03880056303739547,-0.018152035023272037,-0.004156060233525932
1783696363119950600,4.71195068359375,-0.005435469052195548,0.004278261841088533,-0.007744367049075662
1783696363129913600,4.72191357421875,-0.028777181673049924,0.013528686071559786,0.0056972252609208225
1783696363139876400,4.73187646484375,-0.036707390150427816,0.0006609846593812108,-0.00823236976172775
1783696363149840600,4.741840576171875,-0.0253448691368103,0.0010067293571308254,-0.0011131123410537838
1783696363159803400,4.751803466796875,-0.03057809361517429,-0.0040461335856467485,0.0038499534264206884
1783696363169766400,4.761766357421875,-0.018458032232522962,-0.018287169177643954,-0.0026801789946854114
1783696363179729400,4.7717294921875,-0.02175648925602436,-0.010330291889049112,-0.0050675855878740544
1783696363189692400,4.7816923828125,-0.03238075912296772,-0.00879376650415361,0.004306099696084857
1783696363199656400,4.791656494140625,-0.031184827336668965,-0.012360153748840093,-0.009009345483593643
1783696363209619500,4.801619384765625,-0.02729600320458412,0.007649491839855909,-0.00036558190938085314
1783696363219582500,4.81158251953125,-0.03267944980859756,-0.0036512890491634605,-0.003209682761505246
1783696363229545500,4.82154541015625,-0.03402969537377357,0.00009458294827491044,-0.00790306474212557
1783696363239509500,4.831509521484375,-0.013982348123192786,-0.0015599793257191777,0.0041995340490713715
1783696363249472300,4.84147216796875,-0.030135610544681547,-0.009530154487304389,-0.0006092179395258427
1783696363259435500,4.851435546875,-0.030288755279779433,-0.006029197161644697,-0.00821319013722241
1783696363269398500,4.8613984375,-0.026999066084623335,0.003393624493665993,0.0005343626050278545
1783696363279361500,4.871361572265625,-0.03896539821028709,-0.017653401318751274,-0.0016233268855139612
1783696363289325600,4.88132568359375,-0.02565174312889576,-0.00008165040146559477,0.004245455550029874
1783696363299288600,4.89128857421875,-0.026401684713363648,-0.012931816156953572,-0.00005947510227560997
1783696363309251600,4.90125146484375,-0.03507189790308475,-0.004644428272359073,-0.0018411343546584247
1783696363319214600,4.911214599609375,-0.04210252719223499,0.008623378373309969,-0.0013844400957226752
1783696363329178600,4.9211787109375,-0.029231939703226087,-0.002844064319506287,0.0007776333089917897
1783696363339141400,4.931141357421875,-0.03445639635324478,-0.016562025885470212,-0.001854030368849635
1783696363349104400,4.9411044921875,-0.02937222495675087,-0.008405680502019822,-0.007992277395538986
1783696363359067400,4.9510673828125,-0.01695464193224907,0.007056421317532658,-0.006349515157192945
1783696363369030400,4.961030517578125,-0.043888826087117194,-0.004395677675679326,-0.002871646446175873
1783696363378994400,4.970994384765625,-0.025936405289173126,-0.0015152268685400484,-0.0008490911100059748
1783696363388957400,4.98095751953125,-0.025628362253308296,-0.0013337693544104696,0.006688757048919796
1783696363398920400,4.99092041015625,-0.03803951553702354,-0.005659340935945511,0.0013687676025554538
1783696363408883500,5.000883544921875,-0.027868834656476972,0.0040755423432216045,-0.009271211290173232
1783696363418847500,5.010847412109375,-0.029213235002756115,0.00334675314463675,0.0003473521329462528
1783696363428810500,5.020810546875,-0.0289133752733469,0.0017616759102791547,-0.013662285855971276
1783696363438773500,5.0307734375,-0.015008768561482429,0.010709536997601389,-0.00959463455826044
1783696363448736500,5.040736572265625,-0.03820201262235641,0.004404774297587574,-0.0019486133171245455
1783696363458699500,5.050699462890625,-0.05181318934559822,-0.013889628338441252,-0.007611205656081438
1783696363468663600,5.06066357421875,-0.020386369946599005,0.008467457159236073,-0.004727722641639411
1783696363478626600,5.07062646484375,-0.020824176841974257,-0.009017236529104411,0.009188611040636896
1783696363488589600,5.080589599609375,-0.02860182510614395,-0.01471296395268291,-0.013050839426741003
1783696363498552600,5.090552490234375,-0.01333995856642723,0.006499993011169135,0.004537351168692112
1783696363508516600,5.1005166015625,-0.036978023785352705,0.0055685939125716686,0.014172025476396084
1783696363518479600,5.110479736328125,-0.03188859169185161,-0.0011937032965943218,-0.020113361691497265
1783696363528442400,5.1204423828125,-0.02919569934606552,-0.0011354703033342956,-0.0020072847018018365
1783696363538405400,5.1304052734375,-0.032633272579312325,-0.0003620017128065228,0.012347002006322145
1783696363548368400,5.140368408203125,-0.027094927674531935,-0.00483275391869247,-0.013865955201908945
1783696363558333200,5.150333251953125,-0.018270985227823257,-0.001558408423140645,0.004117627919279039
1783696363568296200,5.160296142578125,-0.020803718575835226,-0.009416647642850875,0.008081234320625663
1783696363578259200,5.17025927734375,-0.026791560813784598,-0.003006853665784001,-0.01426416073925793
1783696363588222200,5.18022216796875,-0.027544425007700917,-0.008838701624423266,0.0035219635810703038
1783696363598185200,5.190185302734375,-0.04310381318926811,-0.01649539039004594,0.00033040099814534183
1783696363608149200,5.200149169921875,-0.021558920857310294,0.0009034151131287216,-0.011309877510927617
1783696363618112300,5.2101123046875,-0.012130582776665687,0.009957914912700653,0.010152597234584391
1783696363628075000,5.220074951171875,-0.053124856466054915,-0.0019247575175017117,-0.00237732359059155
1783696363638038300,5.230038330078125,-0.036813188612461085,0.0017278467059135437,-0.008183123792521655
1783696363648002000,5.240001953125,-0.03710252694785595,0.00682495064921677,0.0018954218251630663
1783696363657965000,5.249965087890625,-0.037838440006971355,-0.017059125220030544,-0.0008842354886233806
1783696363667928300,5.25992822265625,-0.010606149688363075,0.004913125678524375,-0.005736936216801405
1783696363677891300,5.269891357421875,-0.01748304972052574,-0.0015654226858168839,-0.006029781683534383
1783696363687854300,5.279854248046875,-0.03139467069506645,-0.02175462609250098,-0.003776595929265022
1783696363697818400,5.289818359375,-0.022563713985681532,-0.010166333498992024,-0.006289090206846594
1783696363707781400,5.299781494140625,-0.02718845117688179,0.004983743229322135,0.004988857795856893
1783696363717744000,5.309744140625,-0.03151391316056251,-0.017441292938031254,-0.015011837301403283
1783696363732066000,5.324066162109375,-0.017137597283720968,0.009756802850030362,0.0007755509497597813
1783696363742030000,5.334030029296875,-0.04361526984274387,-0.004376644181646406,-0.004466989346221089
1783696363751993000,5.3439931640625,-0.03448445340394973,-0.0033422961652278898,-0.0010883066933602093
1783696363761956000,5.3539560546875,-0.024007483053207396,0.005084317526966333,0.006618797085247934
1783696363771919400,5.36391943359375,-0.038810499909520145,-0.011723024889081717,0.0035065102836117144
1783696363781882400,5.37388232421875,-0.033416531911492346,-0.0022679449319839475,-0.016588292837888003
1783696363791846400,5.383846435546875,-0.028763737669587133,-0.0024827932590618727,-0.00892831613663584
1783696363801809400,5.393809326171875,-0.040135026511549945,-0.011092106574401258,-0.0018782149620354175
1783696363811772400,5.4037724609375,-0.0108054716527462,-0.010848032152839004,-0.008259294301271439
1783696363821735200,5.413735107421875,-0.01723871957063675,-0.0013053469775244594,-0.0009075067663565278
1783696363831699200,5.42369921875,-0.046123453271389,-0.007295600368268787,0.0035248861905187367
1783696363841662200,5.433662109375,-0.02861936076283455,-0.0044062721349298955,0.0008625716460868715
1783696363851625200,5.443625244140625,-0.006474164450168609,-0.0005540536861866713,0.007088350825756788
1783696363861588200,5.453588134765625,-0.025185294660925863,-0.0041924467211589215,-0.007515453664027154
1783696363871551200,5.46355126953125,-0.0292401230096817,-0.010532244201935827,-0.009152261085622011
1783696363881515300,5.473515380859375,-0.020554712250828742,-0.02243292721286416,0.006170468795858323
1783696363891478300,5.483478271484375,-0.03715981009304523,-0.024812442760542033,-0.010607428329996765
1783696363901441300,5.493441162109375,-0.03057692457139492,-0.004783800210431218,-0.0014063596665859221
1783696363911404000,5.503404052734375,-0.025027473750710485,0.002255377711355686,-0.0030852891968563196
1783696363921367300,5.5133671875,-0.014694295784831047,-0.005916530567407608,0.004425999748706817
1783696363931331000,5.5233310546875,-0.014987725773453711,0.015632599548250435,-0.006162760413438081
1783696363941294000,5.533294189453125,-0.02680675838291645,0.0014858911762014031,0.006892609057947993
1783696363951257300,5.54325732421875,-0.030851649859547612,0.013812106122821568,0.00037467853128910064
1783696363961220400,5.553220458984375,-0.016347323688864705,-0.0034082010082900523,-0.007131276652030646
1783696363971184000,5.56318408203125,-0.03669453066885471,-0.009939831266738473,-0.0038251843113452193
1783696363981147400,5.5731474609375,-0.040734161448478697,-0.004169065845571458,-0.0032946941638365384
1783696363991110400,5.5831103515625,-0.026061492973566053,0.006152494747750461,-0.0018389789301902055
1783696364001073200,5.5930732421875,-0.028589550146460533,0.0000015709025785326957,-0.0064190001968294375
1783696364011036200,5.6030361328125,-0.03696633334755897,0.0007537409767508506,-0.0036614085843786597
1783696364021000200,5.613000244140625,-0.010631868651509285,0.022914354054257274,0.008188238359056414
1783696364030963200,5.622963134765625,-0.038463293907046316,0.014181049033068119,0.014902568240649998
1783696364040926200,5.63292626953125,-0.019473346754908562,-0.00197564745452255,0.0008940262302756309
1783696364050889200,5.64288916015625,-0.02591886963248253,-0.008918488862365483,0.00693626553658396
1783696364060853200,5.652853271484375,-0.035649405530095095,-0.024634638508222995,-0.002275324520841241
1783696364070816300,5.662816162109375,-0.039996494823694224,-0.02229136331770569,-0.013543737510219216
1783696364081402400,5.67340234375,-0.030574586483836173,-0.018717998342961072,-0.013812507981620727
1783696364091365400,5.683365478515625,-0.0341635508865118,-0.023054164383746682,0.01094831418953836
1783696364101328100,5.693328125,-0.0449339512258768,-0.01161477874163538,-0.019273769062198697
1783696364111291100,5.703291015625,-0.02606733819246292,-0.0029355785278603434,-0.010908237907476722
1783696364121254100,5.713254150390625,-0.04161503593623638,-0.02434606735780835,-0.004374123430997133
1783696364131218200,5.72321826171875,-0.03666939622759819,0.010079239737428724,-0.011736834218725562
1783696364141181200,5.73318115234375,-0.04339139795899391,0.0026352804070338604,-0.0076075889268890015
1783696364151144200,5.743144287109375,-0.0372439812451601,-0.015701792326942084,0.008300210833549499
1783696364161107200,5.753107177734375,-0.016744214051961897,-0.0010162278378382324,-0.012064385672658681
1783696364171071200,5.7630712890625,-0.026605098330974578,-0.005368541295826435,0.011954824350960552
1783696364181034200,5.7730341796875,-0.032444472008943556,-0.0037454701386392115,0.003949724006466568
1783696364190997200,5.782997314453125,-0.012103694769740103,-0.0092372359553352,0.011523922120407223
1783696364200960300,5.792960205078125,-0.029313188245892522,-0.005739712695777416,0.003551262740790844
1783696364210923300,5.80292333984375,-0.04697276357710361,-0.007962028387747705,-0.011967391571588814
1783696364220887300,5.81288720703125,-0.03590484159588814,0.002198386827111244,-0.0007290449269115925
1783696364230850300,5.822850341796875,-0.04113572798669338,-0.0015494944643229245,-0.008680551920644939
1783696364240813300,5.832813232421875,-0.03066226476728916,-0.0065904112409800285,-0.024286299994587895
1783696364250776300,5.8427763671875,-0.006413958695530891,0.025734854835085568,-0.005884527993947267
1783696364260740400,5.852740234375,-0.029304420417547224,-0.0018244389481842517,-0.006273308115825057
1783696364270703400,5.862703369140625,-0.025267712247371673,0.0010662044594064355,-0.004292034638114273
1783696364280666000,5.872666015625,-0.0071627312362194055,-0.0025322584239766,-0.0012463102666661144
1783696364290629000,5.882629150390625,-0.027512860825657844,-0.016607472462393344,-0.004240487113967538
1783696364300592000,5.892592041015625,-0.03650280748903751,-0.006028466509282589,-0.005837072123028338
1783696364310556200,5.90255615234375,-0.021987959924340248,-0.0039319326214492314,-0.00030300153456628323
1783696364320519200,5.912519287109375,-0.024974866780638694,-0.0004962225517258047,0.0061212593592703335
1783696364330482200,5.922482177734375,-0.0267827929854393,-0.00080207363050431,-0.002927906678058207
1783696364340445200,5.932445068359375,-0.023052958807349203,-0.0036962972346693277,0.005337305907346308
1783696364350408200,5.942408203125,-0.032177930027246476,-0.010831300213746725,-0.003929704131744802
1783696364360372200,5.952372314453125,-0.020215105032920837,-0.009959595413133501,-0.005160780296660959
1783696364370335200,5.962335205078125,-0.0402764808088541,0.004412482680007815,0.007261369305104017
1783696364380298200,5.97229833984375,-0.05135492418408394,-0.019291231653653085,-0.001098389695957303
1783696364390261200,5.98226123046875,-0.03429682187736034,-0.014360716448910533,-0.01677238070052117
1783696364400225300,5.992225341796875,-0.04073182336091995,-0.015038433047384022,-0.008725742769241332
1783696364410188300,6.002188232421875,-0.03280161488354206,-0.02264463373478502,-0.0040947950329631565
1783696364420151300,6.0121513671875,-0.022173837885260582,-0.009043430416285992,-0.008669044145941733
1783696364430114300,6.0221142578125,-0.024561609804630277,0.00014284253679215907,0.0009888283742591738
1783696364440078300,6.032078369140625,-0.04012976581454277,-0.013407215116359292,-0.013145349309779703
1783696364450041300,6.042041259765625,-0.023225392764806747,-0.005943747367896139,-0.022709406066685915
1783696364460004400,6.05200439453125,-0.019029110118746757,-0.008858904162235557,0.0066814505252987145
1783696364469967000,6.061967041015625,-0.028909283620119092,-0.025691015693359076,-0.005270524281449616
1783696364479930000,6.07193017578125,-0.028467969593405723,0.002112352511473,0.0056097661731764675
1783696364489894100,6.08189404296875,-0.037895138630270955,0.003877243292145431,-0.008849369148910045
1783696364499857200,6.091857177734375,-0.04133914160430431,-0.01952544226832688,-0.01175451600588858
1783696364509820200,6.101820068359375,-0.01994914757311344,-0.0010753376139327883,0.011028503286279738
1783696364519783200,6.111783203125,-0.035814240702986715,-0.00005242430698126554,-0.003656403615698218
1783696364529746200,6.12174609375,-0.0343248789280653,-0.016704174302518367,-0.008829458872042596
1783696364539710200,6.131710205078125,-0.02460603346824646,-0.005071823371574282,0.0029211846763268112
1783696364549673200,6.141673095703125,-0.03942892406880855,-0.009404409215785562,0.0074503160059452055
1783696364559636200,6.15163623046875,-0.02641980489194393,-0.017992752808332443,-0.0049574032116681335
1783696364569599200,6.16159912109375,-0.030468203499913214,-0.00023391835372895,-0.01189209784567356
1783696364579563300,6.171563232421875,-0.04408756352961063,-0.007784589461609721,0.011256868682056664
1783696364589526300,6.1815263671875,-0.019110943183302878,-0.010791479660011828,0.001734276446700096
1783696364599489300,6.1914892578125,-0.013735095363855362,-0.01239233898539096,0.0004907791916280985
1783696364609452000,6.2014521484375,-0.04530570714771747,-0.007563932448253035,-0.008021028565987944
1783696364619415000,6.2114150390625,-0.030801965498924253,-0.01207457827311009,-0.007414660170674324
1783696364629379000,6.221379150390625,-0.027667759126424787,-0.01204911503829062,0.0038575887436047194
1783696364639342000,6.231342041015625,-0.031257308050990106,-0.022048384874686598,-0.008341711887717247
1783696364649305000,6.24130517578125,-0.0279722950309515,0.0067465516507625575,-0.01481806829497218
1783696364659268000,6.25126806640625,-0.013757891717553138,0.008532266023755073,0.0009467427982017397
1783696364669232000,6.261232177734375,-0.034714170506596566,-0.018594664224237202,-0.0015280132848769425
1783696364679195100,6.271195068359375,-0.023199673801660537,0.007563713252544403,-0.002074723914824426
1783696364689158100,6.281158203125,-0.040115152767300606,0.004544621159695088,-0.004588423768803477
1783696364699121000,6.291120849609375,-0.035033903980255125,-0.012650405399687587,0.010626790617592632
1783696364709084200,6.301084228515625,-0.012447978162765503,-0.008787263698130845,-0.006618102965503931
1783696364719048000,6.3110478515625,-0.03474924181997776,-0.01160538985878229,-0.01277227821368724
1783696364729011000,6.321010986328125,-0.03580021217763424,-0.013643581155501305,-0.011845518757589161
1783696364738974200,6.33097412109375,-0.012314122650027274,-0.0058719242407009,-0.01521791780013591
1783696364748937200,6.340937255859375,-0.03850421043932438,-0.00010557926632463932,-0.015080116764642297
1783696364758901000,6.35090087890625,-0.03685819679796695,-0.015502616493031382,-0.018843524418771265
1783696364768864300,6.3608642578125,-0.030276480320096014,-0.003680076752230525,-0.006352437766641378
1783696364778827300,6.3708271484375,-0.02578326055407524,-0.002390475333109498,-0.0037026904428377745
1783696364788790000,6.3807900390625,-0.03461830891668796,-0.008895217584632336,0.008793803036771713
1783696364798753000,6.3907529296875,-0.024895371803641316,0.0027948183503001926,-0.0143112147513777
1783696364808717000,6.400717041015625,-0.02174772142767906,-0.006359963485971093,-0.0030700916277244684
1783696364818680000,6.41068017578125,-0.03835632640123367,-0.015100538498163223,-0.011252667430974542
1783696364828643000,6.42064306640625,-0.03221650847196579,-0.0010533084452152251,-0.01908920627553016
1783696364838606000,6.430606201171875,-0.033708208334445953,-0.0020776099916547538,0.005737338075600564
1783696364848570000,6.440570068359375,-0.02608253576159477,0.0002307034833356738,-0.0010559022611007095
1783696364858533000,6.450533203125,-0.02623334240913391,-0.0012569777911528943,-0.0056728580046445124
1783696364868496100,6.46049609375,-0.03401157519519329,0.007265387893095612,-0.0017149872243404387
1783696364878459100,6.470459228515625,-0.0337234059035778,0.012604849224910139,0.0029612244257703423
1783696364888422000,6.480421875,-0.018611761489510534,0.010014796199090778,-0.0018682780899107454
1783696364898386000,6.490385986328125,-0.05452127926051616,-0.004460413474962115,-0.0026095979765057564
1783696364908349000,6.500348876953125,-0.024603695380687712,0.0067669733842834826,-0.010619593691825866
1783696364918312200,6.510312255859375,-0.013835633128881454,-0.0016822174658998846,-0.008309709314256905
1783696364928275200,6.520275146484375,-0.03807107971906662,-0.01161788401417434,-0.0051115343274548645
1783696364938238200,6.53023828125,-0.031792145580053326,-0.013801000206917524,-0.0002272694172337651
1783696364948202200,6.5402021484375,-0.027749007669091223,-0.007875555680692195,0.007247194649279117
1783696364958165200,6.550165283203125,-0.03567278640568256,-0.003677263740636408,-0.0031392478737980126
1783696364968128300,6.560128173828125,-0.022201894935965538,-0.017540478996187447,-0.0029680194927379487
1783696364978091000,6.570091064453125,-0.024443536382913588,0.0036838761445134875,-0.006309146614186465
1783696364988055000,6.580054931640625,-0.03925590558946133,-0.003473448264226317,-0.0007152721298858523
1783696364998018000,6.59001806640625,-0.016810849547386167,-0.01575286492705345,-0.01998648390881717
1783696365007981000,6.59998095703125,-0.021745383340120314,-0.017443119568936526,-0.008065707957930863
1783696365017944000,6.609944091796875,-0.0453828640371561,-0.018492007567360996,0.005561981508694589
1783696365027907000,6.619906982421875,-0.024131401693820952,0.0011805880866944788,-0.005650390444509685
1783696365037871000,6.62987109375,-0.026817864298820493,0.0033836876215413213,-0.007293883335217833
1783696365047834000,6.639834228515625,-0.04057634053826332,-0.017582783767953514,-0.008850099801272153
1783696365057797000,6.649797119140625,-0.020526070678234098,-0.005070435132086277,-0.01219425913002342
1783696365067759900,6.659759765625,-0.03294540726840496,0.0014454861005768179,-0.0033306422600522636
1783696365077724200,6.66972412109375,-0.030401568004488944,-0.014356697860918938,-0.005819317270629108
1783696365087687000,6.67968701171875,-0.019335399588942526,-0.00010747896246612071,0.0015334931775927542
1783696365097650200,6.689650146484375,-0.04417699537873268,-0.013831651073507964,0.01185077945459634
1783696365107613200,6.69961328125,-0.03610124095082283,-0.008231054587475955,-0.011594466605968773
1783696365117576200,6.709576171875,-0.02338379819691181,0.002589870362728834,-0.00466324257068336
1783696365127540200,6.719540283203125,-0.03235796276926994,-0.009446092933043836,0.0011442381316795944
1783696365137503200,6.729503173828125,-0.04763151974678039,-0.015156652599573134,-0.00860171453077346
1783696365147466200,6.73946630859375,-0.017560791131854055,0.003553235502168536,-0.015007380321994423
1783696365157429200,6.74942919921875,-0.03925590558946133,-0.011730331412702797,0.009060052757523954
1783696365167393300,6.759393310546875,-0.025049685582518577,-0.0052186114311218255,0.0021831161927431822
1783696365177356000,6.76935595703125,-0.0070984338283538815,0.006617299247905612,-0.0011249854419380426
1783696365187319000,6.779319091796875,-0.021909633991122245,-0.015107041304185985,-0.011639584389328956
1783696365197282000,6.789281982421875,-0.023862521624565123,-0.004535816798731685,-0.008563939803652465
1783696365207245000,6.7992451171875,-0.02581248664855957,0.005935089137405157,-0.015600925768353044
1783696365217209000,6.809208984375,-0.019676760372519492,-0.017345285217650233,0.004052124935016036
1783696365227172000,6.819172119140625,-0.028809914898872375,-0.021180223738029597,-0.008137202291563153
1783696365237135000,6.829135009765625,-0.023720482805371285,-0.00011493161655962466,-0.00020487492233514784
1783696365247098000,6.83909814453125,-0.03853109844624996,-0.016024448410049078,-0.004135784630477428
1783696365257062100,6.849062255859375,-0.01982990510761738,-0.0040951603591442105,-0.014907719339802861
1783696365267025000,6.85902490234375,-0.020734160470962524,0.0031512305725365877,-0.002388027647696435
1783696365276988000,6.86898779296875,-0.046321606191992756,-0.015960735524073243,-0.0003688698450103402
1783696365286951200,6.878951171875,-0.03749766374528408,-0.013866028267145156,-0.00681468498352915
1783696365296915000,6.8889150390625,-0.03539747659564018,-0.003300064458698034,0.0031385172214359043
1783696365306878200,6.898878173828125,-0.03628887247741222,-0.008268171727471053,-0.010316226831078528
1783696365316841200,6.90884130859375,-0.02207797629535198,0.001318644850514829,-0.016028320867568252
1783696365326804200,6.91880419921875,-0.021921324428915975,0.00441204428859055,-0.0015166516406461595
1783696365336767200,6.928767333984375,-0.04241875353455543,-0.016692410799488425,0.002452982642687857
1783696365346731300,6.938731201171875,-0.02446691725850105,-0.0027818492708727716,0.008135704454220832
1783696365356694300,6.9486943359375,-0.030293431454896925,-0.0052932110372930765,0.009519961886852979
1783696365366657000,6.958656982421875,-0.036429157730937,0.001758680235594511,-0.0017195172689855097
1783696365376620000,6.9686201171875,-0.02820142761170864,0.0029033567586913703,-0.0018751096894964576
1783696365386584000,6.978583984375,-0.0397188469260931,-0.006124620360136032,0.001796491495333612
1783696365396547000,6.988547119140625,-0.035384032592177386,-0.005741320130974054,-0.015390461355447768
1783696365406510000,6.998510009765625,-0.02850070281922817,0.00676277213320136,-0.0018390154628083108
1783696365416473000,7.00847314453125,-0.03568330779969692,0.007062924123555421,-0.0028906799402087925
1783696365426436000,7.01843603515625,-0.03703881406188011,-0.0019659297781065106,-0.009037840925715863
1783696365436400000,7.028400146484375,-0.027615152156352994,-0.0033512466566637156,0.011170542105473578
1783696365446363100,7.038363037109375,-0.028065234011411665,-0.014185652142949402,0.014360204992257057
1783696365456326000,7.048325927734375,-0.03869359553158283,-0.004428374368883669,-0.010391739752702415
1783696365466289200,7.0582890625,-0.021187749457359312,-0.009676102296635508,-0.01616108040176332
1783696365476253000,7.0682529296875,-0.03809212250709534,-0.007885565618053078,-0.010151939647458494
1783696365486216200,7.07821630859375,-0.012502338698506355,-0.0047722193704918025,-0.004630801605805754
1783696365496179200,7.08817919921875,-0.017584172007441518,0.0021423092583194372,0.010470979001373053
1783696365506142200,7.09814208984375,-0.035389877811074257,-0.009113098119013011,0.006086516839452088
1783696365516105200,7.108105224609375,-0.02057517051696777,-0.0030598259620368477,-0.003990275212563574
1783696365526069200,7.1180693359375,-0.016974515676498412,0.00443688646890223,0.013563026732578873
1783696365536032300,7.1280322265625,-0.02983575081527233,-0.01526807708479464,0.0018111045425757764
1783696365545995000,7.1379951171875,-0.021764088040590285,-0.008924151418171822,-0.007878734018467367
1783696365555958000,7.1479580078125,-0.034034956070780754,0.008129457376524806,0.01173891657795757
1783696365565922300,7.15792236328125,-0.04121288487613201,-0.012835077784210443,-0.013523790700733661
1783696365575885300,7.16788525390625,-0.03312953166365623,-0.007516001653298735,-0.019352387256361542
1783696365585848300,7.177848388671875,-0.04195172054469585,-0.007137048805691301,-0.009108020085096358
1783696365595811300,7.187811279296875,-0.047183775979280466,0.007959324974007904,-0.0014618161808699368
1783696365605774300,7.1977744140625,-0.03371989877223968,0.00591006429400295,-0.007254501172900199
1783696365615738400,7.20773828125,-0.030870354560017584,-0.004433927326835692,-0.001735262827388942
1783696365625701400,7.217701416015625,-0.028476152899861332,-0.008270071423612534,0.001482420577481389
1783696365635664400,7.227664306640625,-0.01651274338364601,-0.010053484241664409,-0.011336071398109196
1783696365645627100,7.237627197265625,-0.027276713982224463,-0.008049852801673113,-0.001473981542699039
1783696365655591200,7.247591064453125,-0.029968437284231184,-0.01737644754089415,-0.005951565348170697
1783696365665554200,7.25755419921875,-0.023841478836536405,-0.004184665273502469,-0.006630706718750297
1783696365675517400,7.267517333984375,-0.025485154390335083,-0.004476597424782812,-0.011352547608874738
1783696365685480400,7.27748046875,-0.029676760861277577,-0.0044443025903776285,-0.01539236105158925
1783696365695444200,7.2874443359375,-0.022942484170198438,0.007777684796787798,-0.0011145736457780003
1783696365705407500,7.297407470703125,-0.03401157519519329,0.0014644465293735265,0.0324656609274447
1783696365715370500,7.30737060546875,-0.03491466151475906,-0.016034275684319435,-0.007490282690152525
1783696365725333500,7.31733349609375,-0.03148527158796787,-0.001263261401467025,-0.012373013230413198
1783696365735296300,7.327296142578125,-0.03807400232851505,-0.008298091941699386,0.007179061316512525
1783696365745260300,7.33726025390625,-0.030301030239462852,-0.005943783900514245,-0.018172201028466225
1783696365755223300,7.347223388671875,-0.014735796838998793,0.004408135298453271,-0.013755188303813337
1783696365765186300,7.357186279296875,-0.03568330779969692,-0.011244557189755141,0.00991422190144658
1783696365775149300,7.3671494140625,-0.022366145586967468,-0.016989640180394054,-0.002573394151963293
1783696365785113300,7.37711328125,-0.011291793864965437,0.0022490210358053443,-0.01598806192241609
1783696365795076400,7.387076416015625,-0.04660159217715263,-0.011978935878910123,-0.00008395195640623569
1783696365805039400,7.397039306640625,-0.013835048606991767,-0.006002309154719114,-0.010132504294626414
1783696365815002400,7.40700244140625,-0.021609774261713028,0.003115245943702757,-0.006662161302939057
1783696365824965000,7.416965087890625,-0.025492753174901007,-0.010272972211241722,-0.007247267714515328
1783696365834929400,7.426929443359375,-0.01726911470890045,-0.0033695494983345268,-0.005290215362608433
1783696365844892200,7.43689208984375,-0.02774257792830467,-0.004588533366657793,0.0021940759781748057
1783696365854855400,7.44685546875,-0.033275077614188193,-0.004572678210400045,-0.0010976225109770893
1783696365864818400,7.456818359375,-0.01322889940738678,-0.01394322168920189,-0.015373839014209805
1783696365874782200,7.4667822265625,-0.023106150299310683,-0.00645553281493485,-0.00024301497563719747
1783696365884745500,7.476745361328125,-0.04106675440371036,0.0012855462985113262,0.0013839651716873048
1783696365894708500,7.48670849609375,-0.018627543580532074,0.0034218276748433705,-0.015401786467060447
1783696365904671500,7.49667138671875,-0.025808394995331763,-0.01456409353390336,0.004939209967851638
1783696365914634500,7.506634521484375,-0.039278117421269416,-0.007878259094431996,-0.008448460197821259
1783696365924598500,7.5165986328125,-0.020875614768266677,-0.009925766208767891,-0.012605981736071407
1783696365934561300,7.526561279296875,-0.04211597119569778,-0.012363953141123056,-0.0075561875332146875
1783696365944524300,7.536524169921875,-0.029846856731176374,-0.010228585080243647,-0.0006890782427042722
1783696365954487300,7.5464873046875,-0.01727963610291481,-0.006945216028019786,0.013446524213440716
1783696365964451300,7.556451416015625,-0.025053192713856694,-0.017200542984716592,0.0022640359418466685
1783696365974414300,7.566414306640625,-0.030144378373026845,-0.009487119063176215,-0.010170132891274988
1783696365984377300,7.57637744140625,-0.0252098445802927,0.00789820590391755,0.005757540613412856
1783696365994340400,7.58634033203125,-0.03837152397036552,-0.009162672881782054,0.004682056869007647
1783696366004304400,7.596304443359375,-0.02954816604554653,-0.009532565640099347,-0.00739478642642498
1783696366014267400,7.606267333984375,-0.017723872739076614,0.003999335301853716,-0.00422517994698137
1783696366024230100,7.616230224609375,-0.02309972055852413,0.0016438582168892026,0.010868855745159089
1783696366034193200,7.626193115234375,-0.03806348093450069,0.009628354164771735,-0.006569404985569417
1783696366044156400,7.636156494140625,-0.016511574339866636,0.005194682566262781,0.012604776159673928
1783696366054120200,7.6461201171875,-0.015908932271599768,-0.015870061565935612,-0.006873867824859917
1783696366064083500,7.65608349609375,-0.0239899473965168,-0.007900945850275457,-0.014095489641465246
1783696366074046500,7.66604638671875,-0.031020576685667035,0.0017721607716754079,-0.004506115780211985
1783696366084009500,7.676009521484375,-0.05450725073516369,-0.011931553073227404,-0.002484510292112827
1783696366093973500,7.685973388671875,-0.016502221989631652,-0.010599427686631678,-0.0062664399836212395
1783696366103936500,7.6959365234375,-0.023678981751203535,-0.013405826876871287,0.008669774798303841
1783696366113899500,7.7058994140625,-0.04836158758699894,-0.009888758666627109,-0.0010256532533094286
1783696366123862300,7.7158623046875,-0.03698737613558769,-0.0020240531735122203,-0.01146543339882046
1783696366133825300,7.7258251953125,-0.029504326903820037,-0.006662965020537376,0.010954378604143857
1783696366143789300,7.735789306640625,-0.03923018662631511,-0.0004224631957709789,-0.008967990559898316
1783696366153752300,7.74575244140625,-0.012450316250324249,-0.005149857043847441,-0.0015613675652071833
1783696366163715300,7.75571533203125,-0.025616087293624877,-0.011298881192877887,0.006165756088122725
1783696366173678300,7.76567822265625,-0.03788753984570503,-0.008066621273383498,-0.00858659002687782
1783696366183642400,7.775642333984375,-0.02442775429189205,0.0009703428694978356,-0.013525215472839773
1783696366193605400,7.78560546875,-0.029660394248366355,0.010342384185642003,-0.003712225456163287
1783696366203568400,7.795568359375,-0.034600188738107676,-0.000820887928828597,-0.014373356734775007
1783696366213531100,7.80553125,-0.03026654344797134,0.010619118767790496,-0.006951097779534757
1783696366223494400,7.815494384765625,-0.030113398712873458,-0.0009991671051830053,0.004698642677627504
1783696366233458200,7.825458251953125,-0.035651743617653844,-0.01167323093060404,-0.018589403527230024
1783696366243421400,7.83542138671875,-0.024278701210021972,0.00654343029409647,0.000605345482006669
1783696366253384400,7.845384521484375,-0.03744564129710197,0.0006267901288345456,0.000472184089012444
1783696366263347500,7.855347412109375,-0.037003158226609226,-0.014081826442293822,-0.01355214001238346
1783696366273311500,7.8653115234375,-0.012017185530066489,-0.009417853219248354,-0.00329261180460453
1783696366283274500,7.8752744140625,-0.052120063337683674,-0.004177577945590019,-0.0000062470776960253715
1783696366293237500,7.885237548828125,-0.04298983142077922,-0.00831445855461061,-0.015812230431474745
1783696366303200300,7.8952001953125,-0.01904547673165798,0.0006804200122132897,-0.0032812866929918527
1783696366313163300,7.905163330078125,-0.025775077247619627,-0.011155892525613307,-0.0015887670287862419
1783696366323127300,7.915127197265625,-0.03938976110219955,-0.010468092924542724,-0.012496493479609488
1783696366333090300,7.92509033203125,-0.02517418874502182,-0.004183751958049833,-0.002764898136071861
1783696366343053300,7.93505322265625,-0.03594458908438682,0.00320423940140754,0.008130991746485234
1783696366353016300,7.945016357421875,-0.01934182932972908,-0.01229855975471437,-0.011354228109307586
1783696366362980400,7.95498046875,-0.022338673058152198,-0.0028215967593714594,-0.0186290779504925
1783696366372943400,7.964943359375,-0.02966974659860134,-0.022215119743719695,0.0033980084078386423
1783696366382906400,7.97490625,-0.038353988313674925,-0.006745638335309922,-0.004307305272482335
1783696366392869400,7.984869384765625,-0.03685527418851852,-0.0032012437267228957,0.005271802923083305
1783696366402832400,7.994832275390625,-0.03610533260405063,-0.006742058138735592,-0.012499050762876867
1783696366412796200,8.004796142578124,-0.03072247052192688,-0.0022244711164385077,-0.023789127594791352
1783696366422759200,8.01475927734375,-0.021297055050730703,-0.0008315189206972717,0.003132708535157144
1783696366432722400,8.024722412109375,-0.05152326648831367,-0.016186799364909528,0.005579371034912765
1783696366442685400,8.034685546875,-0.024745149677991865,-0.0044325025547295805,-0.019473164091818033
1783696366452649500,8.0446494140625,-0.021447277176380158,0.0016974150350317358,0.0005615428728982806
1783696366462612500,8.054612548828125,-0.04195055150091648,-0.0037302725695073603,-0.004143748741224408
1783696366472575500,8.064575439453124,-0.025496844828128813,0.0019536182858049867,-0.008285670851543546
1783696366482538500,8.07453857421875,-0.028937340670824048,0.007062156938575208,-0.008650412510707974
1783696366492501200,8.084501220703125,-0.040761633977293966,-0.004813135902769864,-0.004055120609700679
1783696366502465300,8.09446533203125,-0.03343289852440357,-0.0036357626864686604,-0.000029043431393802163
1783696366512428300,8.10442822265625,-0.030135610544681547,-0.0029659736661240455,-0.006361570921167731
1783696366522391300,8.114391357421875,-0.02609831785261631,-0.02237885893806815,-0.008274272674694657
1783696366532354300,8.124354248046876,-0.018475567889213562,-0.006015643560327589,-0.01976228323150426
1783696366542318300,8.134318359375,-0.03044306905865669,-0.0033705358790233728,-0.010518727133236825
1783696366552281300,8.14428125,-0.03268997120261192,-0.012455942273512481,-0.008118168797530233
1783696366562244000,8.154244140625,-0.012337503525614737,-0.002562361301295459,-0.005445588587410748
1783696366572207000,8.16420703125,-0.02535071435570717,-0.007227430502884089,0.007153926875256002
1783696366582171100,8.174171142578125,-0.02356032380759716,-0.00697009474094957,-0.01274425769560039
1783696366592134100,8.184134033203126,-0.018324176719784736,-0.000729008394293487,-0.006657046736404299
1783696366602097200,8.19409716796875,-0.02295943530499935,-0.006556472438760101,-0.0001806903291493654
1783696366612060200,8.20406005859375,-0.022367899152636525,-0.006522643234394491,-0.01349657390024513
1783696366622023200,8.214023193359376,-0.019222586864233015,0.01927844523731619,-0.0003013940993696451
1783696366631987200,8.2239873046875,-0.03866378491520881,0.0016522241864353417,-0.0034625615440309044
1783696366641950200,8.2339501953125,-0.023552725023031233,-0.014979177140817045,-0.014299816574528813
1783696366651913200,8.243913330078126,-0.026400515669584273,-0.0010056699112057684,-0.0051032779557630414
1783696366661876200,8.253876220703125,-0.04704465976953506,-0.011235131774283945,0.0015341507647186517
1783696366671840300,8.26384033203125,-0.03028933980166912,-0.008552760822512209,-0.017340024520643055
1783696366681803300,8.27380322265625,-0.031492870372533795,-0.0021464374441653488,-0.005354293574765324
1783696366691766300,8.283766357421875,-0.04077098632752895,-0.00942537893857807,-0.004359035459719598
1783696366701729000,8.29372900390625,-0.01308686058819294,-0.00408003585524857,-0.007325045658461749
1783696366711693000,8.303693115234376,-0.0350742359906435,0.0006962386358529329,0.008630209972895682
1783696366721656000,8.313656005859375,-0.03536474336981773,-0.005386880670115351,0.010155702507123351
1783696366731619000,8.323619140625,-0.029675591817498206,0.008431143736839295,-0.0017769465446472166
1783696366741582000,8.33358203125,-0.02038753899037838,0.000558291469886899,0.006577113367989659
1783696366751545000,8.343545166015625,-0.03251052298247814,-0.012354381595179438,-0.012805340233072638
1783696366761509000,8.353509033203125,-0.016655366724729538,0.0008091244257986545,-0.012317081792093813
1783696366771472100,8.36347216796875,-0.018149989196658133,-0.007128792433999479,-0.010114566779136656
1783696366781435100,8.37343505859375,-0.04778349543809891,-0.005970087385550141,-0.004718954813294113
1783696366791398100,8.383398193359374,-0.02220481754541397,-0.004961896723695099,-0.01282203563954681
1783696366801362000,8.39336181640625,-0.02997954320013523,-0.019271504039876163,-0.010099478807859122
1783696366811325200,8.4033251953125,-0.04554243851304054,-0.014608371067047118,-0.0009849193841218948
1783696366821288200,8.4132880859375,-0.03282207314968109,-0.0015549012918025255,-0.0032644086234271522
1783696366831251200,8.423251220703126,-0.04223930531442165,0.001480557413958013,-0.007001366662047803
1783696366841215200,8.43321533203125,-0.03864508021473884,-0.0004401084503158927,-0.007709734127111733
1783696366851178200,8.44317822265625,-0.016353168907761572,0.006732778853736817,-0.009233984552323818
1783696366861141200,8.453141357421876,-0.023234160593152045,-0.0030037483932450412,0.0026850378328934312
1783696366871104300,8.463104248046875,-0.037298341780900954,-0.010243344257958233,-0.009259813113324343
1783696366881067000,8.47306689453125,-0.023080431336164473,0.004655826449207962,-0.009832571499980985
1783696366891031000,8.483031005859376,-0.03534603866934776,-0.011502039082162081,0.004834763212688267
1783696366900994000,8.492994140625,-0.029813538983464238,-0.005278963316231965,-0.01685304472129792
1783696366910957000,8.50295703125,-0.018891162952780722,0.006122793729230761,-0.001449029764533043
1783696366920920000,8.512920166015626,-0.045673371416330336,-0.0066916431257501244,0.007967983204498886
1783696366930884000,8.522884033203125,-0.026979192340373992,-0.008707293797098099,-0.016820676821656524
1783696366940847000,8.53284716796875,-0.027134090641140935,-0.004442549024708569,0.001187602349370718
1783696366950810000,8.54281005859375,-0.03626023090481758,-0.009313406464084982,0.00329524215310812
1783696366960773000,8.552773193359375,-0.04045125285387039,0.0004922770289704203,-0.020530089266225696
1783696366970737200,8.562737060546874,-0.036410453030467034,0.0005068170109763741,-0.0148654511006549
1783696366980700200,8.5727001953125,-0.0384989497423172,-0.008336706919036804,0.0006758899675682186
1783696366990663200,8.5826630859375,-0.012014262920618057,-0.008179616661183536,-0.0024533114362508056
1783696367000626200,8.592626220703124,-0.03086041768789291,-0.00844319950081408,0.0037544571626931425
1783696367010589200,8.602589111328125,-0.03205342686474323,-0.018606683455593884,-0.007015906644053757
1783696367020553200,8.61255322265625,-0.025326748958230016,-0.007171133738383651,-0.018563903759792447
1783696367030516200,8.62251611328125,-0.034758009648323054,-0.010862973993644118,-0.007884396574273705
1783696367040479200,8.632479248046875,-0.03011982845366001,-0.030001791564561425,-0.002501169165968895
1783696367050442200,8.642442138671875,-0.020252514433860776,-0.0001914674514904618,-0.004538812473416328
1783696367060406300,8.65240625,-0.02788110961616039,-0.008150134838372469,0.009488324639573692
1783696367070369300,8.662369384765626,-0.027286066332459447,-0.0061710533177480095,-0.005420417613536119
1783696367080332000,8.67233203125,-0.016978022807836533,-0.00451722169611603,-0.004387384771369397
1783696367090295000,8.682294921875,-0.03912380364239216,-0.003989544560201466,-0.0010728533959016204
1783696367100259000,8.692259033203126,-0.03807750945985317,-0.005670264188759029,-0.004484598068147897
1783696367110222000,8.70222216796875,-0.015339607951045036,-0.012405052336491643,0.007100479654967785
1783696367120185000,8.71218505859375,-0.027902736926078794,-0.014731705185770988,0.014061112447828053
1783696367130148000,8.722148193359375,-0.04212181641459465,-0.020819427601620553,-0.0010136340219527482
1783696367140111000,8.732111083984375,-0.027612229546904562,0.01566686714403331,0.0036668519444763657
1783696367150075100,8.7420751953125,-0.04181961859762669,0.0012156228674575686,0.015648381639271975
1783696367160038100,8.7520380859375,-0.04062719394266605,-0.01138612108491361,-0.0026264760460704565
1783696367170001200,8.762001220703125,-0.016087211447954178,0.006862433115392923,0.0014443170567974447
1783696367179964200,8.771964111328124,-0.021619126611948012,-0.00873483939114958,-0.0064280237535014745
1783696367189928000,8.781927978515625,-0.031201778471469876,0.0038681466702371833,-0.01678129465933889
1783696367199891200,8.79189111328125,-0.025965046861767767,0.007636449695192277,-0.006017433658614755
1783696367209854200,8.801854248046874,-0.036437341037392615,-0.0033943916786462066,-0.0016663988422602415
1783696367219817200,8.811817138671875,-0.022526304584741592,-0.0022300971396267415,-0.010483217428438364
1783696367229780200,8.8217802734375,-0.03285305280983448,-0.0062671706359833474,-0.004905782622285187
1783696367239744300,8.831744140625,-0.04033376395404339,-0.015180471866577862,-0.002040164058096707
1783696367249707300,8.841707275390625,-0.03405716790258884,-0.010865713940002023,-0.015290654242783783
1783696367259670300,8.851670166015625,-0.02897124294042587,0.003438121222518384,-0.0042854222342371935
1783696367269633000,8.861633056640626,-0.04108955075740814,0.0007952054983004927,-0.0009765168819576501
1783696367279597000,8.87159716796875,-0.022539748588204383,0.007578655093349516,-0.0011824877828359604
1783696367289560000,8.88156005859375,-0.02343523612320423,0.0023290274694561957,0.002348316691815853
1783696367299523000,8.891523193359374,-0.03750467800796032,-0.012391060343757272,-0.015325506360456346
1783696367309486000,8.901486083984375,-0.01671148082613945,-0.002220489061065018,-0.0076609265493229025
1783696367319450000,8.9114501953125,-0.024334230789542197,-0.004369958712533116,0.014901837588287888
1783696367329413000,8.9214130859375,-0.04214110563695431,-0.023001374750584364,-0.004788074526749551
1783696367339376000,8.931376220703125,-0.010572831940650939,-0.014292290855199098,-0.009771525495126844
1783696367349339100,8.941339111328125,-0.03166647337377071,-0.009504581654630601,-0.00019665508326143026
1783696367359302100,8.95130224609375,-0.034061259555816646,-0.01977112412508577,-0.0019030571423470973
1783696367369266000,8.961265869140625,-0.025983167040348053,-0.009306940190680324,-0.005110840207710862
1783696367379229200,8.971229248046875,-0.024632921475172043,-0.0024446897383779286,-0.0019034590011462568
1783696367389192200,8.981192138671876,-0.019390344646573066,-0.0024933511856943366,-0.01620670964177698
1783696367399155200,8.9911552734375,-0.012960603860020637,-0.006801350577920675,-0.005328026622347533
1783696367409119200,9.001119140625,-0.01640343779027462,-0.013368600139021873,0.004552366074733436
1783696367419082200,9.011082275390624,-0.041246202623844146,-0.009779416540637612,-0.006123451316356659
1783696367429045200,9.021045166015625,-0.023145897787809372,0.0020936843436211348,-0.010970635619200765
1783696367439008300,9.03100830078125,-0.046486441364884376,-0.008383980126865209,-0.0044693639663979405
1783696367448971000,9.040970947265626,-0.027333412605524063,-0.011568491914495825,-0.01396846572831273
1783696367458935300,9.050935302734375,-0.017610475492477417,0.006871200943738221,-0.006434563092142343
1783696367468898000,9.06089794921875,-0.044236032089591024,-0.0016937983058393001,0.008887984126247465
1783696367478861000,9.070861083984376,-0.022693477845191955,-0.00851597247608006,0.0049205052673816675
1783696367488824000,9.080823974609375,-0.03541793486177921,-0.013588015043362975,0.004013692620769143
1783696367498788000,9.0907880859375,-0.03092588413953781,-0.007334617204405367,-0.005320318239927292
1783696367508751000,9.100751220703126,-0.025247838503122327,-0.0017402677960693836,-0.015621384034492074
1783696367518714000,9.110714111328125,-0.03691840255260467,0.005907799271680414,-0.004152078178152442
1783696367528677000,9.120677001953124,-0.023894670328497885,-0.004987250360660255,-0.009886822437867522
1783696367538641200,9.13064111328125,-0.025393968975543975,0.0039684652395546435,-0.008431691726110874
1783696367548604200,9.140604248046875,-0.02239829429090023,-0.0006183876266703009,0.002546286949329078
1783696367558567200,9.150567138671875,-0.03242284469902515,-0.010914010061137378,-0.006512523699179291
1783696367568530200,9.1605302734375,-0.023303718698024747,0.005053593595139682,-0.010277319592796265
1783696367578493200,9.1704931640625,-0.02330021156668663,0.002173252385854721,0.0055234395965933795
1783696367588457200,9.180457275390625,-0.02644377028942108,-0.005283237632550299,-0.0013617168072611093
1783696367598420000,9.190419921875,-0.018513561812043187,0.004841850540600717,-0.01563066331949085
1783696367608383000,9.200383056640625,-0.04170037613213062,-0.012893749168887733,-0.012442936661466956
1783696367618346000,9.210345947265624,-0.05038227975964546,-0.017290413225255905,-0.0014173194520175456
1783696367628310000,9.22031005859375,-0.02539806062877178,0.000018522037379443643,-0.0043356180515140294
1783696367638273000,9.23027294921875,-0.02958206831514835,0.005620433697663248,-0.003484517647512257
1783696367648236000,9.240236083984374,-0.03302607128918171,0.0032873145749792456,-0.009036489218845962
1783696367658199000,9.250198974609376,-0.02480418638885021,-0.003992905561067164,-0.016358612267859278
1783696367668163000,9.2601630859375,-0.03482639870941639,-0.01047035794686526,0.0044027284709736705
1783696367678126000,9.2701259765625,-0.03378185809254646,-0.002630165840499103,-0.007257862173765897
1783696367688089000,9.280089111328126,-0.027206571355462072,-0.0016730112461373209,-0.010977357620932162
1783696367698051800,9.2900517578125,-0.039922845065593716,-0.005992956804484128,0.00267517402600497
1783696367708014800,9.300014892578124,-0.03633621875047684,-0.013420586054585874,-0.0095369860868901
1783696367717979000,9.309978759765626,-0.022121230915188788,-0.009204977653548121,-0.0016115633824840187
1783696367732301000,9.324301025390625,-0.03498363509774208,0.007188998188637196,0.008154007295891642
1783696367742264000,9.33426416015625,-0.02062368583381176,0.002234334923326969,-0.012919212403707206
1783696367752227000,9.34422705078125,-0.02391045241951942,0.0023284794801846143,-0.0007217018706724048
1783696367762191000,9.354191162109375,-0.02570318105518818,-0.011853117542155086,-0.01731313651371747
1783696367772154000,9.364154052734374,-0.011338555616140365,-0.014619805776514111,-0.01585413334444165
1783696367782117000,9.3741171875,-0.035575171250104905,-0.00970825100056827,0.009927337111346423
1783696367792080000,9.384079833984375,-0.05039397019743919,-0.005249408428184688,-0.008644165433011948
1783696367802044000,9.3940439453125,-0.011194763231277466,-0.00858315596077591,-0.003235072931088507
1783696367812007000,9.4040068359375,-0.03482873679697513,-0.011654453164897858,0.010676876837015152
1783696367821970000,9.413969970703125,-0.049043140110373494,-0.005535349230095744,-0.010877623573504388
1783696367831933000,9.423932861328124,-0.0167266783952713,-0.0037894554108381267,-0.013795812575146555
1783696367841896000,9.43389599609375,-0.024651041653752325,0.0010879413671791554,-0.006279116802103817
1783696367851860000,9.44385986328125,-0.035278234130144116,-0.021892098334431648,-0.008221921432949602
1783696367861823000,9.453822998046874,-0.024356442621350286,0.0054732072466984385,-0.012929478069394826
1783696367871786200,9.4637861328125,-0.03946691799163818,0.005313486640341579,-0.0019231135496869682
1783696367881749000,9.4737490234375,-0.03633621875047684,-0.009361446856893598,-0.012252747851610183
1783696367891713000,9.483713134765624,-0.016585808619856833,0.00006995996367186308,-0.005320099044218659
1783696367901676000,9.493676025390625,-0.03962473890185356,-0.023749270508438346,-0.007378967802785337
1783696367911639000,9.50363916015625,-0.03064998980760574,-0.01147171700913459,-0.00429349594283849
1783696367921602000,9.51360205078125,-0.02676058115363121,-0.0025176453767344355,-0.005582841633632779
1783696367931566000,9.523566162109375,-0.029600188493728637,-0.007695997862704098,-0.0024679244834929703
1783696367941529000,9.533529052734375,-0.015841712254285812,0.0004591419443488121,-0.0050256096096709365
1783696367951492000,9.5434921875,-0.021380641680955884,0.02229406673144549,-0.008537709383852779
1783696367961455000,9.553455078125,-0.03723872054815292,-0.00566770690549165,-0.01015420466978103
1783696367971417900,9.56341796875,-0.028113164806365967,0.017115348919294775,-0.01118142882566899
1783696367981382100,9.573382080078124,-0.02422200258672237,-0.004761478780768811,0.004550722106918693
1783696367991345000,9.583344970703125,-0.04995440973639488,-0.008987973902001976,-0.0015396671900525687
1783696368001308000,9.593307861328125,-0.03798807761073112,0.0009547799741849303,-0.016761640110798177
1783696368011271000,9.60327099609375,-0.022873510587215422,-0.0003660568334162235,0.003374189140833914
1783696368021235000,9.61323486328125,-0.04800444471240043,-0.02498768972959369,-0.012472235821187495
1783696368031198000,9.623197998046875,-0.01553074660897255,-0.00833984872419387,-0.002507854635082185
1783696368041161000,9.633160888671876,-0.023304303219914436,-0.007695121079869568,0.009978811570256948
1783696368051747000,9.6437470703125,-0.04949088387787342,-0.01529474589601159,-0.002646167127229273
1783696368061710000,9.6537099609375,-0.021063830816745756,0.012825250509940087,-0.005195194022916257
1783696368071674000,9.663674072265625,-0.06954816800057888,0.012051745386794209,-0.010035364063084124
1783696368081636900,9.673636962890624,-0.19630933856368063,0.11852514753956347,-0.16729144346993416
1783696368091600000,9.683599853515625,0.36628245886564254,0.19300763013716785,-0.04098596251877024
1783696368101563000,9.69356298828125,0.2266319961130619,-0.29365020724460483,0.30576906305085866
1783696368111527000,9.70352685546875,-0.3841910405218601,-0.23706392174568025,0.06367149451952427
1783696368121490000,9.713489990234375,-0.4925976392269134,0.0614695274958387,-0.11223229447305202
1783696368131453000,9.723452880859375,-0.015091186147928237,-0.010038725063949823,-0.047500148452073336
1783696368141416200,9.733416259765624,0.40653497427701946,0.1711120977366343,-0.0019633724948391316
