time,seconds_elapsed,z,y,x
1783696314887154200,0.060154296875,-0.0005623714532703161,-0.08167529106140137,-0.0364777110517025
1783696314897117200,0.0701171875,0.0015484499745070934,-0.036708347499370575,-0.039156850427389145
1783696314907080200,0.080080078125,0.0018306823913007975,-0.02830086275935173,-0.02788200043141842
1783696314917044200,0.090044189453125,0.0014482525875791907,-0.042345575988292694,-0.010550414212048054
1783696314927007200,0.10000732421875,-0.00037625827826559544,-0.032555315643548965,-0.0027275863103568554
1783696314936970200,0.10997021484375,-0.00018664119124878198,-0.011046826839447021,-0.006015524733811617
1783696314946933000,0.11993310546875,-0.00019396969582885504,-0.005164682865142822,-0.00779279600828886
1783696314956897000,0.12989697265625,0.0008851431775838137,-0.00999991875141859,-0.008268170058727264
1783696314966860000,0.139860107421875,0.0002736282185651362,-0.010019512847065926,-0.001197367673739791
1783696314976823000,0.149822998046875,-0.001764488872140646,-0.000924285501241684,0.0018186622764915228
1783696314986787000,0.159787109375,-0.0008678890299052,0.0015174464788287878,-0.00020294799469411373
1783696314996750000,0.16975,0.0004386578220874071,-0.0015401288401335478,-0.0004860420012846589
1783696315006713000,0.179713134765625,-0.0004992321482859552,-0.0018848767504096031,-0.001831237692385912
1783696315016677000,0.189677001953125,-0.0001948328281287104,-0.0027322943788021803,-0.0007382765179499984
1783696315026640100,0.19964013671875,-0.0005101623246446252,0.000536214211024344,-0.00003763718996196985
1783696315036603100,0.20960302734375,0.000519948429428041,-0.000995369628071785,-0.0005905095022171736
1783696315046567200,0.219567138671875,-0.0008156168623827398,-0.0026710694655776024,-0.0006546726217493415
1783696315056530200,0.2295302734375,0.0008794852183200419,0.0010927761904895306,0.0001221714774146676
1783696315066493000,0.239492919921875,0.0012540856841951609,0.00008579250425100327,-0.0004765522899106145
1783696315076457000,0.24945703125,0.0009193263249471784,-0.0016644368879497051,-0.0004794817650690675
1783696315086420000,0.259419921875,0.001115144114010036,-0.0005678818561136723,0.00012928398791700602
1783696315096383000,0.269383056640625,-0.0004968674038536847,-0.000038179103285074234,0.0004640433471649885
1783696315106347000,0.279346923828125,0.00012312622857280076,0.001387638272717595,-0.0010890922276303172
1783696315116310000,0.28931005859375,0.0010957126505672932,-0.0022611585445702076,-0.0018464952008798718
1783696315126273300,0.299273193359375,0.0002719230542425066,0.000449036480858922,-0.0008099410915747285
1783696315136237000,0.309237060546875,0.0004104074614588171,-0.00010969466529786587,-0.0009750571334734559
1783696315146200000,0.319199951171875,-0.000018712868040893227,-0.0021534969564527273,-0.0012711879098787904
1783696315156163300,0.329163330078125,0.0006073963013477623,0.000748016987927258,-0.0019375107949599624
1783696315166127000,0.339127197265625,-0.00023947791487444192,0.002339510712772608,-0.0022671720944344997
1783696315176090400,0.34909033203125,0.0007703927694819868,0.0011789052514359355,-0.001360632013529539
1783696315186053000,0.35905322265625,0.0008424684056080878,0.0020592648070305586,-0.0010919442865997553
1783696315196017200,0.36901708984375,0.00035164778819307685,0.0015615200391039252,-0.0015990100800991058
1783696315205980200,0.378980224609375,0.0005430440651252866,0.002636013086885214,-0.0009004502790048718
1783696315215943200,0.388943115234375,0.0016447938978672028,0.0004474273882806301,-0.00043785932939499617
1783696315225907200,0.3989072265625,0.002217596396803856,0.0009146187221631408,-0.001334414933808148
1783696315235870200,0.4088701171875,0.000272423611022532,-0.00022255117073655128,-0.0008071089396253228
1783696315245833200,0.418833251953125,0.001730642281472683,-0.001039095688611269,-0.0008519734255969524
1783696315255797200,0.42879736328125,0.001787101267836988,0.0023196828551590443,-0.0003073570551350713
1783696315265760300,0.43876025390625,0.000282991211861372,0.0012599382316693664,0.00016868615057319403
1783696315275723300,0.44872314453125,0.000872082426212728,0.0011957560200244188,-0.0015554444398730993
1783696315285687300,0.458687255859375,0.0013428122038021684,0.0006593647412955761,-0.00019225687719881535
1783696315295650300,0.468650390625,0.0014962103450670838,-0.0003193470183759928,-0.0012644456000998616
1783696315305613000,0.478613037109375,0.001334012602455914,0.00244023185223341,-0.00019735540263354778
1783696315315577000,0.4885771484375,0.0014597137924283743,0.0011443374678492546,-0.001435725367628038
1783696315325540000,0.4985400390625,0.00276299100369215,0.0013479655608534813,-0.0005136876134201884
1783696315335503000,0.508503173828125,0.001189329195767641,0.00039934751112014055,0.0005403915420174599
1783696315345467100,0.518467041015625,0.000736901187337935,-0.0023243401665240526,-0.001355377840809524
1783696315355430100,0.52843017578125,0.0006189231062307954,0.000003795139491558075,-0.00008345197420567274
1783696315365393200,0.53839306640625,-0.0010830723913386464,0.0007789517985656857,-0.0013837936567142606
1783696315375357200,0.548357177734375,-0.0006202150252647698,-0.000005615409463644028,-0.0014546337770298123
1783696315385320200,0.5583203125,0.00037205792614258826,0.00008338445331901312,0.0006263015675358474
1783696315395283200,0.568283203125,0.0012426453176885843,-0.0016050597187131643,0.0013171255122870207
1783696315405246000,0.578245849609375,0.00016292445070575923,0.002781833987683058,-0.0011537227546796203
1783696315415210200,0.588210205078125,0.0016311252256855369,-0.0022041364572942257,-0.0004964545369148254
1783696315425173000,0.598173095703125,0.0007676223758608103,0.002165003679692745,-0.0010600247187539935
1783696315435136000,0.608135986328125,-0.0007170899771153927,0.0012432835064828396,0.0004380033351480961
1783696315445100000,0.61810009765625,-0.0006000585854053497,-0.004930930212140083,0.00039362971438094974
1783696315455063000,0.62806298828125,-0.001912996987812221,-0.0010445790830999613,-0.0005794892786070704
1783696315465026000,0.638026123046875,-0.0005703914212062955,-0.0017782379873096943,0.002072000876069069
1783696315474990000,0.647989990234375,-0.000706212711520493,-0.0024376369547098875,0.0011747819371521473
1783696315484953000,0.657953125,-0.000931217975448817,-0.0024970867671072483,-0.0014179745921865106
1783696315494916000,0.667916015625,0.0010903875809162855,-0.0014613836538046598,-0.00020810042042285204
1783696315504880000,0.677880126953125,-0.0012216626200824976,0.0005421546520665288,0.00010912842117249966
1783696315514841900,0.687841796875,-0.0005007450236007571,-0.0021188759710639715,0.00005266943480819464
1783696315524804900,0.697804931640625,0.0006305546266958117,-0.0009955433197319508,-0.0017149090999737382
1783696315534769000,0.707768798828125,-0.0008277923916466534,0.0011048917658627033,-0.00024111568927764893
1783696315544732000,0.71773193359375,0.000638725352473557,0.0010419485624879599,-0.0001798500306904316
1783696315554695000,0.72769482421875,0.0001862542994786054,0.0007796271238476038,-0.0004917061887681484
1783696315564659000,0.737658935546875,0.0006421874277293682,-0.001135984668508172,-0.00042832293547689915
1783696315574622000,0.7476220703125,-0.00031974632292985916,0.0007205050205811858,-0.0014198179123923182
1783696315584585000,0.7575849609375,-0.0005665780045092106,0.0034584281966090202,-0.0007839857134968042
1783696315594549000,0.767549072265625,0.0006089412490837276,0.0014775689924135804,-0.002008773386478424
1783696315604512000,0.777511962890625,0.0013014159630984068,0.0006641274085268378,-0.0032174261286854744
1783696315614474800,0.787474853515625,0.00026438114582560956,0.0008071392076089978,-0.0012267130659893155
1783696315624439000,0.79743896484375,0.0026556127704679966,0.0016330357175320387,-0.00011144031304866076
1783696315634401800,0.80740185546875,0.0015472050290554762,0.00044926058035343885,-0.0003942679613828659
1783696315644364800,0.81736474609375,0.0007787338108755648,-0.0005310180131345987,-0.002519652247428894
1783696315654328800,0.827328857421875,0.001627749647013843,0.002598196268081665,-0.0007728849304839969
1783696315664291800,0.837291748046875,0.00016793282702565193,0.0016911430284380913,-0.00039352860767394304
1783696315674254800,0.8472548828125,-0.0002070402551908046,0.0006495807319879532,-0.0012177769094705582
1783696315684219000,0.857218994140625,0.0013349620858207345,0.002861540764570236,-0.0009210036369040608
1783696315694182000,0.867181884765625,0.002258280059322715,0.0020644566975533962,-0.001230729161761701
1783696315704145000,0.877144775390625,0.0013623816194012761,0.002729459200054407,-0.0011101256823167205
1783696315714109000,0.88710888671875,0.0005285459337756038,0.00028094882145524025,0.0003093392006121576
1783696315724072000,0.897072021484375,0.002273246645927429,0.001552751287817955,0.0008411004673689604
1783696315734034700,0.90703466796875,0.0021137234289199114,0.0020582193974405527,-0.00240129791200161
1783696315743997700,0.916997802734375,0.00028318350086919963,0.0003221353981643915,-0.0006192924920469522
1783696315753961700,0.926961669921875,0.00044776685535907745,0.0013469196856021881,-0.0022510113194584846
1783696315763924700,0.9369248046875,0.00021701998775824904,0.0010459518525749445,0.00008769216947257519
1783696315773888000,0.946887939453125,0.0010444640647619963,0.0014227890642359853,-0.0008220436284318566
1783696315783851800,0.956851806640625,0.0005212700925767422,0.0009157539461739361,-0.001014771987684071
1783696315793814800,0.966814697265625,0.0003657414927147329,-0.00008239876478910446,0.0004899140330962837
1783696315803778000,0.976778076171875,-0.0021584024652838707,0.001337865018285811,-0.0009191645076498389
1783696315813741800,0.986741943359375,-0.0004643238498829305,0.00094175199046731,-0.0005251647671684623
1783696315823704800,0.996704833984375,0.000004297617124393582,-0.0014492871705442667,-0.0016751261427998543
1783696315833668000,1.006668212890625,0.0007553090108558536,0.0003105296054854989,-0.00037257408257573843
1783696315843631900,1.0166318359375,-0.0007023769430816174,-0.0007709600031375885,-0.0007908348925411701
1783696315853595000,1.026594970703125,0.001220158999785781,0.0005523646250367165,-0.0005855051567777991
1783696315863558000,1.036557861328125,-0.0009251469746232033,-0.00015768199227750301,0.0012535348068922758
1783696315873522000,1.04652197265625,0.0008506488520652056,-0.0013539737556129694,0.0011581935686990619
1783696315883485000,1.05648486328125,0.0003670843434520066,0.0015056331176310778,-0.001303687458857894
1783696315893448000,1.066447998046875,0.00010742616723291576,-0.0013340956065803766,0.0002574575482867658
1783696315903412000,1.076411865234375,0.0017047246219590306,0.00047348730731755495,-0.0007504939567297697
1783696315913375000,1.086375,0.0005893927300348878,0.0001240805722773075,-0.0002527490723878145
1783696315923338000,1.096337890625,-0.0005132730584591627,-0.001097276108339429,0.0008401277009397745
1783696315933302000,1.106302001953125,0.00023507518926635385,0.0016210124595090747,0.00298636918887496
1783696315943265000,1.11626513671875,-0.0004610302858054638,-0.0031359700951725245,-0.0006814514053985476
1783696315953228000,1.12622802734375,-0.0004810040118172765,0.002011121017858386,0.001370247919112444
1783696315963192000,1.136192138671875,-0.00044785422505810857,0.00182921823579818,-0.00008799193892627954
1783696315973154800,1.14615478515625,-0.00009684959513833746,-0.003707760013639927,0.0013141623931005597
1783696315983117800,1.156117919921875,-0.0003764815046451986,-0.0007340742740780115,0.0006909826770424843
1783696315993081900,1.166081787109375,-0.00002760740608209744,0.000451298663392663,0.0000667377607896924
1783696316003044900,1.176044921875,0.0007466698298230767,0.0023249138612300158,0.000035071163438260555
1783696316013008000,1.1860078125,0.0006880802102386951,-0.0011332007125020027,0.0006840835558250546
1783696316022971000,1.195970947265625,0.0005871450994163752,-0.002691710600629449,-0.0014414024772122502
1783696316032935000,1.205934814453125,0.0002617067948449403,0.0031531290151178837,-0.0003870569635182619
1783696316042898000,1.21589794921875,0.0012555998982861638,0.00045484222937375307,-0.0014309989055618644
1783696316052861000,1.22586083984375,-0.0010893134167417884,-0.0029654554091393948,0.0002973925438709557
1783696316062825000,1.235824951171875,-0.0003475393750704825,0.0009214924648404121,-0.0023301125038415194
1783696316072788000,1.2457880859375,0.001010406413115561,0.00021895056124776602,-0.0006997252348810434
1783696316082750700,1.255750732421875,-0.0002860300592146814,-0.0004625131841748953,-0.0002954773372039199
1783696316092714800,1.26571484375,0.0007531353621743619,-0.0025403115432709455,0.0005111941718496382
1783696316102677800,1.275677734375,-0.0005251819384284317,0.0006115396972745657,-0.001161537365987897
1783696316112640800,1.285640869140625,-0.00007643928984180093,-0.0002076486125588417,-0.00007683178409934044
1783696316122604800,1.295604736328125,-0.00010538269998505712,-0.004010017495602369,0.0009756365325301886
1783696316132567800,1.30556787109375,-0.00013441115152090788,0.00009844102896749973,-0.000033168820664286613
1783696316142530800,1.31553076171875,0.0016453586285933852,0.0005139446584507823,8.605420589447021e-7
1783696316152494800,1.325494873046875,0.00013055253657512367,-0.0011305573862046003,-0.00007770280353724957
1783696316162457900,1.335457763671875,0.00021318430663086474,0.00023201957810670137,0.0012455710675567389
1783696316172420900,1.3454208984375,-0.0010414308635517955,-0.0014407120179384947,0.00046553119318559766
1783696316182385000,1.355385009765625,0.00001857138704508543,-0.00038009812124073505,-0.00011004973202943802
1783696316192348000,1.365347900390625,-0.0025583032984286547,0.0009725214913487434,-0.0006599924527108669
1783696316202311000,1.375310791015625,0.0007641714764758945,-0.0008113565854728222,-0.001987032825127244
1783696316212274000,1.38527392578125,-0.0003343824646435678,0.0016318275593221188,-0.0004708950873464346
1783696316222238000,1.395238037109375,-0.0005258428864181042,0.0011374943424016237,0.0004381006001494825
1783696316232201000,1.405200927734375,-0.001587112550623715,-0.0006295130588114262,-0.0018253199523314834
1783696316242164000,1.4151640625,-0.0005550511996261775,-0.00043045426718890667,0.0006213299930095673
1783696316252128000,1.4251279296875,-0.0009393453365191817,0.0018199168844148517,-0.0001813467824831605
1783696316262091000,1.435091064453125,0.0007938285707496107,0.0013424232602119446,0.000160299357958138
1783696316272054000,1.445053955078125,-0.00002003343979595229,-0.0005758516490459442,0.0007552495226264
1783696316282018000,1.45501806640625,0.0003177837934345007,0.0008420351659879088,-0.00040017394348978996
1783696316291981000,1.46498095703125,-0.0004015360027551651,-0.0004919422790408134,0.0010975878685712814
1783696316301943800,1.47494384765625,0.00041663998854346573,-0.00017700251191854477,-0.0007472934667021036
1783696316311908000,1.484908203125,-0.0003879009746015072,0.0010216862428933382,0.000035409582778811455
1783696316321870800,1.494870849609375,0.0018503271276131272,-0.002473109634593129,-0.00020847399719059467
1783696316331833900,1.504833740234375,-0.0005494472570717335,0.0020625200122594833,-0.00016320019494742155
1783696316341798000,1.5147978515625,-0.00040789550985209644,0.00014529051259160042,0.0003618534537963569
1783696316351761000,1.524760986328125,0.00021661576465703547,-0.000674430513754487,-0.00029461574740707874
1783696316361724000,1.534723876953125,-0.0017671630484983325,-0.0006707415450364351,-0.0006991280242800713
1783696316371688000,1.54468798828125,-0.00030189190874807537,-0.001408170908689499,0.00025588151765987277
1783696316381651000,1.55465087890625,0.0004832303093280643,-0.00031549809500575066,-0.0010314153041690588
1783696316391614000,1.564614013671875,0.0015540873864665627,0.000436045927926898,0.0012336031068116426
1783696316401577000,1.574576904296875,-0.0011964254081249237,0.00037292903289198875,-0.0004926578840240836
1783696316411541000,1.584541015625,0.00015033516683615744,0.0009668139973655343,0.0009755428181961179
1783696316421503700,1.594503662109375,-0.0004121886449865997,-0.0002277567982673645,-0.00014637468848377466
1783696316431466800,1.604466796875,0.0007236495148390532,0.002157103968784213,0.000036051846109330654
1783696316441430800,1.6144306640625,-0.0001752636453602463,0.0008462147088721395,-0.00027769349981099367
1783696316451393800,1.624393798828125,0.000755511166062206,0.00018175598233938217,-0.0008771709399297833
1783696316461356800,1.634356689453125,-0.0005492353811860085,-0.00006925687193870544,0.0007974966429173946
1783696316471320800,1.64432080078125,-0.00022406340576708317,0.0015158565947785974,0.001437720493413508
1783696316481283800,1.654283935546875,-0.00030118919676169753,-0.0012303530238568783,-0.00031086476519703865
1783696316491246800,1.664246826171875,0.00023810091079212725,0.0001952372258529067,-0.00023017101921141148
1783696316501211000,1.6742109375,-0.0001377130683977157,-0.0005820386577397585,-0.00009180488996207714
1783696316511174000,1.684173828125,-0.00009297196811530739,-0.001255818409845233,0.0006179275806061924
1783696316521137400,1.694137451171875,0.00005118058470543474,-0.0013395759742707014,-0.0003142136847600341
1783696316531100200,1.70410009765625,0.0015830309130251408,-0.00018296507187187672,0.0009760878747329116
1783696316541064400,1.714064453125,-0.0014462298713624477,-0.00009472202509641647,-0.000043648877181112766
1783696316551027200,1.724027099609375,-0.0021277328487485647,-0.0016284363809973001,0.0005020328098908067
1783696316560990200,1.733990234375,0.0002662608167156577,0.0005464558489620686,0.00010317825945094228
1783696316570954200,1.743954345703125,-0.0005995327956043184,0.000550983240827918,-0.0001612736377865076
1783696316580917200,1.753917236328125,-0.001403540256433189,0.001114100101403892,0.0011405630502849817
1783696316590880500,1.763880615234375,-0.00024373363703489304,0.00017666746862232685,-0.0008602698799222708
1783696316600844300,1.77384423828125,-0.00023739930475130677,-0.00006070232484489679,0.0001291175140067935
1783696316610807300,1.783807373046875,0.000040901024476625025,0.0011845917906612158,0.0002758576883934438
1783696316620770600,1.7937705078125,-0.0010847827652469277,-0.0006025002803653479,0.000880393956322223
1783696316630734300,1.803734375,-0.00002750778367044404,0.000732275890186429,0.0009230045252479613
1783696316640697600,1.813697509765625,0.0003892976092174649,0.0022344866301864386,0.0007849448011256754
1783696316650660400,1.823660400390625,-0.0015071392990648746,-0.0006907295901328325,-0.000659553799778223
1783696316660624400,1.833624267578125,-0.0007465920061804354,0.0013564839027822018,0.0007685641758143902
1783696316670587400,1.84358740234375,-0.000036593221011571586,-0.001990044256672263,0.0003994500730186701
1783696316680550400,1.85355029296875,-0.0003772276686504483,0.0012966941576451063,-0.0018644753145053983
1783696316690513400,1.863513427734375,-0.00015831584460102022,0.00015899178106337786,-0.00031371647492051125
1783696316700477400,1.8734775390625,0.0014418516075238585,-0.001545275212265551,-0.0011764650698751211
1783696316710440400,1.8834404296875,-0.00025191885652020574,-0.000650186906568706,-0.00006486172787845135
1783696316720403500,1.893403564453125,0.0016111246077343822,-0.0022484352812170982,-0.000978016760200262
1783696316730367500,1.903367431640625,-0.00042219876195304096,0.0009558800957165658,0.0005439798114821315
1783696316740330500,1.91333056640625,0.0006809720071032643,0.0008345406968146563,0.0005391224985942245
1783696316750293500,1.92329345703125,0.001996839651837945,-0.0011513784993439913,-0.0011205595219507813
1783696316760257500,1.933257568359375,0.00018243968952447176,0.0014431198360398412,0.0011535849189385772
1783696316770220300,1.94322021484375,-0.0006151770940050483,-0.0013579929945990443,0.0018880846910178661
1783696316780183300,1.953183349609375,-0.0007691687205806375,0.0007510047871619463,0.0006672600284218788
1783696316790147300,1.963147216796875,-0.00024931965162977576,-0.00012357730884104967,-0.00027896108804270625
1783696316800110300,1.9731103515625,0.0025315447710454464,0.0007614947389811277,-0.00002287188544869423
1783696316810073300,1.9830732421875,0.0006124710198491812,0.0019330192590132356,-0.0014958662213757634
1783696316820036400,1.993036376953125,0.0004294812388252467,-0.0011432416504248977,-0.0007727723568677902
1783696316830000400,2.00300048828125,0.0010902115609496832,0.0007124490803107619,-0.0010627905139699578
1783696316839963400,2.01296337890625,0.0006238818168640137,0.0013297668192535639,0.00035664939787238836
1783696316849926400,2.022926513671875,0.0004965827683918178,-0.0004755902336910367,-0.0012385840527713299
1783696316859890400,2.032890380859375,-0.000689381267875433,-0.00025471393018960953,0.0012841903371736407
1783696316869853400,2.042853515625,-0.0007873856229707599,0.00006007170304656029,0.0014844599645584822
1783696316879816200,2.052816162109375,-0.001271135755814612,-0.0005398934008553624,0.00017411145381629467
1783696316889780200,2.0627802734375,-0.0006178624462336302,0.000865989422891289,0.0002976821269840002
1783696316899743200,2.0727431640625,0.0005141841247677803,0.00007095944602042437,0.000010855612345039845
1783696316909706200,2.082706298828125,-0.002303972840309143,0.0014174537500366569,-0.0019268603064119816
1783696316919670300,2.092670166015625,-0.00025495915906503797,-0.0013006413355469704,-0.00079427903983742
1783696316929633300,2.10263330078125,-0.0007407197263091803,0.0019931562710553408,0.0002254453138448298
1783696316939596300,2.11259619140625,-0.0013867025263607502,0.0000778308603912592,0.0009131921688094735
1783696316949560300,2.122560302734375,0.00022797207930125296,-0.0020457736682146788,0.0005502033745869994
1783696316959523300,2.1325234375,-7.548078428953886e-7,-0.0004905870882794261,0.0006971451221033931
1783696316969486600,2.142486572265625,0.0005875374772585928,-0.0014788861153647304,0.0007991442107595503
1783696316979449300,2.152449462890625,-0.0008679835591465235,0.00005015358328819275,0.00042166857747361064
1783696316989413400,2.162413330078125,0.0014609508216381073,0.0007058238843455911,0.00016600510571151972
1783696316999376400,2.17237646484375,0.00032523710979148746,-0.0006502752657979727,0.0009231168078258634
1783696317009339400,2.18233935546875,0.00024001594283618033,0.001440838910639286,-0.0005781070794910192
1783696317019303400,2.192303466796875,-0.0006503507611341774,-0.00010405550710856915,0.00041235063690692186
1783696317029266400,2.202266357421875,0.00021757345530204475,-0.0010686523746699095,-0.0008036487270146608
1783696317039229400,2.2122294921875,0.0009817479876801372,0.0009676128975115716,0.00044526602141559124
1783696317049193500,2.222193359375,-0.000256621977314353,0.00015960983000695705,0.001289221690967679
1783696317059156500,2.232156494140625,0.0014947159215807915,0.0009534927667118609,0.00021692807786166668
1783696317069119500,2.242119384765625,0.0010188089217990637,-0.0012167171807959676,-0.0004461990902200341
1783696317079083500,2.25208349609375,-0.0001243693841388449,0.0002518589608371258,-0.002340256003662944
1783696317089046500,2.262046630859375,-0.00019441051699686795,0.001900888280943036,-0.0008571417420171201
1783696317099009300,2.27200927734375,0.0014647017233073711,0.00007676216773688793,-0.000020483857952058315
1783696317108972300,2.28197216796875,0.0005483080167323351,0.0010528105776757002,-0.0016583279939368367
1783696317118936300,2.291936279296875,-0.000248099269811064,-0.0016296161338686943,0.0012828247854486108
1783696317128899300,2.3018994140625,-0.0006451765657402575,0.001087074400857091,-0.0019457254093140364
1783696317138862300,2.3118623046875,0.0007736759725958109,0.0008682048064656556,0.000840358785353601
1783696317148826400,2.321826416015625,0.000268207979388535,-0.0012159851612523198,-0.0018574234563857317
1783696317158789400,2.331789306640625,-0.00022285472368821502,-0.0004102709935978055,-0.0011501256376504898
1783696317168752400,2.34175244140625,-0.00005587451596511528,-0.001896581263281405,0.00008291791891679168
1783696317178716400,2.35171630859375,0.0004062355437781662,0.0005706475349143147,-0.0016958185005933046
1783696317188679400,2.361679443359375,0.00020916163339279592,0.0002603892935439944,-0.0001131019089370966
1783696317198642400,2.371642333984375,-0.00021172911510802805,-0.0006905818590894341,-0.0014026074204593897
1783696317208606500,2.3816064453125,-0.00033077242551371455,0.0008372736629098654,0.000024846987798810005
1783696317218569200,2.3915693359375,-0.0025070735719054937,-0.0003689199220389128,0.0007772010285407305
1783696317228532200,2.4015322265625,0.0001270590873900801,-0.00028769357595592737,0.001001705531962216
1783696317238495200,2.4114951171875,0.0011573006631806493,0.0007526384433731437,-0.0010984080145135522
1783696317248459300,2.421459228515625,-0.000628615147434175,-0.0006452547386288643,0.0014350571436807513
1783696317258422300,2.43142236328125,0.0018947405042126775,0.0011378577910363674,-0.0014281056355684996
1783696317268385500,2.441385498046875,0.0005948516773059964,-0.0007987930439412594,-0.00023181363940238953
1783696317278349300,2.451349365234375,-0.0009768492309376597,-0.001137607148848474,-0.0007518851198256016
1783696317288312300,2.461312255859375,-0.00027031253557652235,0.0000743974233046174,-0.0015497681451961398
1783696317298275600,2.471275634765625,-0.001020589959807694,-0.001178813399747014,0.00004271912621334195
1783696317308239400,2.4812392578125,-0.0001619868417037651,0.0008087036549113691,0.0002866646973416209
1783696317318202400,2.491202392578125,-0.0003515033458825201,-0.00014906958676874638,-0.00020253041293472052
1783696317328165400,2.501165283203125,-0.0004013044526800513,0.0004517395282164216,-0.000796149019151926
1783696317338129400,2.51112939453125,-0.00039122215821407735,-0.00022156955674290657,-0.0000306200236082077
1783696317348092400,2.521092529296875,0.0006660528015345335,-0.001788040972314775,0.0014724680222570896
1783696317358055400,2.531055419921875,-0.000555260747205466,0.0012212011497467756,-0.00005632336251437664
1783696317368018400,2.541018310546875,-0.0004750996013171971,-0.001211063819937408,-0.00046751543413847685
1783696317377982500,2.550982421875,0.00026642833836376667,-0.0015458778943866491,0.0001869833213277161
1783696317387945500,2.560945556640625,0.0003726885188370943,0.00018091569654643536,-0.0004372616531327367
1783696317397908500,2.570908447265625,0.0005563130252994597,-0.0014609823701903224,-0.0015082542086020112
1783696317407872500,2.58087255859375,0.0031715373042970896,0.0013140314258635044,-0.00026668852660804987
1783696317417835500,2.59083544921875,0.0009546827059239149,-0.0012290802551433444,-0.000489691854454577
1783696317427798300,2.60079833984375,0.002231135731562972,0.0005584333557635546,-0.0007485511014238
1783696317437762600,2.610762451171875,-0.001026117941364646,0.0004246663302183151,-0.0005304334918037057
1783696317447725300,2.620725341796875,-0.0007853681454434991,0.0003666094271466136,-0.0005171176744624972
1783696317457688300,2.630688232421875,-0.0003027037309948355,0.0013257639948278666,0.0004339573788456619
1783696317467652400,2.64065234375,-0.0006073693512007594,-0.00038185494486242533,0.0007442156784236431
1783696317477615400,2.650615478515625,0.0011077920207753778,-0.00011169014032930136,0.0006481225718744099
1783696317487578400,2.660578369140625,0.0003647700068540871,-0.0007926604012027383,-0.000672538997605443
1783696317497541400,2.670541259765625,-0.00004690057539846748,-0.0015719395596534014,-0.0003700528759509325
1783696317507505400,2.68050537109375,0.0006982518825680017,0.0011056024814024568,-0.0012909740908071399
1783696317517468000,2.690468017578125,0.001509904395788908,0.0001400904729962349,-0.00014665024355053902
1783696317527431000,2.700430908203125,-0.00029385462403297424,0.0005699247121810913,-0.0010835503926500678
1783696317537395000,2.71039501953125,0.0010597379878163338,0.0013019974576309323,0.0005378409405238926
1783696317547358000,2.72035791015625,0.0009569400572218001,-0.00016806740313768387,-0.0005125097231939435
1783696317557321000,2.730321044921875,0.000538185122422874,0.000802613387349993,-0.0014310823753476143
1783696317567285000,2.740284912109375,-0.0008732902351766825,0.00019434746354818344,0.0009308751905336976
1783696317577248000,2.750248046875,0.00026485981652513146,0.0012038593413308263,0.00012794422218576074
1783696317587211000,2.7602109375,0.00009255329496227205,0.0008589799981564283,-0.0006409103516489267
1783696317597175000,2.770175048828125,-0.00232092197984457,-0.0009160768240690231,-0.0001941298833116889
1783696317607138000,2.780137939453125,0.001234930707141757,0.0010373517870903015,-0.0022165344562381506
1783696317617101000,2.79010107421875,0.0012205225648358464,-0.0009260277729481459,-0.00026277208235114813
1783696317627064000,2.80006396484375,-0.0003957498411182314,0.0010066281538456678,0.00096334726549685
1783696317637028000,2.810028076171875,-0.0004903562949039042,0.001885328209027648,0.0007855205330997705
1783696317646991000,2.8199912109375,0.0004364237829577178,-0.001461732666939497,0.00007419020403176546
1783696317656954000,2.8299541015625,-0.00019029354734811932,0.00011818879283964634,-0.0003271134337410331
1783696317666918100,2.839918212890625,0.0001457973849028349,0.00006066448986530304,-0.0008941004052758217
1783696317676881200,2.849881103515625,-0.000059893136494793,-0.000005168258212506771,-0.003182565327733755
1783696317686844200,2.85984423828125,-0.0019097249023616314,-0.00008213368710130453,-0.0013409891398623586
1783696317696808200,2.86980810546875,0.00007931634900160134,-0.0028756263200193644,-0.0007598389638587832
1783696317706771200,2.879771240234375,-0.0006157687166705728,0.0008674464770592749,-0.0006557094166055322
1783696317716734200,2.889734130859375,-0.00037579634226858616,-0.00038005306851118803,0.0005370463477447629
1783696317726697000,2.899697021484375,0.00011316002928651869,-0.0004415722796693444,-0.002086433582007885
1783696317736661000,2.909660888671875,0.0005668558878824115,-0.000058298115618526936,0.0005224963533692062
1783696317746624000,2.9196240234375,-0.00036418522358871996,-0.0018870908534154296,0.00030544871697202325
1783696317756587000,2.9295869140625,0.000693702488206327,0.0018824978033080697,-0.0010082315420731902
1783696317766551000,2.939551025390625,0.00043910430395044386,-0.0016499189659953117,-0.0006479058647528291
1783696317776514000,2.94951416015625,-0.00039048370672389865,-0.0015556700527668,0.0002108837361447513
1783696317786477000,2.95947705078125,-0.0015681335935369134,-0.0006744300480931997,0.00039490818744525313
1783696317796441000,2.969441162109375,0.000236998574109748,0.00017839844804257154,-0.0025686200242489576
1783696317806404000,2.979404052734375,-0.0010434492724016309,-0.0008775448659434915,0.000833568163216114
1783696317816367000,2.9893671875,0.000109372369479388,-0.0011752701830118895,-0.0013042176142334938
1783696317826331100,2.9993310546875,-0.00008077733218669891,0.000563241308555007,-0.0003699806984513998
1783696317836294100,3.009294189453125,0.0008309466065838933,0.00038911530282348394,0.0001972660538740456
1783696317846257000,3.0192568359375,0.0001576994836796075,-0.001169366529211402,-0.00019794702529907227
1783696317856220000,3.029219970703125,0.0005638276925310493,0.000179921742528677,0.0005641965544782579
1783696317866184000,3.039183837890625,-0.0006170179112814367,-0.00013859232421964407,-0.000568712130188942
1783696317876147000,3.04914697265625,0.0006647240952588618,-0.0011731311678886414,0.0000869090436026454
1783696317886110000,3.05910986328125,-0.00033609181991778314,0.001651683822274208,-0.00016449333634227514
1783696317896074000,3.069073974609375,0.0009866534965112805,-0.000007342081516981125,-0.0017032845644280314
1783696317906037000,3.079037109375,0.0008713387069292367,-0.00018683914095163345,-0.0008942162385210395
1783696317916000000,3.089,-0.0006078584119677544,0.001303261611610651,-0.0009805370355024934
1783696317925964000,3.098964111328125,-0.000595075252931565,-0.00010954530443996191,-0.000053756870329380035
1783696317935927000,3.108927001953125,-0.0007230937480926514,0.000057003810070455074,0.00014020857634022832
1783696317945890000,3.11889013671875,0.0000819798733573407,-0.00098109629470855,-0.001336514251306653
1783696317955853000,3.12885302734375,-0.00046418170677497983,0.0009355904185213149,-0.0013464061776176095
1783696317965817000,3.138817138671875,0.0009297167416661978,-0.0005347408587113023,-0.00011762359645217657
1783696317975780000,3.148780029296875,-0.0002496226807124913,-0.001994335325434804,0.0008789359126240015
1783696317985743000,3.1587431640625,0.000908586080186069,-0.0006774021312594414,0.0010642919223755598
1783696317995707100,3.16870703125,0.00032687533530406654,0.0016168111469596624,-0.00047603785060346127
1783696318005670100,3.178670166015625,-0.0006443795282393694,0.0015158773167058825,0.00016871350817382336
1783696318015633200,3.188633056640625,-0.0005418256623670459,-0.00047114817425608635,0.0010269699851050973
1783696318025597200,3.19859716796875,-0.00026086217258125544,-0.0005648916121572256,0.0008874203776940703
1783696318035560200,3.208560302734375,-0.0000249571239692159,0.002798034343868494,0.0004756018170155585
1783696318045523200,3.218523193359375,-0.002056416356936097,-0.0016084319213405252,-0.00016302417498081923
1783696318055487200,3.2284873046875,0.0018498948775231838,-0.00003263680264353752,0.0015763830160722136
1783696318065450000,3.238449951171875,0.0011984857264906168,-0.0005181309534236789,-0.0015890501672402024
1783696318075413000,3.2484130859375,0.00022236970835365355,-0.00007830851245671511,-0.0014198165154084563
1783696318085376000,3.2583759765625,0.0006439480930566788,0.0008348893607035279,-0.000055745476856827736
1783696318095340000,3.268340087890625,0.00018038260168395936,-0.0012134131975471973,-0.00015907129272818565
1783696318105303000,3.278302978515625,0.0003846470208372921,0.0001708980416879058,-0.0007055519381538033
1783696318115266000,3.28826611328125,-0.0001485875982325524,-0.00015924125909805298,-0.0005038270028308034
1783696318125230000,3.29822998046875,-0.001074302359484136,-0.0006990639958530664,-0.0021163709461688995
1783696318135193000,3.308193115234375,0.0014446013374254107,0.0018831283086910844,-0.00015759654343128204
1783696318145156000,3.318156005859375,0.0002387220156379044,-0.002054621698334813,-0.0002896892838180065
1783696318155120000,3.3281201171875,0.0007958151982165873,-0.0011936211958527565,-0.00011480867397040129
1783696318165083100,3.338083251953125,0.0005952791543677449,0.00008150027133524418,-0.0007044324884191155
1783696318175046000,3.3480458984375,-0.0007982614915817976,0.0003917102003470063,-0.0009855141397565603
1783696318185009000,3.3580087890625,-0.0005982581060379744,-0.0008676985744386911,0.0006177089526318014
1783696318194973000,3.367972900390625,-0.00002064205182250589,-0.001057400368154049,0.001055873348377645
1783696318204936000,3.37793603515625,0.0003988058306276798,0.0008156007388606668,-0.00040433788672089577
1783696318214899000,3.38789892578125,-0.00022595742484554648,-0.0010816516587510705,0.0008016247302293777
1783696318224863000,3.397863037109375,-0.00008933727076509967,-0.001622539828531444,0.00038111157482489944
1783696318234826000,3.407825927734375,0.0002625361375976354,0.0006823816220276058,0.0018563105259090662
1783696318244789200,3.417789306640625,0.0006622766377404332,-0.001394085120409727,-0.00016130029689520597
1783696318254753000,3.4277529296875,0.0014831292210146785,-0.0013571105664595962,0.000588571943808347
1783696318264716000,3.437716064453125,0.0002420961536699906,-0.0006726783467456698,-0.001202670275233686
1783696318274679000,3.447678955078125,-0.00025696223019622266,0.00032132992055267096,-0.0017091475892812014
1783696318284642000,3.45764208984375,-0.000756304943934083,0.00006460119038820267,-0.0019829205702990294
1783696318294606000,3.467606201171875,-0.0009328293381258845,-0.002016740385442972,0.00037073990097269416
1783696318304569000,3.477569091796875,-0.00029340438777580857,0.00027437706012278795,-0.002279637847095728
1783696318314532000,3.487531982421875,-0.002217909786850214,0.0002968617482110858,0.0013027738314121962
1783696318324496100,3.49749609375,-0.001953990664333105,-0.0037785738240927458,-0.001441347412765026
1783696318334459100,3.507459228515625,0.00004123654798604548,-0.00048783200327306986,-0.0002797620836645365
1783696318344422100,3.517422119140625,-0.00017048475274350494,0.0015889010392129421,-0.0011839051730930805
1783696318354386200,3.52738623046875,0.00027106734341941774,0.00055346405133605,-0.0019959029741585255
1783696318364349200,3.53734912109375,-0.0007851697155274451,0.0006180784548632801,-0.002657458186149597
1783696318374312200,3.547312255859375,0.0006635036552324891,0.001053079031407833,-0.0017584760207682848
1783696318384275000,3.55727490234375,0.00012288194557186216,0.0035415366291999817,-0.0004316892009228468
1783696318394239000,3.567239013671875,0.0020305670332163572,-0.00019008503295481205,-0.00023784581571817398
1783696318404202000,3.577201904296875,0.0007357380818575621,0.000259190215729177,-0.001969965873286128
1783696318414165000,3.5871650390625,0.0014554252848029137,0.0033361613750457764,-0.00023685023188591003
1783696318424129000,3.59712890625,0.00027591126854531467,0.002658919431269169,0.001459050690755248
1783696318434092000,3.607092041015625,-2.2593303583562374e-7,0.0010579504305496812,-0.000022568274289369583
1783696318444055000,3.617054931640625,0.0019524036906659603,-0.00003900565207004547,-0.0013043476501479745
1783696318454019000,3.62701904296875,-0.00047434831503778696,-0.0003492721589282155,-0.0012255124747753143
1783696318463982000,3.636982177734375,0.0006886541377753019,0.0011911002220585942,0.001379059161990881
1783696318473945000,3.646945068359375,-0.0007290649227797985,-0.0015221505891531706,-0.0005125579191371799
1783696318483909000,3.6569091796875,0.0007615063223056495,0.0004970581503584981,-0.0004899209598079324
1783696318493872000,3.6668720703125,-0.0002761578653007746,0.0020545965526252985,-0.002259319182485342
1783696318503835000,3.6768349609375,0.0008982961298897862,0.002852745819836855,-0.000888323993422091
1783696318513798000,3.6867978515625,-0.0010398707818239927,0.0003662160597741604,-0.000504249008372426
1783696318523762200,3.69676220703125,0.000997181050479412,-0.000577874481678009,-0.0013239700347185135
1783696318533725200,3.70672509765625,-0.00028399034636095166,0.0012334464117884636,0.0007360737072303891
1783696318543688200,3.716688232421875,-0.0005135548417456448,-0.00030745856929570436,0.0004742849851027131
1783696318553652200,3.72665234375,0.001849298132583499,-0.0001864784862846136,-0.001049020909704268
1783696318563615200,3.736615234375,0.0006910893716849387,0.0010929041309282184,-0.003234677482396364
1783696318573578200,3.746578125,-0.00007757114508422092,0.0013379680458456278,-0.00014309189282357693
1783696318583542300,3.756542236328125,-0.0008999552810564637,0.0029190867207944393,-0.001125532086007297
1783696318593505300,3.76650537109375,0.0012921462766826153,-0.0014638446737080812,-0.0016323281452059746
1783696318603468300,3.77646826171875,0.0007696341490373015,0.0015319453086704016,-0.001510887872427702
1783696318613431300,3.786431396484375,-0.00030551853706128895,0.0011877375654876232,0.00045624986523762345
1783696318623395300,3.796395263671875,0.0007767901406623423,-0.00037021178286522627,0.000618702732026577
1783696318633358300,3.8063583984375,0.00022838709992356598,-0.0005989924538880587,-0.0011331149144098163
1783696318643321300,3.8163212890625,0.0011317313183099031,-0.0009806235320866108,0.0009537380537949502
1783696318653285400,3.826285400390625,-0.0015594151336699724,-0.0009606116218492389,0.0017987441970035434
1783696318663248400,3.836248291015625,-0.002060621976852417,-0.00011745479423552752,0.0005313458386808634
1783696318673211400,3.84621142578125,0.0003060189774259925,-0.001507874927483499,-0.00036962353624403477
1783696318683175400,3.856175537109375,-0.002173650311306119,0.0008237225119955838,0.0004162753466516733
1783696318693138400,3.866138427734375,0.0004597432562150061,0.0000027067726477980614,0.0014750165864825249
1783696318703101200,3.87610107421875,-0.0007882140344008803,-0.0004271273501217365,0.000466477416921407
1783696318713064200,3.886064208984375,-0.0005673191626556218,-0.0010101438965648413,0.00003191106952726841
1783696318723028200,3.8960283203125,-0.0002831598976626992,-0.002292456105351448,-0.0007209646282717586
1783696318732991200,3.9059912109375,-0.00005328286351868883,0.0012960074236616492,0.00005862489342689514
1783696318742954200,3.915954345703125,0.000056971999583765864,0.0001071724109351635,-0.0012585746590048075
1783696318752918300,3.925918212890625,-0.0014789607375860214,0.0014661244349554181,-0.001005321741104126
1783696318762881300,3.93588134765625,0.000884861103259027,0.0018698596395552158,-0.0010758955031633377
1783696318772844300,3.94584423828125,0.001627823687158525,0.0012664884561672807,-0.000793851213529706
1783696318782808300,3.955808349609375,0.00165472156368196,0.0020015209447592497,-0.0016284857410937548
1783696318792771300,3.965771240234375,0.0014963294379413128,0.0005143714370205998,0.0008858628571033478
1783696318802734300,3.975734375,0.0005250746617093682,-0.0004467633552849293,0.0005793330492451787
1783696318812697000,3.985697021484375,-0.0004995547933503985,0.0006461009616032243,0.0025953571312129498
1783696318822661000,3.9956611328125,-0.0008436351781710982,-0.0015811007469892502,0.0017458086367696524
1783696318832624000,4.0056240234375,-0.0011746425880119205,-0.0003120757173746824,0.0003655847394838929
1783696318842587100,4.015587158203125,-0.0003037889255210757,-0.0010521681979298592,0.0010116675402969122
1783696318852551200,4.02555126953125,0.0007863721111789346,-0.0008693720446899533,0.001370041980408132
1783696318862514200,4.03551416015625,-0.0013771799858659506,-0.0004275537794455886,0.00012554682325571775
1783696318872477200,4.045477294921875,0.000555636128410697,-0.0007729954086244106,-0.0008093022042885423
1783696318882441200,4.055441162109375,0.0007471173885278404,0.0007796275895088911,-0.0006513767875730991
1783696318892404200,4.065404296875,0.00006387438043020666,0.0003908508224412799,-0.0007140610832720995
1783696318902367200,4.0753671875,0.0013507137773558497,0.0019357504788786173,-0.0007319041760638356
1783696318912330200,4.085330322265625,0.001056537963449955,-0.0001970434095710516,-0.001318862079642713
1783696318922294300,4.095294189453125,-0.0009301802492700517,-0.0023627260234206915,-0.000055192154832184315
1783696318932257300,4.10525732421875,-0.00010109928552992642,0.0016777057899162173,0.0006097281002439559
1783696318942220300,4.11522021484375,0.0010592399630695581,0.0013221737463027239,-0.001263805665075779
1783696318952184300,4.125184326171875,0.00033393356716260314,0.000276029109954834,-0.0018168269889429212
1783696318962147300,4.135147216796875,0.0011688345111906528,0.0009615267626941204,-0.0018450565403327346
1783696318972110300,4.1451103515625,0.00017604129971005023,-0.000005022622644901276,-0.001000843709334731
1783696318982073300,4.1550732421875,0.0016146809794008732,0.002245082287117839,-0.0020464006811380386
1783696318992037400,4.165037353515625,0.001381529844366014,0.00001161650288850069,-0.0002984851598739624
1783696319002000400,4.17500048828125,0.0006696669152006507,0.0006973805138841271,-0.0015730740269646049
1783696319011963400,4.18496337890625,0.0005962133873254061,0.0023350678384304047,-0.00032043771352618933
1783696319021927400,4.194927490234375,0.0013349743094295263,0.0003222506493330002,0.00018529663793742657
1783696319031890200,4.20489013671875,-0.00030914717353880405,0.0014338504988700151,-0.0016302380245178938
1783696319041853200,4.214853271484375,-0.0007246002787724137,0.0009848414920270443,-0.0004504575626924634
1783696319051817200,4.224817138671875,0.0010369977680966258,0.00028738228138536215,-0.0013191528851166368
1783696319061780200,4.2347802734375,0.0014156992547214031,0.0011949875624850392,-0.00011034402996301651
1783696319071743200,4.2447431640625,-0.00026658421847969294,-0.0008510486222803593,-0.000872880220413208
1783696319081707300,4.254707275390625,0.0012128017842769623,0.001723162829875946,-0.0022939429618418217
1783696319091670300,4.264670166015625,-0.0000494081323267892,0.002168996026739478,-0.00017660867888480425
1783696319101633300,4.27463330078125,-0.00024035677779465914,-0.0001247846521437168,-0.0009457295527681708
1783696319111596300,4.28459619140625,0.0011113787768408656,0.00257503567263484,-0.0025827623903751373
1783696319121560300,4.294560302734375,-0.0009805342415347695,-0.002147015416994691,0.00007773551624268293
1783696319131523300,4.3045234375,0.0003079435555264354,0.001324367243796587,-0.0012081046588718891
1783696319141486000,4.314486083984375,-0.0003932667605113238,-0.0021912716329097748,0.0017352210124954581
1783696319151450000,4.3244501953125,0.0002403811813564971,-0.00087147974409163,0.00048113911179825664
1783696319161413000,4.3344130859375,0.00027287175180390477,-0.000016072415746748447,0.00182683439925313
1783696319171376000,4.344376220703125,0.00034508510725572705,-0.002452705055475235,0.0015245904214680195
1783696319181340200,4.354340087890625,0.00007717112021055073,-0.0008907610317692161,0.0003131184494122863
1783696319191303200,4.36430322265625,-0.0015364321880042553,0.00046030874364078045,0.0028353112284094095
1783696319201266200,4.37426611328125,-0.0008727724780328572,-0.0015836674720048904,-0.0012406567111611366
1783696319211229400,4.3842294921875,0.0013342967722564936,-0.0001329841325059533,-0.0002681988989934325
1783696319221193200,4.394193115234375,0.002210476901382208,-0.001232336973771453,-0.0004160043317824602
1783696319231156200,4.40415625,0.0009801228297874331,0.0018178498139604926,-0.002501999493688345
1783696319241119200,4.414119140625,-0.000034541546483524144,0.0013201050460338593,-0.0002939724363386631
1783696319251083300,4.424083251953125,0.0002854812773875892,-0.0014682977925986052,-0.0012578985188156366
1783696319261046300,4.43404638671875,0.00015072530368342996,0.001786617562174797,0.0010601170361042023
1783696319271009300,4.44400927734375,-0.000003864523023366928,-0.0006428491324186325,0.000008105183951556683
1783696319280973300,4.453973388671875,0.00028855056734755635,-0.00039011496119201183,-0.001412957557477057
1783696319290936300,4.463936279296875,0.00039537707925774157,-0.0013677938841283321,0.0016902682837098837
1783696319300899300,4.4738994140625,-0.000027000278350897133,-0.0012450222857296467,0.0019198327790945768
1783696319310863400,4.48386328125,0.00013582487008534372,0.001091676764190197,-0.00023301830515265465
1783696319320826400,4.493826416015625,-0.000977376475930214,-0.0013440502807497978,-0.0002857488580048084
1783696319330789400,4.503789306640625,0.00045372016029432416,0.0012510253582149744,-0.000522727845236659
1783696319340752400,4.51375244140625,-0.0010171437170356512,0.0018142838962376118,0.003207561792805791
1783696319350716400,4.52371630859375,-0.00010646203736541793,0.0001200708793476224,-0.0004940222715958953
1783696319360679200,4.53367919921875,-0.0006337679224088788,0.00040556176099926233,-0.0001312997192144394
1783696319370642200,4.54364208984375,0.0013145690318197012,0.0006462517776526511,0.00003596546594053507
1783696319380606200,4.553606201171875,0.0015598461031913757,0.003076652530580759,-0.0014681878965348005
1783696319390569200,4.5635693359375,0.0012691263109445572,0.002322167856618762,-0.0020992024801671505
1783696319400532200,4.5735322265625,0.0010704544838517904,-0.00017507828306406736,-0.0012206254759803414
1783696319410496300,4.583496337890625,-0.00014936871593818069,0.001647861790843308,-0.0013905602972954512
1783696319420459300,4.593459228515625,0.00044265197357162833,0.0001985696144402027,-0.0002714999718591571
1783696319430422300,4.60342236328125,0.0016128072747960687,-0.0008503426797688007,0.0009761693654581904
1783696319440386300,4.61338623046875,-0.00009454533574171364,-0.0009603311773389578,0.0012193159200251102
1783696319450349300,4.623349365234375,0.0013432909036055207,0.0003519419115036726,-0.00032091152388602495
1783696319460312300,4.633312255859375,0.0003786938905250281,0.00077245500870049,0.0006237117340788245
1783696319470275000,4.643275146484375,-0.0004398683086037636,-0.0023832027800381184,-0.00016465724911540747
1783696319480239000,4.653239013671875,0.00022192721371538937,0.000768914760556072,-0.0023338019382208586
1783696319490202000,4.6632021484375,0.0016679721884429455,0.0013757457491010427,-0.0009141016053035855
1783696319500165000,4.6731650390625,0.000483930780319497,-0.0014890165766701102,-0.0020102588459849358
1783696319510129200,4.683129150390625,0.0011136096436530352,0.0005433122860267758,-0.0007795504061505198
1783696319520091400,4.69309130859375,0.0011892435140907764,-0.0013310204958543181,-0.0013678426621481776
1783696319530054400,4.703054443359375,0.0011943771969527006,0.0004073281306773424,-0.0005289961118251085
1783696319540018400,4.713018310546875,0.0005754585145041347,-0.0016710027121007442,0.00043293769704177976
1783696319549981400,4.7229814453125,0.0009625329985283315,-0.0020539346151053905,0.00008521345444023609
1783696319559944400,4.7329443359375,-0.0018870492931455374,-0.0009135690052062273,0.0007214426877908409
1783696319569908500,4.742908447265625,-0.0014908881857991219,-0.0024534394033253193,0.0006664969259873033
1783696319579871500,4.75287158203125,-0.0005843481048941612,0.00009174353908747435,-0.0005311266286298633
1783696319589834500,4.76283447265625,-0.0015691111329942942,0.0014162368606776,-0.0013772629899904132
1783696319599798500,4.772798583984375,0.00021121205645613372,0.0006433875532820821,-0.0016744715394452214
1783696319609761500,4.782761474609375,-0.00026253057876601815,0.0002587942872196436,-0.0003789986949414015
1783696319619724300,4.792724365234375,-0.0002609326911624521,-0.0010424262145534158,0.00045536964898929
1783696319629687300,4.802687255859375,-0.00009179010521620512,0.0012073508696630597,0.001046688063070178
1783696319639651300,4.8126513671875,-0.0018806353909894824,0.000907745270524174,0.0016365782357752323
1783696319649614300,4.8226142578125,0.0010285056196153164,-0.0009192650904878974,-0.001550717162899673
1783696319659577300,4.832577392578125,0.0005294292932376266,0.0007888865075074136,-0.0010907893301919103
1783696319669541400,4.842541259765625,-0.001013840432278812,0.0006865595350973308,0.00018655962776392698
1783696319679504400,4.85250439453125,-0.0005933273350819945,-0.0002993426751345396,0.0012225293321534991
1783696319689467400,4.86246728515625,0.0006042640889063478,-0.0006958259036764503,0.0007204266148619354
1783696319699431400,4.872431396484375,-0.00033103805617429316,-0.0015139487804844975,-0.001684141461737454
1783696319709394400,4.88239453125,-0.0007474072626791894,0.0007449135882779956,-0.0007166998693719506
1783696319719357400,4.892357421875,0.0016148167196661234,-0.0010963958920910954,0.0014204869512468576
1783696319729321500,4.902321533203125,-0.0002614013501442969,0.0005183295579627156,-0.0014097146922722459
1783696319739284200,4.9122841796875,0.00036577307037077844,0.0020014438778162003,0.0000334522919729352
1783696319749247200,4.922247314453125,-0.00029393512522801757,-0.0007388765225186944,-0.0014322185888886452
1783696319759210200,4.932210205078125,0.00032817930332385004,0.00251177791506052,-0.0016274284571409225
1783696319769174300,4.94217431640625,0.0009034331887960434,0.001184447668492794,-0.0003083283081650734
1783696319779137300,4.95213720703125,-0.0020484146662056446,-0.0014978880062699318,0.0006168538820929825
1783696319789100300,4.962100341796875,0.0006707789143547416,-0.0017303406493738294,0.0014004041440784931
1783696319799064300,4.972064208984375,-0.0008328418480232358,-0.0004637412494048476,0.001852076267823577
1783696319809027300,4.98202734375,-0.00009643622615840286,-0.001145079149864614,-0.00038912042509764433
1783696319818990600,4.991990478515625,-0.0012727545108646154,-0.0010779673466458917,0.0012604414951056242
1783696319828954400,5.001954345703125,0.0003098771849181503,0.00015578255988657475,0.000996801070868969
1783696319838917400,5.01191748046875,-0.0008869473822414875,-0.0002013474004343152,0.0023752532433718443
1783696319848880400,5.02188037109375,0.0002223569608759135,-0.002479477087035775,-0.0009360153926536441
1783696319858844200,5.03184423828125,-0.0011795309837907553,0.0005139160202816129,0.001066948170773685
1783696319868807400,5.041807373046875,-0.0016585227567702532,0.0006228796555660665,0.0018030762439593673
1783696319878770400,5.0517705078125,0.0022328882478177547,-0.002681570826098323,0.0018174572614952922
1783696319888733400,5.0617333984375,-0.0013438139576464891,-0.0017046176362782717,0.0009737881482578814
1783696319898697500,5.071697509765625,-0.0012679138453677297,-0.002348569920286536,0.003248127643018961
1783696319908660500,5.081660400390625,-0.0005644961493089795,-0.002163319382816553,0.003187919966876507
1783696319918623500,5.09162353515625,-0.0005628982908092439,-0.005611048080027103,0.0035623605363070965
1783696319928587500,5.10158740234375,-0.002198507310822606,-0.0032754424028098583,0.0017863314133137465
1783696319938550500,5.111550537109375,-0.0010360374581068754,-0.0008791304426267743,0.0030779647640883923
1783696319948513300,5.12151318359375,-0.0015710222069174051,-0.002858765423297882,0.00283800158649683
1783696319958477600,5.1314775390625,-0.0013015103759244084,-0.0014954933430999517,0.0005628630751743913
1783696319968440300,5.1414404296875,0.00021868120529688895,-0.001214036368764937,-0.0005938851973041892
1783696319978403300,5.1514033203125,-0.00014457394718192518,0.0005300679476931691,-0.0011922974372282624
1783696319988367400,5.161367431640625,-0.0007030945271253586,-0.000743929180316627,-0.0018856535898521543
1783696319998330400,5.171330322265625,0.0011350192362442613,-0.00013033696450293064,-0.001058209571056068
1783696320008293400,5.18129345703125,-0.00023287419753614813,0.00232135783880949,-0.0016784531762823462
1783696320018256400,5.19125634765625,0.00033837385126389563,0.000049681286327540874,0.0011942987330257893
1783696320028220400,5.201220458984375,-0.00039765433757565916,0.0003477330319583416,-0.0003024577163159847
1783696320038183400,5.211183349609375,-0.00012707717542070895,-0.0006498871371150017,0.0011348503176122904
1783696320048146400,5.221146484375,0.00020588393090292811,-0.001644404954276979,0.0016706177266314626
1783696320058110500,5.2311103515625,-0.0010247628670185804,-0.0015131112886592746,0.001868490595370531
1783696320068073200,5.2410732421875,-0.0025388039648532867,-0.005418605171144009,0.003793314564973116
1783696320078036200,5.2510361328125,-0.0033888849429786205,-0.004076904617249966,0.002488365862518549
1783696320088000300,5.261000244140625,-0.0017067664302885532,-0.0022001578472554684,0.004096324555575848
1783696320097963300,5.27096337890625,-0.00169105373788625,-0.005300343967974186,0.003980210982263088
1783696320107926300,5.28092626953125,-0.0025823619216680527,-0.0036132114473730326,0.0032595875672996044
1783696320117890300,5.290890380859375,-0.001957317814230919,-0.002442752243950963,0.001855302951298654
1783696320127853300,5.300853271484375,-0.0021522315219044685,-0.004157213494181633,0.003046897239983082
1783696320137816300,5.31081640625,-0.00007842815830372274,-0.003960672300308943,0.0028681992553174496
1783696320148403500,5.321403564453125,-0.001978593645617366,-0.0038642659783363342,0.0020258412696421146
1783696320158366500,5.331366455078125,0.0011156618129462004,-0.0010689811315387487,0.0024798111990094185
1783696320168329500,5.34132958984375,-0.0007979026413522661,-0.0015545461792498827,0.0017721746116876602
1783696320178293500,5.35129345703125,0.0002774817985482514,-0.00013801082968711853,0.00029944657580927014
1783696320188256500,5.361256591796875,0.0002137842820957303,0.00035253260284662247,-0.0017879292136058211
1783696320198219300,5.37121923828125,-0.00007863080827519298,0.0004156494978815317,-0.00020041875541210175
1783696320208183300,5.381183349609375,-0.0007683370495215058,-0.0008607312338426709,-0.001366172800771892
1783696320218146300,5.391146240234375,0.0005035887006670237,-0.00034913793206214905,-0.00004604377318173647
1783696320228109300,5.401109375,-0.0005416017957031727,0.0008314722217619419,-0.0004562599351629615
1783696320238072300,5.411072265625,-0.0015235092723742127,0.0007049720734357834,-0.00028288806788623333
1783696320248036400,5.421036376953125,-0.002333602635189891,-0.001425250549800694,-0.0004793617408722639
1783696320257999400,5.430999267578125,-0.0010158705990761518,-0.000637221266515553,0.001555026974529028
1783696320267962400,5.44096240234375,-0.0009062009630724788,0.0004369855159893632,-0.00036585622001439333
1783696320277926400,5.450926513671875,0.0005137964617460966,0.0006524352356791496,0.0016216608928516507
1783696320287889400,5.460889404296875,0.0006407013861462474,0.00043940229807049036,0.0004734971444122493
1783696320297852200,5.47085205078125,0.00002045120345428586,-0.0017960550030693412,-0.0005624725017696619
1783696320307816400,5.48081640625,0.00023033059551380575,0.0006602730718441308,-0.0004707744810730219
1783696320317779200,5.490779296875,0.00022314005764201283,-0.0009980773320421576,0.0009798493701964617
1783696320327742500,5.500742431640625,-0.000491610961034894,-0.0015966043574735522,-0.0016600843518972397
1783696320337706200,5.510706298828125,0.0019110931316390634,0.0015776173677295446,-0.0005111966747790575
1783696320347669200,5.520669189453125,0.001355009968392551,0.0006721735117025673,0.0004346611094661057
1783696320357632500,5.530632568359375,-0.0004562059766612947,-0.0003203866071999073,0.0001342565519735217
1783696320367596300,5.54059619140625,-0.00021184765500947833,0.00121869589202106,-0.00036507565528154373
1783696320377559300,5.550559326171875,0.0009751232573762536,0.0003339938120916486,-0.0015600360929965973
1783696320387522600,5.5605224609375,0.0014913377817720175,0.0025698496028780937,-0.0004153585759922862
1783696320397485600,5.570485595703125,0.0017816222971305251,0.0000795277301222086,-0.0010321466252207756
1783696320407449600,5.58044970703125,0.001670768833719194,0.0012778686359524727,-0.000257091480307281
1783696320417412400,5.590412353515625,-0.00012047324707964435,0.0003638718044385314,-0.0013625695137307048
1783696320427375400,5.600375244140625,0.0012867042096331716,0.00016569322906434536,-0.0004783459007740021
1783696320437339400,5.61033935546875,0.0010041428031399846,0.0011886133579537272,0.0006234038737602532
1783696320447302400,5.620302490234375,-0.00009580595360603184,-0.0013876472366973758,0.0023765454534441233
1783696320457265400,5.630265380859375,-0.0018188711255788803,0.00006617233157157898,-0.001551883528009057
1783696320467851500,5.6408515625,0.0013453427236527205,-0.00020155671518296003,0.0008209764491766691
1783696320477815300,5.650815185546875,0.0007202988490462303,-0.0022085148375481367,0.0022590835578739643
1783696320487778300,5.6607783203125,-0.0010081268846988678,-0.00147096230648458,0.0006811610073782504
1783696320497741600,5.670741455078125,-0.001044345903210342,-0.0020509986206889153,0.0012715838383883238
1783696320507705300,5.680705322265625,-0.0016638257075101137,-0.000312417047098279,0.00023217732086777687
1783696320517668600,5.690668701171875,-0.0008680731989443302,-0.0018583819037303329,0.0008281927439384162
1783696320527631600,5.700631591796875,-0.0013916759053245187,-0.001544916769489646,-0.0006908673094585538
1783696320537594600,5.7105947265625,-0.00020497124933172017,0.0006894752732478082,0.0018913336098194122
1783696320547558700,5.72055859375,-0.0010194621281698346,-0.0007966498378664255,0.0020175420213490725
1783696320557521700,5.730521728515625,-0.0013675373047590256,-0.00016947533003985882,0.000787427881732583
1783696320567484700,5.740484619140625,0.0003009440843015909,-0.0011260940227657557,0.0010828105732798576
1783696320577448700,5.75044873046875,-0.0007227750029414892,-0.0016150504816323519,0.0007280775462277234
1783696320587411500,5.760411376953125,-0.0016538479831069708,0.00016906275413930416,-0.0009261089144274592
1783696320597374500,5.77037451171875,-0.0005036286893300712,-0.0018208512337878346,0.001751699484884739
1783696320607338500,5.78033837890625,0.0009451308869756758,0.00005987309850752354,0.001052886014804244
1783696320617301500,5.790301513671875,-0.00005089132173452526,-0.0027209995314478874,0.0027194921858608723
1783696320627264500,5.800264404296875,-0.000919997866731137,-0.004025978967547417,-0.0006399037083610892
1783696320637228500,5.810228515625,0.0009764391579665244,-0.0007396386936306953,-0.0011035602074116468
1783696320647191600,5.820191650390625,-0.002476264024153352,-0.0006543248891830444,0.002036294201388955
1783696320657154600,5.830154541015625,0.0002870317257475108,0.0006703314720652997,-0.0010537715861573815
1783696320667118600,5.84011865234375,-0.0006401317659765482,0.0004287518095225096,0.0010750747751444578
1783696320677081600,5.85008154296875,-0.00004464895755518228,-0.0013582292012870312,-0.002034698147326708
1783696320687044600,5.860044677734375,-0.0011032667243853211,0.00011051539331674576,0.0007764961337670684
1783696320697008600,5.870008544921875,-0.000498995475936681,-0.000826118397526443,0.000614842283539474
1783696320706971400,5.879971435546875,-0.00020905124256387353,0.0022129772696644068,-0.0009566380176693201
1783696320716934400,5.889934326171875,-0.0016671320190653205,0.0005106846801936626,0.000044976710341870785
1783696320726898400,5.8998984375,0.00006901484448462725,-0.0013179033994674683,-0.0003014033427461982
1783696320736861400,5.909861328125,-0.0012990509858354926,0.0006416505784727633,0.0005132576334290206
1783696320746824400,5.919824462890625,-0.0012931068195030093,-0.000348686589859426,-0.00028011074755340815
1783696320756787500,5.929787353515625,0.0018984255148097873,0.0002483940916135907,-0.0005855752388015389
1783696320766751500,5.93975146484375,0.000040710176108404994,-0.0008360028732568026,0.001975366845726967
1783696320776714500,5.949714599609375,0.00031927681993693113,0.0014897356741130352,0.0002863901318050921
1783696320786677500,5.959677490234375,0.000646313012111932,0.0015421999851241708,-0.00035596429370343685
1783696320796641500,5.9696416015625,-0.0010477238101884723,-0.001263173995539546,0.0011758859036490321
1783696320806604500,5.9796044921875,0.00015013401571195573,-0.0009280865779146552,-0.0005147861083969474
1783696320816567300,5.9895673828125,-0.00031858234433457255,0.0009648881969042122,0.00023409479763358831
1783696320826531300,5.99953125,0.0011969696497544646,-0.0011357010807842016,-0.0006584867369383574
1783696320836494300,6.009494384765625,0.0004997540963813663,-0.0005607246421277523,0.00039612501859664917
1783696320846457600,6.01945751953125,0.001192985917441547,0.0005633844994008541,0.0008214699337258935
1783696320856421400,6.02942138671875,0.0004558229411486536,0.0017362405778840184,-0.0008424731204286218
1783696320866384400,6.03938427734375,-0.0002143133751815185,0.00046795071102678776,0.0007349296938627958
1783696320876347600,6.04934765625,-0.0006454791291616857,0.0003888548817485571,-0.0008187583880499005
1783696320886311400,6.0593115234375,0.0010332283563911915,0.0020562908612191677,-0.0002415667986497283
1783696320896274700,6.069274658203125,0.00046597508480772376,-0.0012793182395398617,0.0016570007428526878
1783696320906237700,6.07923779296875,0.0013512098230421543,-0.00012643577065318823,-0.00015394878573715687
1783696320916201500,6.089201416015625,0.001548186526633799,0.0009304635459557176,-0.0006386880995705724
1783696320926164700,6.099164794921875,0.0011229031952098012,-0.0013068524422124028,-0.00022074440494179726
1783696320936127500,6.10912744140625,0.0009077198337763548,0.0008881249814294279,0.0013350743101909757
1783696320946091500,6.119091552734375,0.00032502837711945176,0.0003242664970457554,0.00008445768617093563
1783696320956054500,6.129054443359375,-0.0005961590213701129,0.0015818111132830381,-0.0005400535883381963
1783696320966017500,6.139017578125,-0.0008967965841293335,-0.0004885642556473613,-0.00007335224654525518
1783696320975981600,6.148981689453125,-0.0007010542321950197,-0.00028270180337131023,0.000382580969016999
1783696320985944600,6.158944580078125,0.00074117595795542,0.0007532876334153116,0.0005797769990749657
1783696320995907600,6.168907470703125,-0.00039918965194374323,-0.001869659754447639,0.0015358517412096262
1783696321005871600,6.17887158203125,0.001088100834749639,-0.000210602767765522,-0.0005949309561401606
1783696321015834600,6.188834716796875,0.0007389603997580707,0.0010762366000562906,0.0005417061620391905
1783696321025797600,6.198797607421875,-0.0008833844331093132,-0.002442976925522089,-0.0007013005670160055
1783696321035760400,6.208760498046875,-0.00011133405496366322,-0.0008243073243647814,0.0011602489976212382
1783696321045724700,6.218724609375,0.0006853874074295163,-0.0015482358867302537,0.0015021738363429904
1783696321055687400,6.2286875,-0.0009007912594825029,-0.00018389848992228508,0.00020707864314317703
1783696321065650400,6.238650390625,0.0022721842397004366,-0.0010980692459270358,0.00031625572592020035
1783696321075614500,6.248614501953125,0.0009549846290610731,-0.0005329464329406619,0.001041168114170432
1783696321085577500,6.258577392578125,-0.0009160352637991309,0.0016937532927840948,-0.0005989882629364729
1783696321095540500,6.26854052734375,-0.0013224337017163634,-0.0017680898308753967,0.0007062270306050777
1783696321105504500,6.27850439453125,-0.0009292229078710079,-0.0008415564661845565,-0.0015943555627018213
1783696321115467500,6.288467529296875,-0.001191544346511364,-0.00023382308427244425,-0.0007906137034296989
1783696321125430500,6.298430419921875,-0.0002538883709348738,-0.0018020857824012637,0.0017770715057849884
1783696321135394600,6.30839453125,-0.000706892111338675,0.0010909062111750245,0.00016292952932417393
1783696321145357600,6.318357666015625,0.000035629302146844566,-0.0020879043731838465,0.0009981939801946282
1783696321155320300,6.3283203125,-0.0010930183343589306,0.00021306669805198908,-0.000003953580744564533
1783696321165284400,6.338284423828125,0.0000021055748220533133,-0.00023733556736260653,-0.00019773433450609446
1783696321175247400,6.348247314453125,-0.000398966483771801,-0.001821383717469871,0.0006225192337296903
1783696321185210400,6.35821044921875,-0.000500219757668674,-0.0006806396413594484,-0.0014256082940846682
1783696321195174400,6.36817431640625,-0.0015646852552890778,-0.0014103457797318697,0.0012953433906659484
1783696321205137400,6.378137451171875,0.00028790446231141686,-0.0005381072405725718,0.001298014773055911
1783696321215100400,6.388100341796875,-0.0008162421290762722,0.0009031954105012119,0.0008324941736645997
1783696321225064400,6.398064453125,-0.00039181928150355816,-0.0006151652196422219,0.0006532763363793492
1783696321235027500,6.40802734375,-0.0002900865219999105,0.0006972405244596303,0.0015960353193804622
1783696321244990500,6.417990478515625,-0.00015480777074117213,-0.0010236548259854317,-0.0003662027884274721
1783696321254954500,6.42795458984375,-0.00029968374292366207,-0.0014084815047681332,0.001148603274486959
1783696321264917500,6.43791748046875,0.0017310634721070528,0.0004175028298050165,0.00007375306449830532
1783696321274880500,6.447880615234375,-0.00026763894129544497,-0.001461090985685587,0.0004311493248678744
1783696321284843500,6.457843505859375,-0.0010135280899703503,0.00043066649232059717,-0.0006701541133224964
1783696321294807600,6.4678076171875,-0.0006745075806975365,0.0004447812680155039,-0.000302637810818851
1783696321304770600,6.4777705078125,0.000776669941842556,0.00021703052334487438,-0.0007281515281647444
1783696321314733600,6.487733642578125,-0.00007074793393258005,0.0004729602951556444,-0.0000048370566219091415
1783696321324697600,6.497697509765625,0.0005127617041580379,0.0000737413065508008,-0.00018030160572379827
1783696321334660600,6.50766064453125,0.0015601830091327429,0.00143381766974926,-0.002186993369832635
1783696321344623600,6.51762353515625,-0.0009805591544136405,-0.00035541446413844824,-0.0007824467029422522
1783696321354587600,6.527587646484375,0.00045728153781965375,0.0007085183169692755,-0.0003020124277099967
1783696321364550700,6.537550537109375,0.00038584601134061813,0.0014679369051009417,-0.0010808981023728848
1783696321374513700,6.547513671875,0.000840713910292834,0.00037177978083491325,0.0002791782026179135
1783696321384477700,6.557477783203125,0.0019530410645529628,0.000543954549357295,-0.0013762087328359485
1783696321394440400,6.5674404296875,0.000564735266380012,-0.001146087422966957,0.0003191596479155123
1783696321404403500,6.577403564453125,0.0003809562767855823,0.0008460074313916266,-0.0004825108917430043
1783696321414367500,6.587367431640625,0.001329041551798582,0.0017224537441506982,0.0003108447417616844
1783696321424330500,6.59733056640625,-0.0008918064995668828,-0.0019009496318176389,0.0005089077167212963
1783696321434293500,6.60729345703125,-0.0003184279485139996,-0.0004053182201460004,-0.0013505113311111927
1783696321444257500,6.617257568359375,0.000699412717949599,-0.0006359216058626771,0.0005139517015777528
1783696321454220500,6.627220458984375,0.00023708799562882632,0.0005686260992661119,-0.0021092616952955723
1783696321464183600,6.63718359375,0.002213131170719862,0.00029487733263522387,0.0008595224935561419
1783696321474147600,6.647147705078125,0.00022481507039628923,-0.0019022305496037006,-0.0006526203360408545
1783696321484110600,6.657110595703125,-0.0005316842580214143,-0.0009108817903324962,-0.0010030466364696622
1783696321494073600,6.667073486328125,0.00015088391955941916,0.000154116190969944,0.0005738110630773008
1783696321504036400,6.677036376953125,-0.0008858820656314492,-0.0010622773552313447,-0.0008566847536712885
1783696321514000400,6.68700048828125,0.00030907828477211297,-0.0004127324791625142,-0.000328579917550087
1783696321523963400,6.69696337890625,-0.001237525255419314,-0.002633318305015564,-0.0003613830776885152
1783696321533926400,6.706926513671875,-0.0009238048223778605,0.0002817779313772917,-0.00022822502069175243
1783696321543890400,6.716890380859375,-0.0007891851710155606,-0.0015444395830854774,0.0016895498847588897
1783696321553853400,6.726853515625,-0.0013798743020743132,-0.0011769233969971538,0.0009459953289479017
1783696321563816400,6.73681640625,-0.0011431785533204675,0.00022963178344070911,-0.00010704761371016502
1783696321573780500,6.746780517578125,0.0004959970829077065,-0.0010236516827717423,-0.0008370201103389263
1783696321583743200,6.7567431640625,0.000584221095778048,0.00038609153125435114,-0.0008885137503966689
1783696321593706500,6.76670654296875,-0.0007345762569457293,-0.000017910031601786613,0.0012590594124048948
1783696321603670300,6.776670166015625,0.0010274660307914019,-0.0005892792250961065,-0.0012356117367744446
1783696321613633300,6.78663330078125,0.00021280511282384396,0.001384655712172389,-0.001222029561176896
1783696321623596500,6.796596435546875,0.0004392825358081609,-0.00121947075240314,-0.000728570856153965
1783696321633560300,6.806560302734375,0.0007343607721850276,0.0014913608320057392,-0.0017895741621032357
1783696321643523300,6.8165234375,-0.0002201853203587234,0.001439978601410985,0.00022732216166332364
1783696321653486600,6.826486572265625,-0.0012716013006865978,0.0005345038371160626,-0.0007231599884107709
1783696321663450400,6.836450439453125,0.0011839624494314194,0.0016437361482530832,-0.0013173354091122746
1783696321673413600,6.84641357421875,-0.0002501497510820627,0.0008594352402724326,-0.00189843715634197
1783696321683376400,6.85637646484375,0.0009889559587463737,0.0004005722003057599,-0.0009666627738624811
1783696321693340400,6.86634033203125,0.0015535460552200675,0.0006631598807871342,0.0007068677805364132
1783696321703303400,6.876303466796875,0.0006442521698772907,-0.0005183997564017773,-0.0015157838352024555
1783696321713266400,6.886266357421875,0.00041868240805342793,0.0011830939911305904,0.00033138477010652423
1783696321723230500,6.89623046875,0.00037744734436273575,-0.0017149560153484344,0.0008240174502134323
1783696321733193500,6.906193359375,0.0009513586410321295,0.0017418269999325275,-0.0018926732009276748
1783696321743156500,6.916156494140625,-0.0006852179067209363,0.0009362673154100776,-0.0008274066494777799
1783696321753119500,6.926119384765625,0.0015675501199439168,0.0007362639298662543,-0.0010790753876790404
1783696321763083500,6.93608349609375,0.0001996832579607144,0.0015875144163146615,0.0009278148645535111
1783696321773046500,6.946046630859375,0.0015539006562903523,-0.00012649607378989458,0.00015576451551169157
1783696321783009500,6.956009521484375,-0.0007897508330643177,-0.00000787514727562666,-0.000040228827856481075
1783696321792973600,6.9659736328125,-0.00007389314123429358,0.00039372954051941633,-0.00011959101539105177
1783696321802936300,6.975936279296875,0.0005708951503038406,-0.0006898384308442473,-0.00020687805954366922
1783696321812899300,6.9858994140625,0.00006010082142893225,0.00230781571008265,-0.0003901035524904728
1783696321822863400,6.99586328125,-0.0008929540636017919,-0.0007285356987267733,-0.0005532552022486925
1783696321832826400,7.005826416015625,0.0005659256130456924,0.0012134413700550795,-0.002012933837249875
1783696321842789400,7.015789306640625,-0.00033612456172704697,-0.0005612282548099756,-0.0005612733075395226
1783696321852753400,7.02575341796875,0.0014058490050956607,-0.0002523015718907118,0.0006720366072840989
1783696321862716400,7.03571630859375,-0.0001354517153231427,0.0012130285613238811,-0.00036272848956286907
1783696321872679400,7.045679443359375,0.00046855321852490306,-0.0017633202951401472,0.00007802457548677921
1783696321882643500,7.0556435546875,-0.0004483068478293717,0.00010576995555311441,0.0007320859003812075
1783696321892606500,7.0656064453125,0.001683553564362228,-0.0007131521124392748,-0.00001546344719827175
1783696321902569500,7.075569580078125,0.000831018784083426,-0.0023464749101549387,-0.0009293222101405263
1783696321912533500,7.085533447265625,0.0005998563719913363,0.0004684863379225135,-0.0003937605069950223
1783696321922496300,7.095496337890625,-0.0005125885363668203,0.00002451823092997074,0.0008135426323860884
1783696321932459300,7.105459228515625,-0.0013480221386998892,0.0005803200183436275,0.0010585534619167447
1783696321942423300,7.11542333984375,0.00021896229009144008,-0.000810595229268074,0.0005350650171749294
1783696321952386300,7.12538623046875,0.00020165173918940127,0.0004128608852624893,-0.001676423940807581
1783696321962349300,7.135349365234375,0.00009923230390995741,-0.0017538752872496843,-0.0003971788100898266
1783696321972313300,7.145313232421875,-0.001172427088022232,-0.0018252481240779161,-0.0006946539506316185
1783696321982276400,7.1552763671875,-0.0007527470006607473,0.0008916300721466541,0.001454786746762693
1783696321992239400,7.1652392578125,-0.0013013582210987806,0.00026631983928382397,-0.000057888682931661606
1783696322002202600,7.17520263671875,0.001010544248856604,-0.001188701600767672,-0.00019107817206531763
1783696322012166400,7.18516650390625,0.0016153481556102633,0.000027830246835947037,0.0009271831950172782
1783696322022129400,7.19512939453125,-0.0016097326297312975,-0.001164967892691493,0.0021011533681303263
1783696322032092400,7.205092529296875,-0.0006403420120477676,-0.0005614955443888903,0.001954146893694997
1783696322042056400,7.215056396484375,-0.0023583541624248028,-0.0020864170510321856,0.002628085669130087
1783696322052019500,7.22501953125,-0.0007769688963890076,-0.0018997294828295708,0.002526352647691965
1783696322061982500,7.234982421875,-0.0005118782864883542,0.0017736380686983466,0.00011349760461598635
1783696322071946500,7.244946533203125,-0.0005294551374390721,-0.0008170849177986383,0.0014296318404376507
1783696322081909500,7.254909423828125,0.0008348766132257879,-0.000046260771341621876,-0.00241523003205657
1783696322091872500,7.26487255859375,0.0006950606475584209,0.0004797135479748249,0.0017752539133653045
1783696322101836500,7.27483642578125,-0.0009701104718260467,-0.0029364656656980515,0.0010183703852817416
1783696322111799600,7.284799560546875,0.00007145182462409139,-0.0006858285050839186,0.00027774530462920666
1783696322121762600,7.294762451171875,-0.0006296117790043354,-0.00022515503223985434,0.0009304874110966921
1783696322131726600,7.3047265625,-0.0017806299729272723,0.002153314184397459,0.0007267555920407176
1783696322141689600,7.314689697265625,-0.003256520489230752,-0.0007316020783036947,0.0002622875617817044
1783696322151652400,7.32465234375,0.0008668518275953829,-0.002145474310964346,0.0013302151346579194
1783696322161616400,7.334616455078125,0.0009247956913895905,0.0018203273648396134,-0.00038350734394043684
1783696322171579400,7.344579345703125,0.0006757901865057647,-0.0003922269679605961,-0.0012527632061392069
1783696322181542400,7.35454248046875,0.00041548468288965523,-0.0013350576627999544,-0.0011275744764134288
1783696322191506400,7.36450634765625,-0.0007789430674165487,-0.0001307763159275055,-0.00017389655113220215
1783696322201469400,7.374469482421875,0.0007385069620795548,0.00040454172994941473,0.0002794059691950679
1783696322211432400,7.384432373046875,0.0011281275656074286,0.0016977726481854916,-0.0002774610184133053
1783696322221396500,7.394396484375,0.002535118954256177,-0.0022915899753570557,0.0003156595630571246
1783696322231359500,7.404359375,-0.0012489666696637869,0.000421106000430882,-0.0008944808505475521
1783696322241322500,7.414322509765625,0.00009538672748021781,0.00039253581780940294,0.000699299038387835
1783696322251286500,7.42428662109375,-0.00006120713078416884,-0.0006077474681660533,0.000333114352542907
1783696322261249500,7.43424951171875,-0.0005047675222158432,0.0003769072936847806,-0.0011466749710962176
1783696322271212300,7.44421240234375,-0.00028186096460558474,-0.00008568377234041691,0.0006147398380562663
1783696322281176300,7.45417626953125,0.0007886727107688785,-0.0006567841628566384,-0.0017976288218051195
1783696322291139300,7.464139404296875,0.0018568666419014335,0.000025783898308873177,-0.00006550888065248728
1783696322301102300,7.474102294921875,0.0013990628067404032,-0.00010565528646111488,-0.0026107393205165863
1783696322311065300,7.4840654296875,0.0005729502299800515,-0.0004324251785874367,0.0004420423065312207
1783696322321029400,7.494029296875,0.0003462427412159741,-0.0020355938468128443,-0.00047278671991080046
1783696322330992400,7.503992431640625,0.0023215091787278652,-0.0002896252553910017,-0.0006746542640030384
1783696322340955400,7.513955322265625,-0.000007678376277908683,0.0014199626166373491,0.00035270623629912734
1783696322350919400,7.52391943359375,-0.0005445716669782996,-0.0004892575088888407,0.000007294234819710255
1783696322360882400,7.53388232421875,-0.0004049814015161246,0.001227831351570785,0.00040328101022168994
1783696322370845400,7.543845458984375,0.000481851224321872,-0.0000073427800089120865,-0.000578626524657011
1783696322380809500,7.5538095703125,-0.0007938615162856877,0.00010923005174845457,-0.0011147218756377697
1783696322390772200,7.563772216796875,-0.000010359537554904819,-0.0007072951411828399,-0.00043641473166644573
1783696322400735500,7.573735595703125,0.0012735053896903992,-0.0014159081038087606,0.0017979689873754978
1783696322410699300,7.58369921875,0.000523026566952467,0.0019170378800481558,-0.00033602199982851744
1783696322420662500,7.59366259765625,-0.00008909816097002476,-0.0001766909845173359,0.00037250545574352145
1783696322430625500,7.60362548828125,0.0003548507811501622,-0.0009729760931804776,-0.00018915522377938032
1783696322440589300,7.61358935546875,-0.0013748302590101957,0.0016875072615221143,0.00035179988481104374
1783696322450552600,7.623552490234375,-0.0020190489012748003,-0.0006155944429337978,0.00034407671773806214
1783696322460515600,7.633515625,0.0006399905541911721,0.0010832624975591898,-0.0010529905557632446
1783696322470479600,7.643479736328125,0.0002493048377800733,0.00044543552212417126,-0.00005270726978778839
1783696322480442600,7.653442626953125,-0.0005747374962083995,0.00014957634266465902,-0.0022856206633150578
1783696322490405400,7.6634052734375,0.0008247536025010049,-0.00002672488335520029,0.0006201545475050807
1783696322500369700,7.67336962890625,-0.0014000828377902508,-0.0013075234601274133,0.0011963392607867718
1783696322510332400,7.68333251953125,-0.0001159065286628902,0.001840599230490625,-0.00006786326412111521
1783696322520295400,7.69329541015625,-0.00039136744453571737,0.00018084736075252295,0.001060947892256081
1783696322530259500,7.703259521484375,0.00031516916351392865,-0.00177311385050416,-0.00015718198847025633
1783696322540222500,7.713222412109375,-0.0013018518220633268,-0.00040074787102639675,0.0005200618179515004
1783696322550185500,7.723185546875,-0.0008858660003170371,0.0003691720776259899,0.00099490350112319
1783696322560148500,7.7331484375,-0.0017392545705661178,0.0009385267039760947,-0.0009673724416643381
1783696322570112500,7.743112548828125,0.00017502557602711022,-0.0015259624924510717,0.0017325400840491056
1783696322580075500,7.753075439453125,0.00026862864615395665,0.00021660304628312588,-0.00004676752723753452
1783696322590038300,7.763038330078125,0.0007543892133980989,0.0015521784080192447,0.00025949603877961636
1783696322600002300,7.773002197265625,0.0006133936694823205,-0.00027959374710917473,-0.0010735540417954326
1783696322609965300,7.78296533203125,-0.000053461844800040126,0.001069829915650189,-0.0001007013488560915
1783696322619928300,7.79292822265625,0.0002272035926580429,0.0003022704040631652,0.0012508513173088431
1783696322629892400,7.802892333984375,0.0007390631944872439,0.00047857174649834633,0.000661493802908808
1783696322639855400,7.81285546875,-0.00032657734118402004,0.0013796135317534208,-0.0008154188981279731
1783696322649818400,7.822818359375,-0.0002450846368446946,-0.0009684956166893244,-0.0005847893189638853
1783696322659782400,7.832782470703125,0.0014709050301462412,-0.00019399344455450773,0.00009889085777103901
1783696322669745400,7.842745361328125,0.0000013728276826441288,0.00047445984091609716,0.0002967637265101075
1783696322679708400,7.85270849609375,-0.0008333164732903242,-0.00036380207166075706,0.0006594163714908063
1783696322689672400,7.86267236328125,-0.0002468884631525725,0.0005041219992563128,-0.0009659108472988009
1783696322699635500,7.872635498046875,-0.0010017775930464268,-0.0010911856079474092,0.000586722802836448
1783696322709598200,7.88259814453125,-0.000749842613004148,0.000970633642282337,0.0003054930130019784
1783696322719562200,7.892562255859375,0.0002149814390577376,-0.0009185859235003591,0.0003354396903887391
1783696322729525200,7.902525146484375,0.0009124632924795151,-0.000403530546464026,-0.0004491276340559125
1783696322739488300,7.91248828125,-0.000245069240918383,0.0002038187813013792,0.00140438973903656
1783696322749452300,7.922452392578125,-0.0002328186819795519,-0.001186617650091648,0.0013836170546710491
1783696322759415300,7.932415283203125,-0.00009169756958726794,0.0013509831624105573,0.00018058042041957378
1783696322769378300,7.94237841796875,-0.00037239474477246404,-0.0016812920803204179,-0.0003051800886169076
1783696322779342300,7.95234228515625,-0.0006812882493250072,0.0004743514582514763,0.0001494227908551693
1783696322789305300,7.962305419921875,0.0011091548949480057,0.0022237820085138083,0.0010218743700534105
1783696322799268600,7.9722685546875,-0.00042412319453433156,-0.0016705261077731848,0.0020746926311403513
1783696322809231400,7.9822314453125,-0.0003253199392929673,0.0017175475368276238,-0.00025850278325378895
1783696322819195400,7.9921953125,-0.0002214050618931651,0.00035935966297984123,0.0025901286862790585
1783696322829158400,8.002158447265625,0.000008958391845226288,-0.0006473151734098792,0.00024468277115374804
1783696322839121400,8.012121337890624,-0.0006721627432852983,0.0014768679393455386,-0.000031466479413211346
1783696322849085400,8.02208544921875,-0.000022085121599957347,0.00036100344732403755,-0.0005736860912293196
1783696322859048400,8.03204833984375,0.0008646980277262628,0.001937931403517723,0.00010343652684241533
1783696322869011500,8.042011474609374,0.0007144957198761404,-0.0011851575691252947,-0.0005383853567764163
1783696322878975500,8.0519755859375,-0.00005067227175459266,0.0002551296493038535,-0.0015454646199941635
1783696322888938500,8.0619384765625,-0.0011114092776551843,0.0026743451599031687,-0.00048605911433696747
1783696322898901500,8.071901611328125,0.00022498579346574843,-0.00010660465341061354,0.0008129131747409701
1783696322908865500,8.081865478515626,-0.0009393482469022274,0.002289974130690098,0.00025418202858418226
1783696322918828500,8.09182861328125,-0.00018248919514007866,0.00005293672438710928,0.00019582861568778753
1783696322928791300,8.101791259765625,0.0010990239679813385,0.00015174003783613443,-0.00022734771482646465
1783696322938755300,8.11175537109375,-0.0003127182135358453,0.0019046277739107609,0.0010678928811103106
1783696322948718300,8.12171826171875,-0.00008421899110544473,0.00016798044089227915,0.0004348594811744988
1783696322958681300,8.131681396484375,0.0010576009517535567,-0.0012832884676754475,-0.0007697405526414514
1783696322968645400,8.141645263671874,0.00009859664714895189,0.00040062819607555866,0.00019778579007834196
1783696322978608400,8.1516083984375,0.00013038417091593146,-0.002290220931172371,0.0027566631324589252
1783696322988571400,8.1615712890625,-0.0002989174099639058,0.00006614392623305321,-0.0010204981081187725
1783696322998535400,8.171535400390624,-0.0006065170746296644,-0.001264393562451005,0.000008858507499098778
1783696323008498400,8.18149853515625,0.00022865025675855577,0.0003798420075327158,0.00024534715339541435
1783696323018461400,8.19146142578125,0.00048403823166154325,-0.0007986017735674977,0.002106606960296631
1783696323028425500,8.201425537109374,-0.0004715039685834199,0.0008264591451734304,0.0006328136660158634
1783696323038388500,8.211388427734375,-0.0006299839587882161,-0.00011185987386852503,0.0008427162538282573
1783696323048351200,8.221351318359375,0.00010291795479133725,-0.0013449034886434674,-0.00000603310763835907
1783696323058314200,8.231314208984376,-0.00039241136983036995,0.0009763763519003987,-0.0008381463121622801
1783696323068278300,8.2412783203125,-0.00104701635427773,0.0008173856767825782,0.0007112809107638896
1783696323078241300,8.2512412109375,0.0015288960421457887,-0.00020775257144123316,0.0011930802138522267
1783696323088204300,8.261204345703124,-0.00034090937697328627,0.00022501114290207624,0.00047109724255278707
1783696323098168300,8.271168212890625,0.001020147348754108,-0.001805533654987812,0.0012054558610543609
1783696323108131300,8.28113134765625,-0.0003332711348775774,0.0004288585623726249,0.0006752205081284046
1783696323118094300,8.29109423828125,-0.0005122296861372888,0.000025059678591787815,-0.00025987112894654274
1783696323128058400,8.301058349609375,0.0010036416351795197,-0.0019512720173224807,0.0007912784931249917
1783696323138021400,8.311021484375,0.00021784662385471165,0.0008555589593015611,0.0005858248332515359
1783696323147984400,8.320984375,-0.00009560745093040168,-0.0017516756197437644,0.000963993719778955
1783696323157948400,8.330948486328126,0.0011289905523881316,-0.000005393405444920063,-0.000037234160117805004
1783696323167911200,8.3409111328125,-0.0009482750901952386,0.00017729948740452528,0.0011268334928900003
1783696323177874400,8.35087451171875,-0.00018044988973997533,0.00026848551351577044,0.00034593488089740276
1783696323187838200,8.360838134765626,0.0007492597214877605,0.0029582781717181206,0.0014908278826624155
1783696323197801500,8.370801513671875,-0.00004712073132395744,0.00008760462515056133,0.0005919483373872936
1783696323207764500,8.380764404296874,0.00014915424981154501,0.0004596482031047344,-0.0009127376833930612
1783696323217728300,8.390728271484376,0.0007426100200973451,0.0015805955044925213,0.00042777828639373183
1783696323227691500,8.40069140625,0.00011836501653306186,0.0003286434803158045,-0.0005826250417158008
1783696323237654500,8.410654541015624,0.0009954726556316018,0.0014034740161150694,-0.000414370559155941
1783696323247618600,8.42061865234375,-0.00019149827130604535,0.0002013231860473752,0.0005715316510759294
1783696323257581600,8.43058154296875,-0.00041241024155169725,0.001985223265364766,0.0007965489639900625
1783696323267544300,8.44054443359375,-0.0014023073017597198,-0.001638806308619678,0.0021552937105298042
1783696323277508600,8.450508544921876,-0.001809575129300356,-0.0010323735186830163,0.00006211362779140472
1783696323287471400,8.460471435546875,-0.0000018213177099823952,0.0013948315754532814,0.00027410127222537994
1783696323297434400,8.470434326171874,-0.0004646651213988662,-0.0036389483138918877,0.0009328306186944246
1783696323307398400,8.4803984375,-0.0005911652697250247,-0.0005446214927360415,0.0018660023342818022
1783696323317361400,8.490361328125,-0.00035737419966608286,0.0004318711580708623,0.0015658335760235786
1783696323327324400,8.500324462890624,0.000546769006177783,-0.001952190650627017,-0.00021688651759177446
1783696323337287400,8.510287353515626,-0.0001367463992210105,0.001132916659116745,0.00027673260774463415
1783696323347251500,8.52025146484375,-0.001742632477544248,0.0003376967506483197,0.00008365337271243334
1783696323357214500,8.53021435546875,0.0011097431415691972,-0.00028081703931093216,0.0005540501442737877
1783696323367177500,8.540177490234376,-0.00019840156892314553,0.0009170728153549135,0.00008586642798036337
1783696323377141500,8.5501416015625,0.0002493885695002973,-0.0001719379797577858,0.00036393216578289866
1783696323387104300,8.560104248046875,0.00017055899661500007,0.0007063725497573614,0.00032025633845478296
1783696323397067300,8.5700673828125,-0.00007486152753699571,0.00021142303012311459,0.0005752572324126959
1783696323407031300,8.58003125,0.00007347653445322067,0.0007544416002929211,0.00017578306142240763
1783696323416994300,8.589994384765625,-0.00006239247159101069,0.0017195924883708358,-0.0002888706512749195
1783696323426957300,8.599957275390626,0.0009277708595618606,-0.0008213294204324484,0.00040301861008629203
1783696323436921300,8.60992138671875,-0.0002577141858637333,0.00019243021961301565,-0.000921619008295238
1783696323446884400,8.61988427734375,-0.0000920655729714781,-0.0003830789355561137,-0.000060619087889790535
1783696323456847400,8.629847412109376,0.000012596661690622568,0.000002546817995607853,0.00031462026527151465
1783696323466811400,8.639811279296875,0.000575953396037221,0.0007379485759884119,0.0005952350329607725
1783696323476774400,8.6497744140625,0.0004982078680768609,-0.00160286296159029,0.001145635498687625
1783696323486737400,8.6597373046875,0.0009773105848580599,0.00201477506197989,0.0001552058383822441
1783696323496701400,8.669701416015625,0.0006007704650983214,0.000016939244233071804,-0.0010117955971509218
1783696323506664200,8.679664306640625,-0.00009751040488481522,-0.0008752197027206421,-0.0009934199042618275
1783696323516627200,8.689627197265626,-0.000406900915550068,0.0006043857429176569,0.00017568981274962425
1783696323526592000,8.699592041015626,0.0009529091184958816,-0.0011021678801625967,-0.0007391059771180153
1783696323536555000,8.709554931640625,-0.0009448251221328974,0.0014592102961614728,-0.0009384165750816464
1783696323546518000,8.71951806640625,-0.0008374997414648533,0.00036651536356657743,-0.0001655671512708068
1783696323556482000,8.72948193359375,-0.0009949884843081236,-0.00048497843090444803,-0.0006207276601344347
1783696323566445000,8.739445068359375,-0.00042613729601725936,-0.000226119183935225,0.0008655824931338429
1783696323576408000,8.749407958984374,0.0007084764074534178,-0.0011312579736113548,0.0004584505222737789
1783696323586372000,8.7593720703125,0.000616863660980016,-0.0004103402607142925,0.0004893431905657053
1783696323596335000,8.769335205078125,-0.0012156429002061486,-0.0017022643005475402,0.0019608987495303154
1783696323606297900,8.7792978515625,-0.0010478637414053082,0.00033372233156114817,0.000475387554615736
1783696323616262000,8.789261962890626,0.000038693848182447255,0.0023336741141974926,-0.00020195869728922844
1783696323626225000,8.799224853515625,-0.0005559900309890509,-0.0009406824829056859,-0.0003739988896995783
1783696323636188000,8.80918798828125,0.0006746630533598363,-0.00005018885713070631,0.0015072387177497149
1783696323646152000,8.81915185546875,0.00024962256429716945,0.00023237254936248064,0.0004771280800923705
1783696323656115000,8.829114990234375,0.00031704382854513824,-0.0016098091145977378,0.0016503864899277687
1783696323666078200,8.839078125,-0.001761553343385458,0.0009076771675609052,0.001422153552994132
1783696323676041200,8.849041259765626,-0.0009322473779320717,-0.0009061071323230863,-0.0013681836426258087
1783696323686005000,8.8590048828125,0.0013135962653905153,0.0005309345433488488,0.00009256007615476847
1783696323695968300,8.86896826171875,-0.00008291547419503331,0.0022632479667663574,-0.0009225335670635104
1783696323705931000,8.878930908203126,0.0002909923205152154,-0.0007975229527801275,-0.0014623563038185239
1783696323715895000,8.88889501953125,-0.00038944848347455263,0.0011746517848223448,-0.0011083615245297551
1783696323725858000,8.898858154296875,0.00022361120500136167,-0.0010573436738923192,-0.0006010293727740645
1783696323735821000,8.908821044921876,-0.0005456533399410546,0.0003809297922998667,-0.00030425714794546366
1783696323745785000,8.91878515625,0.0007449144613929093,0.000893321936018765,-0.00046031828969717026
1783696323755748000,8.928748046875,0.0011329439003020525,-0.0008186320774257183,-0.0006859799614176154
1783696323765711000,8.938711181640626,-0.00010569222649792209,0.0005896474467590451,-0.000723796896636486
1783696323775675100,8.948675048828125,-0.0003505587810650468,0.00016718509141355753,0.0014591277576982975
1783696323785638100,8.95863818359375,0.000983951147645712,0.0012066168710589409,0.0009035923285409808
1783696323795601200,8.96860107421875,-0.00029815093148499727,-0.0002524766605347395,0.0002638494479469955
1783696323805565200,8.978565185546875,-0.0006547481752932072,-0.0011323851067572832,0.0007767742499709129
1783696323815528200,8.988528076171875,0.0002714103611651808,0.00022007094230502844,-0.0004829863319173455
1783696323825491000,8.998490966796876,-0.00009850269998423755,0.0010437866440042853,-0.002073958981782198
1783696323835455000,9.008455078125,0.0005573378875851631,-0.0012450703652575612,-0.00039353512693196535
1783696323845418000,9.01841796875,0.000354671326931566,0.0007744045578874648,-0.001873719971626997
1783696323855381000,9.028381103515626,0.0012872989755123854,-0.0010628125164657831,-0.0004499017959460616
1783696323865345000,9.038344970703125,0.0015581424813717604,0.001537231495603919,-0.001429945114068687
1783696323875308000,9.04830810546875,0.0018943770555779338,0.0007276137475855649,7.455237209796906e-7
1783696323885271000,9.05827099609375,0.0007934261811897159,-0.0005259362515062094,-0.00047169928438961506
1783696323895234000,9.068234130859375,0.000016659018001519144,0.0019166757119819522,-0.0008355774916708469
1783696323905198000,9.078197998046875,0.0016659545945003629,-0.0006729821907356381,0.0013503450900316238
1783696323915161000,9.0881611328125,0.00043023726902902126,0.000499282730743289,-0.0009099844610318542
1783696323925124000,9.0981240234375,-0.0008275737054646015,0.0017805295065045357,0.0010980389779433608
1783696323935088000,9.108088134765625,-0.0017377028707414865,-0.0009479130385443568,-0.0010384689085185528
1783696323945051000,9.11805078125,-0.0012402243446558714,0.0007921963115222752,-0.00015909317880868912
1783696323955014000,9.128013916015625,0.0005889229360036552,0.00006427045445889235,0.0005941912531852722
1783696323964978000,9.13797802734375,0.0003319279057905078,-0.000460905022919178,-0.0008870589081197977
1783696323974941000,9.14794091796875,-0.0005135562969371676,-0.0009536854922771454,-0.001029961509630084
1783696323984904000,9.157904052734375,-0.0008046397706493735,-0.0005760493222624063,-0.0010882846545428038
1783696323994868000,9.167867919921875,-0.0005807348061352968,0.00034843652974814177,-0.0016607794677838683
1783696324004831000,9.1778310546875,-0.00041268934728577733,0.00015296053607016802,0.00020050385501235723
1783696324014794000,9.1877939453125,0.0010365580674260855,0.0009991992264986038,0.000859523715917021
1783696324024758000,9.197758056640625,-0.00042604992631822824,0.00069080526009202,-0.00013836275320500135
1783696324034721000,9.207720947265624,-0.000008355069439858198,-0.001209612819366157,0.0012029462959617376
1783696324044684300,9.217684326171875,-0.000495713553391397,0.0018567509250715375,-0.0007672602077946067
1783696324054648000,9.22764794921875,-0.0010382881155237556,0.00037860439624637365,0.0015384431462734938
1783696324064611000,9.237611083984374,0.00007411424303427339,-0.0003425796749070287,-0.000314317992888391
1783696324074574000,9.247573974609375,0.0014516647206619382,-0.0008807235863059759,-0.0011834523174911737
1783696324084537900,9.257537841796875,-0.00042186910286545753,-0.0001749859657138586,0.0016440257895737886
1783696324094501000,9.267501220703124,0.0007587772561237216,-0.0002108193002641201,0.000003203749656677246
1783696324104464100,9.277464111328126,-0.000808226759545505,0.0008957240497693419,-0.0008535351371392608
1783696324114427100,9.28742724609375,-0.0009639929630793631,-0.0017463364638388157,-0.00045811093878000975
1783696324124391200,9.29739111328125,-0.0009839667472988367,-0.0000991713022813201,0.0003102109767496586
1783696324134354200,9.307354248046876,-0.0013589735608547926,0.000740105751901865,0.001188626978546381
1783696324148676000,9.321676025390625,0.0014599824789911509,0.00029216206166893244,-0.0009885072940960526
1783696324158640000,9.33164013671875,-0.001304934616200626,0.0003205059329047799,-0.0002052239142358303
1783696324168603000,9.341602783203125,0.0016810016240924597,-0.0014843182871118188,-0.00018897862173616886
1783696324178566000,9.35156591796875,-0.0007165633724071085,0.001059484900906682,-0.00014083588030189276
1783696324188530000,9.361530029296874,-0.0006153632421046495,-0.0008002006215974689,-0.0008801294025033712
1783696324198493000,9.371492919921875,-0.0011651536915451288,0.0005448886658996344,0.00029372971039265394
1783696324208456000,9.3814560546875,0.001999214291572571,0.0011219957377761602,0.0011802960652858019
1783696324218420000,9.391419921875,-0.000757626025006175,-0.002726288279518485,0.0008156904950737953
1783696324228383000,9.401383056640626,-0.0004050234565511346,0.0006735031493008137,-0.0016748978523537517
1783696324238346000,9.411345947265625,-0.0010522163938730955,-0.0005194209516048431,0.0003827170585282147
1783696324248310000,9.42131005859375,-0.0006269095465540886,-0.001330886036157608,-0.0002460553077980876
1783696324258273000,9.43127294921875,-0.0009650057181715965,0.0015616854652762413,-0.0018933684332296252
1783696324268236300,9.441236328125,0.00041238119592890143,-0.0003818894037976861,-0.000500268884934485
1783696324278200000,9.451199951171875,0.0001657254179008305,0.00019021949265152216,-0.0005231455434113741
1783696324288163000,9.4611630859375,-0.002450297586619854,0.000868260336574167,0.0010342709720134735
1783696324298126000,9.4711259765625,0.0023031749296933413,-0.0022878781892359257,0.0007728277123533189
1783696324308089900,9.48108984375,-0.00028168922290205956,0.0002743492368608713,-0.0018828765023499727
1783696324318053000,9.49105322265625,-0.00033487146720290184,-0.001345084048807621,0.001248908811248839
1783696324328016100,9.50101611328125,0.00009016905096359551,-0.001773320371285081,0.001410562777891755
1783696324337980000,9.51097998046875,-0.00029978237580507994,0.0006494044791907072,0.0006145018269307911
1783696324347943200,9.520943115234376,0.0008890527533367276,-0.0013026926899328828,0.0004661637358367443
1783696324357906200,9.53090625,-0.0009399270638823509,0.0011849349830299616,-0.0007047603139653802
1783696324367870200,9.5408701171875,0.0008768812986090779,0.00022939278278499842,-0.000760953058488667
1783696324377833200,9.550833251953126,-0.00224097422324121,-0.0020460914820432663,-0.000519769499078393
1783696324387796200,9.560796142578125,-0.0007037976174615324,-0.0005049202591180801,0.0009537575533613563
1783696324397759000,9.570759033203124,0.0010743283201009035,-0.0010957792401313782,0.0005975281819701195
1783696324407723000,9.580722900390626,-0.00038934507756493986,-0.001032395986840129,0.001182358362711966
1783696324417686000,9.59068603515625,0.00024572532856836915,0.0004797813016921282,-0.00028046255465596914
1783696324427649000,9.60064892578125,-0.00020275097631383687,-0.001153801684267819,0.00012540322495624423
1783696324437613000,9.610613037109376,0.0011425248812884092,0.0013129252474755049,-0.0004282899899408221
1783696324447576000,9.620576171875,-0.0002748094266280532,-0.001748112146742642,0.0000012778909876942635
1783696324457539000,9.6305390625,-0.0002118052216246724,-0.0006003635935485363,-0.0020848617423325777
1783696324468125200,9.641125244140625,0.0003671659796964377,0.0005538505502045155,-0.0015556917060166597
1783696324478088200,9.651088134765626,0.0006808876059949398,-0.0007735125254839659,-0.00108996219933033
1783696324488052200,9.66105224609375,0.0009029952343553305,0.0010550138540565968,0.00041312590474262834
1783696324498015200,9.67101513671875,0.00045259346370585263,-0.0009610042907297611,0.00018895562971010804
1783696324507978000,9.68097802734375,-0.0010001608170568943,-0.0011721928603947163,-0.00031864282209426165
1783696324517942000,9.69094189453125,-0.0009273784817196429,0.0017952321795746684,-0.0005430751480162144
1783696324527904800,9.70090478515625,-0.0006735792267136276,0.001121452427469194,0.0010239288676530123
1783696324537867800,9.71086767578125,-0.0007159834494814277,-0.001715199206955731,0.0002981126308441162
1783696324547831800,9.720831787109375,-0.000770578277297318,-0.0005926768062636256,-0.0011636964045464993
1783696324557794800,9.730794921875,-0.0003351547638885677,0.001264817314222455,0.0004425821825861931
1783696324567757800,9.7407578125,-0.000009450188372284174,-0.00011549913324415684,-0.0004972473252564669
1783696324577721900,9.750721923828126,-0.000587803078815341,-0.0000676631461828947,0.0012354911305010319
1783696324587684900,9.760684814453125,-0.00017288257367908955,-0.00048418145161122084,0.0007697042892687023
1783696324597647600,9.770647705078124,0.0005477158701978624,0.0012224800884723663,-0.00046910601668059826
1783696324607611600,9.780611572265625,0.0008214888512156904,-0.0008209632942453027,0.00031146645778790116
1783696324617574700,9.79057470703125,-0.0007125340052880347,-0.00016283662989735603,-0.0014887796714901924
1783696324627537700,9.80053759765625,0.0001932070590555668,0.000929325760807842,-0.0005737175233662128
1783696324637501700,9.810501708984376,0.0003733739140443504,-0.0012400061823427677,0.0003287115250714123
1783696324647464700,9.820464599609375,-0.0007022768259048462,-0.0012951334938406944,-0.001159196486696601
1783696324657427700,9.830427734375,-0.00175901607144624,0.001717793638817966,-0.00029104750137776136
1783696324667390700,9.840390625,-0.0009965531062334776,-0.000029506278224289417,0.0006359988474287093
1783696324677354800,9.850354736328125,0.00029235315741971135,0.0010104861576110125,-0.001171779353171587
1783696324687317800,9.86031787109375,0.0002635910059325397,-0.00018820259720087051,-0.0017603379674255848
1783696324697280800,9.87028076171875,-0.0005167226772755384,-0.0007611598121002316,-0.0010072585428133607
1783696324707244800,9.880244873046875,-0.0012379067484289408,0.0005328701809048653,0.0007962341769598424
1783696324717207600,9.89020751953125,-0.0013157122302800417,-0.0006357027450576425,-0.0009102558251470327
1783696324727170800,9.9001708984375,0.0011149549391120672,0.0008908211602829397,0.0006117407465353608
1783696324737134600,9.910134521484375,-0.0000064779596868902445,0.00021972204558551311,-0.0012526648351922631
1783696324747097900,9.920097900390624,-0.0008405800326727331,-0.0002798869973048568,-0.0004989902954548597
1783696324757060900,9.930060791015626,-0.0002138891286449507,0.0013295745011419058,-0.0007549833972007036
1783696324767024600,9.940024658203125,0.0006681497907266021,-0.001490446855314076,0.0015659614000469446
1783696324776988000,9.94998779296875,-0.00040699716191738844,-0.0005352277075871825,-0.0009419479174539447
1783696324786951000,9.959950927734376,-0.0009374988148920238,0.002071740571409464,-0.0008372857701033354
1783696324796914700,9.969914794921875,0.0008721356280148029,0.00014993874356150627,0.00031448504887521267
1783696324806878000,9.9798779296875,0.00173819565679878,-0.0016162695828825235,-0.000919357524253428
1783696324816840700,9.9898408203125,0.0006270186277106404,0.0008647908107377589,0.0009015310788527131
1783696324826805000,9.999804931640625,-0.0012457163538783789,0.00034094706643372774,0.0011713092681020498
1783696324836767700,10.009767822265625,0.00012017055996693671,0.00017555593512952328,-0.0006827391916885972
1783696324846730800,10.019730712890626,-0.0004385606443975121,0.0007555924239568412,-0.0005293410504236817
1783696324856694800,10.02969482421875,-0.0003121658810414374,-0.00025828462094068527,-0.0011071139015257359
1783696324866657800,10.03965771484375,-0.0005156314000487328,0.0012219003401696682,-0.0010945971589535475
1783696324876620800,10.049620849609376,0.0004569097945932299,-0.0005234136478975415,-0.000012470758520066738
1783696324886584800,10.059584716796875,-0.000059210811741650105,-0.0006874642567709088,-0.0008172780508175492
1783696324896547800,10.0695478515625,0.00025920511689037085,0.001369824050925672,0.001017278991639614
1783696324906510800,10.0795107421875,-0.0006878150161355734,0.00026168266776949167,0.0012079613516107202
1783696324916475000,10.089474853515625,0.0003298453229945153,0.0004056274192407727,0.0001397373853251338
1783696324926438000,10.09943798828125,-0.00128802505787462,0.0001017607282847166,-0.000445625395514071
1783696324936400600,10.109400634765626,-0.0006135797593742609,-0.0014116839738562703,0.0017087070737034082
1783696324946365000,10.119364990234375,-0.00010172021575272083,0.0016400321619585156,-0.00031849113292992115
1783696324956327700,10.12932763671875,-0.006424359045922756,0.0715605616569519,0.06240297853946686
1783696324966290700,10.139290771484376,-0.013740062713623047,0.2358861267566681,0.256820410490036
1783696324976254700,10.149254638671875,-0.014173123985528946,0.2162531167268753,0.26014259457588196
1783696324986217700,10.1592177734375,-0.0036845295690000057,0.026186775416135788,0.07021847367286682
1783696324996180700,10.1691806640625,0.006612091790884733,-0.12573201954364777,-0.1143251582980156
1783696325006144800,10.179144775390625,0.007282142993062735,-0.10837060958147049,-0.17114689946174622
1783696325016107800,10.189107666015625,0.009227102622389793,-0.04667938873171806,-0.142215758562088
1783696325026070800,10.19907080078125,0.0036339317448437214,-0.03816499933600426,-0.0928758978843689
1783696325036034800,10.209034912109376,-0.0012811662163585424,-0.07103032618761063,-0.04776345193386078
1783696325045997800,10.218997802734375,0.00032445360557176173,-0.05476640537381172,0.009654569439589977
