time,seconds_elapsed,z,y,x
1783696380516626700,0.067626708984375,-0.0004586783761624247,-0.013689670711755753,-0.005355066619813442
1783696380526589700,0.077589599609375,-0.0008946378948166966,-0.003914537373930216,-0.0036093650851398706
1783696380536552700,0.087552734375,0.0008518688846379519,0.013048132881522179,0.0038699107244610786
1783696380546515700,0.097515625,0.000016701611457392573,0.005238679237663746,0.0026160944253206253
1783696380556478700,0.107478759765625,0.0008963002474047244,-0.01093963161110878,-0.005851306952536106
1783696380566442800,0.11744287109375,-0.0005844173720106483,-0.0017876789206638932,-0.0025748200714588165
1783696380576405800,0.12740576171875,-0.001961569767445326,0.012364683672785759,0.004117877222597599
1783696380586368800,0.13736865234375,-0.001493918476626277,-0.0023990829940885305,0.0029380968771874905
1783696380596331800,0.147331787109375,-0.0003204556996934116,-0.007883173413574696,-0.0031286459416151047
1783696380606294500,0.15729443359375,-0.00012684387911576778,0.006187638733536005,-0.0012282143579795957
1783696380616258800,0.1672587890625,0.00024762237444519997,0.00569595443084836,0.00496717169880867
1783696380626221600,0.1772216796875,-0.0003321478143334389,-0.00587042048573494,0.00027201883494853973
1783696380636184600,0.1871845703125,-0.0007620287942700088,-0.00300526968203485,-0.0037551140412688255
1783696380646147800,0.19714794921875,-0.000821949914097786,0.0007604400743730366,-0.00020884908735752106
1783696380656110800,0.20711083984375,-0.0019568647257983685,0.001251822104677558,0.002528967335820198
1783696380666075000,0.217074951171875,0.00043971382547169924,-0.0007644571596756577,-0.0014247616054490209
1783696380676038000,0.227037841796875,0.00101576279848814,-0.0015397033421322703,-0.003607222344726324
1783696380686001000,0.2370009765625,-0.00013738599955104291,0.001721869921311736,-0.00030809815507382154
1783696380695964000,0.2469638671875,0.00040282425470650196,0.0024843618739396334,0.002665141597390175
1783696380705926700,0.2569267578125,-0.0007652381900697947,-0.003429986536502838,-0.0002211923711001873
1783696380715890700,0.266890625,0.0012877832632511854,0.0011498455423861742,-0.003084375523030758
1783696380725853700,0.276853759765625,0.0003391652717255056,0.0026209757197648287,0.0015135720605030656
1783696380735816700,0.286816650390625,0.0003657734487205744,-0.0008722286438569427,0.000627464207354933
1783696380745779700,0.29677978515625,0.0010422164341434836,0.0013001118786633015,-0.002058600075542927
1783696380755742700,0.30674267578125,-0.0009262515231966972,0.0007096539484336972,0.00010564550757408142
1783696380765705700,0.316705810546875,-0.0017270640237256885,-0.0011881146347150207,0.0015389587497338653
1783696380775669800,0.326669677734375,-0.0007408063393086195,0.002950258320197463,0.0010728990891948342
1783696380785632800,0.3366328125,-0.001483029336668551,0.0006985556683503091,-0.0014552396023645997
1783696380795595500,0.346595458984375,-0.00037229774170555174,-0.0009867734042927623,-0.0013409649254754186
1783696380805558800,0.356558837890625,0.0001273112720809877,0.002486521378159523,0.00030460237758234143
1783696380815521800,0.366521728515625,0.0007423207280226052,0.0011771315475925803,0.0009038073476403952
1783696380825485800,0.37648583984375,0.0017913398332893848,-0.0010061279172077775,-0.0005689207464456558
1783696380835448800,0.38644873046875,-0.0006731203757226467,0.0014814732130616903,0.000398432370275259
1783696380845411800,0.396411865234375,-0.0004092011076863855,-0.0005848734872415662,0.0016767496708780527
1783696380855374800,0.406374755859375,0.00014617061242461205,-0.0010501049691811204,-0.0008089771727100015
1783696380865337900,0.416337890625,0.0007863945793360472,0.0021214536391198635,-0.002896629273891449
1783696380875300600,0.426300537109375,0.00017068642773665488,-0.00005034112837165594,0.0018390410114079714
1783696380885264600,0.4362646484375,0.0015957439318299294,-0.0004420920740813017,0.0005471415352076292
1783696380895227600,0.4462275390625,-0.00014008654397912323,0.0027022373396903276,-0.00042057642713189125
1783696380905190700,0.456190673828125,0.000020768376998603344,-0.0003196514444425702,-0.0015321798855438828
1783696380915153700,0.466153564453125,0.0017076630610972643,-0.0007453466532751918,-0.0014843420358374715
1783696380925116700,0.47611669921875,-0.00006919809675309807,0.0023705516941845417,-0.0007666201563552022
1783696380935080700,0.486080810546875,-0.001559901749715209,-0.001409573364071548,0.00032357219606637955
1783696380945043700,0.496043701171875,0.000057702272897586226,-0.000219939392991364,-0.0005656572757288814
1783696380955006700,0.5060068359375,-0.000023648739443160594,0.0009720622911117971,-0.000011806376278400421
1783696380964969700,0.5159697265625,-0.0007445664377883077,-0.0011653907131403685,0.0017019377555698156
1783696380974932700,0.5259326171875,0.0009658384369686246,-0.000056682154536247253,-0.0022008190862834454
1783696380984896800,0.535896728515625,0.0006774180801585317,0.0002865992719307542,0.0005238609737716615
1783696380994859800,0.54585986328125,-0.003070597071200609,0.000010991119779646397,-0.000016940291970968246
1783696381004822800,0.55582275390625,0.00048605463234707713,0.0009084763587452471,-0.0007871264824643731
1783696381014785800,0.565785888671875,0.00019019728642888367,0.0008552938234061003,-0.00031711847987025976
1783696381024748800,0.575748779296875,-0.0003155370068270713,-0.002574857324361801,-0.00017650355584919453
1783696381034711800,0.5857119140625,0.00042132611270062625,0.001030564890243113,-0.0012682793894782662
1783696381044675800,0.59567578125,-0.0007555247284471989,0.0002814176259562373,-0.001430998439900577
1783696381054638800,0.605638916015625,-0.00034097384195774794,-0.0022536031901836395,-0.0011531072668731213
1783696381064601600,0.6156015625,-0.0002949011395685375,-0.00033559452276676893,-0.0013200873509049416
1783696381074564600,0.625564697265625,0.0008054164936766028,-0.0006884920876473188,-0.0008436231873929501
1783696381084527600,0.635527587890625,-0.00197598896920681,-0.0027042385190725327,-0.0010343055473640561
1783696381094491600,0.64549169921875,0.00029393561999313533,0.0018804724095389247,-0.0011719074100255966
1783696381104454700,0.65545458984375,-0.00017478075460530818,-0.0006649770075455308,0.0025202990509569645
1783696381114417700,0.665417724609375,0.0011127907782793045,-0.0008228668011724949,-0.000678782700560987
1783696381124381000,0.675380859375,-0.0012502321042120457,0.0032304644118994474,-0.0012686728732660413
1783696381134344000,0.685343994140625,-0.0007029181579127908,-0.0005501701962202787,0.0018280611839145422
1783696381144308000,0.695307861328125,-0.00004511734005063772,-0.0010657580569386482,-0.0005575984250754118
1783696381154270700,0.705270751953125,0.0022375420667231083,0.0024987030774354935,-0.00008202844765037298
1783696381164233700,0.715233642578125,0.0005589516367763281,-0.0023312056437134743,-0.00022211077157408
1783696381174196700,0.72519677734375,0.0005398805951699615,-0.002285661641508341,0.00021206121891736984
1783696381184159700,0.73515966796875,-0.0011530908523127437,0.0034622387029230595,-0.0004705069586634636
1783696381194122800,0.745122802734375,0.00038590875919908285,-0.002047085203230381,0.0005748988478444517
1783696381204086800,0.755086669921875,-0.0007161073153838515,-0.0006316151702776551,-0.0016147521091625094
1783696381214049800,0.7650498046875,-0.0007811181130819023,0.0005646552890539169,0.000785749638453126
1783696381224012800,0.7750126953125,-0.0003398323315195739,-0.0006649261340498924,0.0014558009570464492
1783696381233975600,0.7849755859375,-0.0003528646193444729,-0.0011499065440148115,-0.0015700646908953786
1783696381243938600,0.7949384765625,-0.0014117374084889889,0.0005848765140399337,-0.0000392798101529479
1783696381253902600,0.804902587890625,-0.0010640749242156744,-0.0017849785508587956,0.0005422685644589365
1783696381263865600,0.814865478515625,-0.0004885658854618669,0.0001977449283003807,-0.0004332473035901785
1783696381273828900,0.824828857421875,-0.0018316293135285378,0.0015745649579912424,0.00043344066943973303
1783696381283792000,0.8347919921875,0.0016350073274224997,-0.0010486486135050654,-0.0000025187619030475616
1783696381293755000,0.8447548828125,0.00035805950756184757,0.000009508104994893074,-0.00020341516938060522
1783696381303719000,0.854718994140625,-0.0005386268021538854,0.0010010029654949903,0.001356398337520659
1783696381313682000,0.864681884765625,-0.00015958667790982872,-0.002518879249691963,0.00036365428240969777
1783696381323644700,0.874644775390625,0.0006159258191473782,0.0002175190020352602,-0.0007436880841851234
1783696381333607700,0.884607666015625,0.002096417360007763,0.0012852451764047146,0.000046647386625409126
1783696381343570700,0.89457080078125,0.0005842745304107666,-0.0011582050938159227,-0.0005328565603122115
1783696381353533700,0.90453369140625,0.0009871323127299547,0.0006592102581635118,-0.0003346236189827323
1783696381363497700,0.914497802734375,-0.0006307379808276892,-0.000398863572627306,0.0006025427137501538
1783696381373460700,0.924460693359375,0.0007642422569915652,-0.0024318541400134563,0.0017107268795371056
1783696381383423700,0.934423828125,0.0011013983748853207,0.0035546659491956234,-0.0007156791398301721
1783696381393386800,0.94438671875,-0.0005665821954607964,0.0004615994403138757,0.0009352510678581893
1783696381403349800,0.954349853515625,0.000856877479236573,-0.0019403054611757398,-0.0004482610384002328
1783696381413313800,0.964313720703125,-0.00012243397941347212,0.0012721946695819497,0.0005677944864146411
1783696381423276500,0.974276611328125,0.0005590689252130687,0.0000868217321112752,0.0008301158668473363
1783696381433239800,0.98423974609375,0.0004008180694654584,-0.0011860138038173318,-0.0016294042579829693
1783696381443202800,0.994202880859375,-0.00010891094279941171,0.0013024440268054605,0.00012828211765736341
1783696381453165800,1.004165771484375,-0.0005899346433579922,-0.0030572260729968548,-0.00012104795314371586
1783696381463128800,1.01412890625,-0.0009515919373370707,-0.0006681045051664114,0.00036631047260016203
1783696381473092900,1.0240927734375,-0.002301934640854597,0.001429303316399455,0.0007523968815803528
1783696381483055900,1.034055908203125,-0.00005262880586087704,-0.0004743242170661688,0.0012091289972886443
1783696381493019000,1.044018798828125,0.000569430529139936,0.00047195772640407085,-0.00035794300492852926
1783696381502981600,1.053981689453125,0.0008434697519987822,0.0012538618175312877,0.00114541151560843
1783696381512944600,1.063944580078125,-0.0013331236550584435,-0.0008444208651781082,0.0020366606768220663
1783696381522908700,1.07390869140625,-0.000022315740352496505,-0.0006545374635607004,-0.0006515340646728873
1783696381532871700,1.08387158203125,0.0014388030394911766,0.0014176849508658051,-0.00008624698966741562
1783696381542834700,1.093834716796875,-0.000457900227047503,-0.001897151698358357,-0.00018052291125059128
1783696381552797700,1.103797607421875,0.00005122023867443204,0.0004197628004476428,-0.000056224758736789227
1783696381562760700,1.1137607421875,-0.00011602629092521966,0.001723380177281797,0.0007887962274253368
1783696381572724700,1.123724853515625,0.00017341351485811174,-0.0017557857790961862,0.001409277436323464
1783696381582688000,1.13368798828125,0.0005870024324394763,0.00011242181062698364,0.0000667779240757227
1783696381592651000,1.143651123046875,-0.001500014797784388,0.0005807450506836176,0.0006466263439506292
1783696381602614000,1.153614013671875,-0.00038148710154928267,-0.0018459274433553219,-0.000025821849703788757
1783696381612577000,1.163576904296875,0.0002222662151325494,-0.0003854365786537528,-0.00008211156819015741
1783696381622540000,1.1735400390625,0.0004310580261517316,0.00034293788485229015,0.0014641197631135583
1783696381632504000,1.183504150390625,0.00006137992022559047,-0.0012398628750815988,0.00037307466845959425
1783696381642467000,1.193467041015625,0.0007319638971239328,0.0006909288931638002,-0.0015755604254081845
1783696381652430000,1.20343017578125,-0.0005151701043359935,0.0006790881743654609,0.001240484998561442
1783696381662393000,1.21339306640625,-0.0014472764451056719,-0.0013086951803416014,-0.00039975589606910944
1783696381672355800,1.22335595703125,0.0005252297851257026,0.0020362036302685738,0.0005144629976712167
1783696381682320100,1.233320068359375,-0.0004177955270279199,0.000876130536198616,0.0005794441094622016
1783696381692283000,1.243282958984375,-0.00035814259899780154,-0.0013838427839800715,0.0007378600421361625
1783696381702246000,1.253245849609375,0.0005531910574063659,0.0006313712219707668,0.000012414995580911636
1783696381712209000,1.263208984375,-0.00035548669984564185,-0.00004114094190299511,0.0006437393603846431
1783696381722172000,1.273171875,0.0005169648211449385,-0.001228111912496388,-0.0008407067507505417
1783696381732135200,1.28313525390625,-0.0001065627729985863,0.00076292734593153,-0.0008559429552406073
1783696381742099000,1.293098876953125,-0.0013198989909142256,-0.0009039451833814383,0.00224264501594007
1783696381752062200,1.303062255859375,-0.0004566292918752879,0.0006183497025631368,-0.001107221469283104
1783696381762025200,1.313025146484375,0.0001684146118350327,0.0017158383270725608,0.0009439450805075467
1783696381771988000,1.322988037109375,-0.0016022950876504183,-0.0009238946950063109,0.0013257523532956839
1783696381781951000,1.332950927734375,0.0011894968338310719,-0.0008661040337756276,0.0008093654178082943
1783696381791915000,1.3429150390625,0.0007043378427624702,0.0018964542541652918,-0.000712496810592711
1783696381801878000,1.3528779296875,-0.0000035304256016388535,-0.00011103646829724312,0.0007186859147623181
1783696381811841000,1.362841064453125,-0.0001682319852989167,-0.0006037465063855052,-0.0006968749221414328
1783696381821804000,1.372803955078125,-0.00019433096167631447,0.00006337533704936504,0.0013260622508823872
1783696381831767000,1.38276708984375,0.0004826598451472819,-0.002602559281513095,-0.00015593809075653553
1783696381841730000,1.39272998046875,-0.00040603699744679034,-0.00018440908752381802,-0.002061696257442236
1783696381851694000,1.402694091796875,0.00017830148863140494,0.0006558532477356493,-0.0001864240039139986
1783696381861656800,1.41265673828125,0.0009242529631592333,-0.0018049075733870268,-0.00018136401195079088
1783696381871619800,1.422619873046875,-0.0016540688229724765,0.001175649813376367,-0.00140262464992702
1783696381881582800,1.432582763671875,0.0012586304219439626,0.0005181153537705541,0.001081571914255619
1783696381891546000,1.442546142578125,0.0007570310262963176,-0.003099262248724699,0.001395739265717566
1783696381901510000,1.452510009765625,0.0005522338906303048,0.002154089044779539,-0.0011995112290605903
1783696381911473200,1.46247314453125,0.00037625007098540664,0.0011070423061028123,-0.00018071022350341082
1783696381921436200,1.472436279296875,-0.0009236388723365963,-0.0017529262695461512,0.0013708473416045308
1783696381931399200,1.482399169921875,-0.00022245344007387757,0.00170000025536865,0.0005056381342001259
1783696381941362000,1.49236181640625,0.0019496206659823656,0.0009196940227411687,0.0005514445365406573
1783696381951325000,1.502324951171875,-0.00003066797216888517,-0.0032963519915938377,0.0014688747469335794
1783696381961289000,1.5122890625,-0.000633341318462044,-0.0001620774855837226,0.00047711358638480306
1783696381971252000,1.522251953125,-0.0006545132491737604,0.000894215190783143,0.0007671215571463108
1783696381981215000,1.532215087890625,-0.0005591720691882074,-0.0022749463096261024,-0.00016684900037944317
1783696381991178000,1.542177978515625,0.0008006893913261592,0.0008227013750001788,0.0005706155789084733
1783696382001141000,1.55214111328125,0.0003966878866776824,-0.0005059497198089957,0.0007519768550992012
1783696382011104000,1.56210400390625,-0.0007897646864876151,-0.0009624562226235867,-0.0015274826437234879
1783696382021068000,1.572068115234375,0.0006304990965873003,0.001591781503520906,-0.0007884554797783494
1783696382031030800,1.58203076171875,0.0014870469458401203,-0.00027752481400966644,0.00037082534981891513
1783696382040994000,1.591994140625,-0.000018970691598951817,-0.001763302250765264,-0.0018084392650052905
1783696382050957000,1.60195703125,-0.0005066152662038803,0.0029157991521060467,-0.001821176614612341
1783696382060920000,1.611920166015625,0.00018340974929742515,-0.00016894051805138588,-0.0007569774752482772
1783696382070884000,1.621884033203125,-0.0003057486319448799,0.00015990855172276497,0.0005342920194379985
1783696382080847000,1.63184716796875,0.0003493890108074993,0.00304917199537158,-0.00006438663695007563
1783696382090810000,1.64181005859375,0.0006679579964838922,-0.00222951453179121,-0.0006602314533665776
1783696382100773000,1.651773193359375,-0.00030755792977288365,-0.0013397525763139129,-0.0012088427320122719
1783696382110736000,1.66173583984375,0.0015618136385455728,0.0012054096441715956,0.00015156116569414735
1783696382120700000,1.671699951171875,-0.00034421065356582403,-0.0007570737507194281,-0.0002926541492342949
1783696382130663000,1.681662841796875,-0.0011654846603050828,-0.0010363183682784438,-0.0008554679807275534
1783696382140626000,1.6916259765625,-0.00006693070463370532,0.000983156729489565,0.0014383125817403197
1783696382150589000,1.7015888671875,0.00045242859050631523,-0.00017439201474189758,-0.00007943552918732166
1783696382160552000,1.711552001953125,-0.00020803537336178124,0.0007579806842841208,-0.0013582854298874736
1783696382170515000,1.721514892578125,-0.0004099700599908829,0.0010208997409790754,-0.0002755450550466776
1783696382180479000,1.73147900390625,0.0023943386040627956,-0.0014190883375704288,-0.00004917639307677746
1783696382190442000,1.74144189453125,0.0012903542956337333,0.001830908702686429,-0.0005764925153926015
1783696382200405000,1.751405029296875,-0.0013184782583266497,0.0013824324123561382,0.0002655990538187325
1783696382210368000,1.761367919921875,0.001216687262058258,-0.0022827135398983955,-0.0010253494838252664
1783696382220331000,1.7713310546875,0.00024516606936231256,0.002148786559700966,-0.0013087099650874734
1783696382230295000,1.781294921875,0.0017609262140467763,0.00020994083024561405,-0.0007868685061112046
1783696382240258000,1.791258056640625,-0.00030861623235978186,-0.0019746501930058002,-0.0005122966831550002
1783696382250221000,1.801220947265625,-0.0018534284317865968,0.0017776547465473413,-0.00042584689799696207
1783696382260184000,1.81118408203125,0.0010012139100581408,-0.00019548134878277779,0.001933980151079595
1783696382270147000,1.82114697265625,0.0002776480105239898,-0.0015927363419905305,0.0005503764259628952
1783696382280109800,1.83110986328125,0.0012861870927736163,0.0012781512923538685,0.0015993955312296748
1783696382290074000,1.84107421875,0.0008445745334029198,-0.00006330129690468311,0.0011686797952279449
1783696382300036900,1.851036865234375,-0.0009935391135513783,-0.0015195177402347326,-0.0010100522777065635
1783696382309999900,1.860999755859375,-0.0003178539336659014,0.0009004520252346992,-0.0004954243777319789
1783696382319963000,1.870962890625,0.0005042639095336199,-0.0004343243781477213,0.0006228369893506169
1783696382329926000,1.88092578125,0.002179811941459775,-0.0011429593432694674,0.0013808533549308777
1783696382339889200,1.89088916015625,-0.00034326696186326444,0.0028222212567925453,-0.001667134347371757
1783696382349853000,1.90085302734375,0.0008670555544085801,-0.0008017919026315212,0.001076850458048284
1783696382359816200,1.910816162109375,0.0003290970344096422,-0.001128561794757843,-0.00008322251960635185
1783696382369779200,1.920779296875,0.0004054051823914051,0.0013315763790160418,0.0024528091307729483
1783696382379742000,1.930741943359375,-0.0007030024426057935,-0.0019252033671364188,0.0014780922792851925
1783696382389705000,1.940705078125,-0.00043890613596886396,-0.0014685351634398103,0.00019407185027375817
1783696382399668000,1.95066796875,-0.001477006240747869,0.000888895068783313,0.00037090573459863663
1783696382409632000,1.960632080078125,0.0005018014344386756,-0.001592145999893546,-0.0012089450610801578
1783696382419595000,1.970594970703125,-0.0017264655325561762,-0.0014627163764089346,-0.0004864293150603771
1783696382429558000,1.98055810546875,-0.0004179048119112849,-0.0005647377111017704,0.0008394533069804311
1783696382439521000,1.99052099609375,0.000516065745614469,-0.0022310775239020586,-0.0009155698353424668
1783696382449484000,2.000484130859375,-0.00027674954617395997,0.0003769621253013611,-0.00038834556471556425
1783696382459448000,2.010447998046875,-0.0010285598691552877,0.0016275824746116996,0.001756830606609583
1783696382469410800,2.020410888671875,0.0004961388767696917,-0.002015207428485155,-0.0009658320341259241
1783696382479373800,2.030373779296875,0.0003762966371141374,0.00034621753729879856,-0.001267035724595189
1783696382489337000,2.040337158203125,0.00048676697770133615,-0.0008400398073717952,0.0016045888187363744
1783696382499300000,2.050300048828125,-0.0003398782282602042,-0.002687741070985794,-0.0012670977739617229
1783696382509263000,2.06026318359375,-0.0005100374110043049,0.0003448459319770336,-0.0013295498210936785
1783696382519227100,2.07022705078125,-0.001483422820456326,0.00017466989811509848,0.0003791344352066517
1783696382529190100,2.080190185546875,-0.0010440557962283492,-0.001420521060936153,0.0026987448800355196
1783696382539153200,2.090153076171875,0.0010856741573661566,0.002274082275107503,-0.00024644494988024235
1783696382549116000,2.100115966796875,0.0007637852104380727,0.0008560732239857316,0.0010197150986641645
1783696382559079000,2.110078857421875,0.00042210170067846775,-0.0012118712766095996,-0.0002812390448525548
1783696382569043000,2.12004296875,-0.00022629022714681923,0.0012648551492020488,-0.001026113866828382
1783696382579006000,2.130005859375,0.001287450548261404,0.0009764347923919559,-0.00009187695104628801
1783696382588968700,2.13996875,0.00045919406693428755,-0.0018205145606771111,0.0003016739501617849
1783696382598931700,2.149931640625,0.0017995631787925959,0.0021025878377258778,-0.0002493341453373432
1783696382608894700,2.159894775390625,0.00106796994805336,-0.0007806071080267429,0.00026646320475265384
1783696382618858000,2.16985791015625,-0.0007238048128783703,-0.0012293497566133738,-0.0007420758483931422
1783696382628821800,2.17982177734375,0.0011422440875321627,0.0024617216549813747,-0.0002405878622084856
1783696382638784800,2.18978466796875,-0.0009395488887093961,-0.0004911912837997079,-0.0005710861878469586
1783696382648747800,2.199747802734375,0.000006481364835053682,0.00024720351211726665,-0.0005803147796541452
1783696382658710800,2.209710693359375,0.0010970458388328552,0.001694098929874599,-0.00013370264787226915
1783696382668673800,2.219673828125,0.0007201088592410088,-0.0019810982048511505,0.0008796921465545893
1783696382678636800,2.22963671875,-0.00016805538325570524,-0.00013712525833398104,-0.000026581576094031334
1783696382688600800,2.239600830078125,0.00021853068028576672,0.0024634599685668945,-0.0009248658316209912
1783696382698563800,2.249563720703125,0.00011200422886759043,-0.001986948773264885,-0.0005610780790448189
1783696382708526800,2.25952685546875,-0.00041588733438402414,0.0002666790969669819,0.000010009505786001682
1783696382718489600,2.269489501953125,-0.0008017793297767639,0.0015628396067768335,0.000015069497749209404
1783696382728452600,2.27945263671875,-0.0001714233949314803,-0.0029596551321446896,-0.00015191768761724234
1783696382738416600,2.289416748046875,-0.00016210234025493264,-0.00038970483001321554,-0.0005215643905103207
1783696382748379600,2.299379638671875,-0.0002952562354039401,0.0012896640691906214,0.0007338934810832143
1783696382758342700,2.3093427734375,0.0006805260200053453,-0.0001875914167612791,-0.0011867781868204474
1783696382768305700,2.3193056640625,0.00019587847054935992,-0.0005572603549808264,-0.0005039590178057551
1783696382778269000,2.32926904296875,-0.0007250425987876952,0.0006227864068932831,0.00011549226474016905
1783696382788232000,2.33923193359375,-0.0012878556735813618,-0.0017998991534113884,-0.00017114041838794947
1783696382798195700,2.34919580078125,0.00008606910705566406,0.0016105449758470058,-0.0005668861558660865
1783696382808158700,2.35915869140625,-0.0004893842269666493,-0.00004616868682205677,0.000021149171516299248
1783696382818121700,2.369121826171875,-0.00013198802480474114,-0.001976693980395794,-0.000010808813385665417
1783696382828084700,2.379084716796875,-0.0006004827446304262,0.0012256265617907047,0.0012291409075260162
1783696382838047700,2.3890478515625,0.0012373647186905146,0.000994464149698615,0.0008152856607921422
1783696382848010800,2.3990107421875,0.0009384037693962455,-0.0019754683598876,-0.00008024286944419146
1783696382857974800,2.408974853515625,-0.0012371324701234698,-0.00017676933202892542,0.0007013948634266853
1783696382867937800,2.418937744140625,-0.0004988720174878836,0.00005167815834283829,0.0011140102287754416
1783696382877900800,2.42890087890625,0.0005935566732659936,-0.0013819015584886074,0.00037152093136683106
1783696382887863600,2.438863525390625,-0.0011570933274924755,0.002055523218587041,-0.0011419049696996808
1783696382897826600,2.44882666015625,-0.0006798548856750131,-0.0011024533305317163,0.00011430808808654547
1783696382907789800,2.458789794921875,0.00005758259794674814,-0.00010452966671437025,-0.0015626081731170416
1783696382917753600,2.468753662109375,0.0018605425721034408,0.002722682198509574,0.001292300526984036
1783696382927716600,2.478716552734375,-0.00044782256009057164,-0.0013591957977041602,0.0006442702724598348
1783696382937680000,2.488679931640625,0.00004619380342774093,0.0006445664912462234,-0.0016612282488495111
1783696382947643000,2.498642822265625,0.000618287711404264,0.0019429735839366913,-0.0005797644844278693
1783696382957606000,2.50860595703125,-0.00008265624637715518,0.00005266175139695406,0.0005640631425194442
1783696382967570000,2.51856982421875,0.0007479033665731549,-0.00044751609675586224,0.00004565471317619085
1783696382977533000,2.528532958984375,0.00015082261234056205,0.003991973586380482,0.00008453684858977795
1783696382987495700,2.53849560546875,-0.00022595975315198302,-0.0012941830791532993,-0.0008617625571787357
1783696382997458700,2.548458740234375,-0.00018521338643040508,0.0011399462819099426,0.00016701652202755213
1783696383007421700,2.558421630859375,-0.0006105620414018631,0.0025145404506474733,-0.0004150192253291607
1783696383017384700,2.568384765625,-0.0006403894512914121,-0.0018599678296595812,-0.0002392505994066596
1783696383027348700,2.5783486328125,-0.0004525288240984082,-0.0010694657685235143,-0.00013756670523434877
1783696383037311700,2.588311767578125,0.0006534819258376956,0.002799308393150568,0.0001705610193312168
1783696383047274800,2.598274658203125,0.000024012348148971796,-0.0019246203592047095,0.0005703901988454163
1783696383057237800,2.60823779296875,-0.000027919290005229414,-0.00039143848698586226,-0.00024027610197663307
1783696383067200800,2.61820068359375,0.0006293106125667691,0.00220484659075737,-0.000042481813579797745
1783696383077164500,2.62816455078125,0.00019415008137002587,-0.0012468763161450624,0.00045046937884762883
1783696383087127800,2.6381279296875,-0.00007937288319226354,0.002223305869847536,-0.0011100112460553646
1783696383097090800,2.6480908203125,-0.00036779322545044124,0.0003007699269801378,-0.00010067329276353121
1783696383107053800,2.6580537109375,-0.0009525744244456291,-0.0007531219162046909,-0.0014671013923361897
1783696383117016800,2.668016845703125,-0.0013515159953385592,0.0010751381050795317,-0.0028820387087762356
1783696383126979800,2.677979736328125,-0.0008164884056895971,-0.00015611317940056324,-0.0003381443675607443
1783696383136943900,2.68794384765625,0.0006956544239073992,-0.0012251059524714947,-0.0006294941995292902
1783696383146907000,2.697906982421875,-0.0009333791094832122,0.0022489202674478292,-0.0011316898744553328
1783696383156869600,2.70786962890625,-0.0005104691372253001,-0.00034526491072028875,0.0005586184561252594
1783696383166832600,2.71783251953125,-0.0016672785859555006,-0.0015028052730485797,-0.001141466898843646
1783696383176795600,2.727795654296875,0.0004619185929186642,0.0027422732673585415,0.0002825252013280988
1783696383186758700,2.737758544921875,0.0002295859158039093,-0.0011599214049056172,-0.00029429339338093996
1783696383196722700,2.74772265625,-0.0013592559844255447,-0.0009868157794699073,-0.00020587642211467028
1783696383206685700,2.757685791015625,-0.0011034173658117652,0.0015870353672653437,0.0010344816837459803
1783696383216648700,2.767648681640625,0.0013413644628599286,-0.0016266012098640203,-0.0007000351324677467
1783696383226612000,2.777612060546875,-0.00044365349458530545,0.00034561636857688427,-0.0018048486672341824
1783696383236574700,2.78757470703125,-0.000414092413848266,0.0023152902722358704,-0.0010312004014849663
1783696383246537700,2.797537841796875,-0.00031371114891953766,-0.0014579351991415024,0.0012501010205596685
1783696383256501800,2.807501708984375,-0.000060178208514116704,-0.000038470374420285225,-0.001111057586967945
1783696383266464800,2.81746484375,-0.00021676522737834603,0.0031689798925071955,0.0024158554151654243
1783696383276427800,2.827427734375,0.00107087311334908,-0.001247872831299901,0.0004179519019089639
1783696383286390800,2.837390869140625,-0.00009911557572195306,0.0003193020820617676,-0.0005530096823349595
1783696383296353800,2.847353759765625,-0.0012024632887914777,0.0010668514296412468,-0.0002494093496352434
1783696383306317800,2.85731787109375,0.00007684933370910585,-0.0014719953760504723,-0.0008420313242822886
1783696383316280800,2.86728076171875,0.0012086927890777588,0.001339770038612187,0.000016838079318404198
1783696383326243600,2.87724365234375,0.0007071137079037726,0.0007097922498360276,-0.0002935185329988599
1783696383336206600,2.88720654296875,0.0004053775337524712,-0.001235114294104278,0.00031581276562064886
1783696383346169600,2.897169677734375,0.0005138767883181572,0.0010315654799342155,-0.00035964243579655886
1783696383356132900,2.9071328125,0.000757556059397757,0.002558355685323477,-0.0006975976284593344
1783696383366096600,2.9170966796875,0.0017230635276064277,-0.0022502820938825607,-0.0005333787994459271
1783696383376059600,2.9270595703125,-0.00047697380068711936,0.0008424469269812107,-0.001109686796553433
1783696383386023000,2.93702294921875,-0.001158019294962287,0.000361089245416224,-0.0012892467202618718
1783696383395986000,2.94698583984375,0.0015799766406416893,-0.0007241488201543689,-0.0005036143120378256
1783696383405948700,2.95694873046875,0.00018382338748779148,0.0023416304029524326,0.0010805993806570768
1783696383415911700,2.96691162109375,0.0007300377474166453,-0.0003945012576878071,0.0012731458991765976
1783696383425875700,2.976875732421875,0.00007075458415783942,-0.0003240309888496995,-0.0018896623514592648
1783696383435838700,2.986838623046875,0.000003110297257080674,0.0008509556646458805,-0.0013373226393014193
1783696383445801700,2.9968017578125,0.0009048385545611382,0.00018110626842826605,-0.0013178931549191475
1783696383455764700,3.0067646484375,-0.00014364799426402897,0.00015926838386803865,-0.00003824429586529732
1783696383465727700,3.016727783203125,0.0008401224040426314,0.0010661222040653229,-0.0011398385977372527
1783696383475690800,3.026690673828125,0.00006274567567743361,-0.0014969039475545287,0.0010388933587819338
1783696383485654800,3.03665478515625,-0.00020814216986764222,-0.000281557091511786,-0.002237559761852026
1783696383495617800,3.04661767578125,-0.000764476484619081,0.0021472456865012646,-0.00099386356305331
1783696383505580500,3.05658056640625,-0.0003261355450376868,-0.0013626161962747574,0.0013008106034249067
1783696383515543800,3.066543701171875,0.0005756107857450843,-0.0024510500952601433,0.0005593866226263344
1783696383525506800,3.0765068359375,0.0016659239772707224,0.0008542363648302853,0.0021865819580852985
1783696383535469800,3.0864697265625,-0.0002968256885651499,-0.002890168223530054,0.0004502007504925132
1783696383545433900,3.096433837890625,-0.0001962231326615438,-0.0006752701010555029,-0.00043247221037745476
1783696383555396900,3.10639697265625,0.0002474595094099641,0.0004754818510264158,0.0009558337042108178
1783696383565359900,3.11635986328125,0.0006442911690101027,-0.002062768442556262,-0.000006363377906382084
1783696383575323000,3.126322998046875,0.0010403032647445798,0.0007119791698642075,-0.001939551904797554
1783696383585286000,3.136285888671875,-0.0006278863875195384,0.00009632413275539875,0.0004952442832291126
1783696383595250000,3.14625,-0.0018356299260631204,-0.003982840105891228,0.0006712792092002928
1783696383605213000,3.156212890625,-0.00012149873509770259,0.0014958885731175542,-0.001366651151329279
1783696383615176000,3.166176025390625,-0.0021705348044633865,0.002036243909969926,-0.0013360248412936926
1783696383625138700,3.176138671875,-0.0000764219876145944,-0.0026300975587219,0.00018654693849384785
1783696383635101700,3.186101806640625,-0.0011081305565312505,0.002804082352668047,-0.0003572705900296569
1783696383645064700,3.196064697265625,0.0005126424366608262,0.002475178334861994,-0.00019479927141219378
1783696383655028700,3.20602880859375,-0.00004289297794457525,-0.002298537874594331,0.00018656544853001833
1783696383664991700,3.21599169921875,-0.0006133815040811896,0.0006071286625228822,0.00010736624244600534
1783696383674955000,3.225955078125,-0.0019628051668405533,0.0006550655816681683,0.0019406862556934357
1783696383684918000,3.23591796875,0.00032399705378338695,-0.002460118383169174,0.0000594917219132185
1783696383694881000,3.245881103515625,-0.0015601894119754434,0.0003497829893603921,-0.0004172141198068857
1783696383704843800,3.25584375,0.0019248907919973135,-0.00139024225063622,0.0017172100488096476
1783696383714808000,3.26580810546875,-0.00028100551571696997,-0.0005976853426545858,-0.00021198380272835493
1783696383724770800,3.275770751953125,0.0003972466220147908,0.0006470202351920307,-0.0011940456461161375
1783696383734733800,3.28573388671875,0.00042947084875777364,-0.0003806935856118798,0.002504552248865366
1783696383744696800,3.29569677734375,-0.0008663984481245279,-0.0009529313538223505,-0.0006181781645864248
1783696383754659800,3.305659912109375,-0.0002767746045719832,0.00028863432817161083,-0.0013870326802134514
1783696383764622800,3.315622802734375,0.00039323995588347316,0.00013658043462783098,-0.00005245010834187269
1783696383774587000,3.3255869140625,0.0014068391174077988,-0.001226425520144403,-0.0009504680056124926
1783696383784550000,3.3355498046875,0.00044956165947951376,0.002648273017257452,0.0005065566510893404
1783696383794513000,3.345512939453125,-0.0008561862632632256,0.00021520908921957016,0.0010695488890632987
1783696383804476000,3.355475830078125,0.00001171416079159826,-0.001015261048451066,-0.00008188141509890556
1783696383814439000,3.36543896484375,-0.00018908818310592324,0.0020417815539985895,-0.0011314332950860262
1783696383824402700,3.375402587890625,0.0009520366438664496,-0.0007790818344801664,-0.0009991272818297148
1783696383834366000,3.385365966796875,-0.0003646302211564034,0.00003691075835376978,-0.0021112633403390646
1783696383844329000,3.395328857421875,0.001201578532345593,-0.0000983185600489378,-0.00018429092597216368
1783696383854292000,3.4052919921875,0.0014591062208637595,-0.0017846320988610387,0.0013566140551120043
1783696383864255000,3.4152548828125,-0.0009968085214495659,-0.00004050636198371649,-0.0001988353906199336
1783696383874218000,3.425218017578125,-0.0011858929647132754,0.0011904067359864712,0.0001143523259088397
1783696383884182000,3.43518212890625,-0.0004610093601513654,-0.0013526948168873787,0.0004067757981829345
1783696383894144800,3.445144775390625,-0.00016939322813414037,0.0003645113902166486,-0.00007552269380539656
1783696383904107800,3.455107666015625,-0.0009357784874737263,0.0006661433726549149,0.0009707114077173173
1783696383914070800,3.46507080078125,-0.0011901103425770998,-0.0025118065532296896,0.00008840614464133978
1783696383924033800,3.47503369140625,-0.000425236823502928,-0.00015964906197041273,-0.00007057143375277519
1783696383933996800,3.484996826171875,-0.00046278740046545863,0.00005793117452412844,0.00016858044546097517
1783696383943960800,3.4949609375,0.0009861044818535447,-0.0009214465972036123,0.0014439764199778438
1783696383953923800,3.504923828125,-0.001821133540943265,0.0016762007726356387,-0.0007816273719072342
1783696383963887000,3.51488720703125,-0.0003162740031257272,-0.00013623922131955624,0.00048426451394334435
1783696383973849900,3.524849853515625,-0.0017847410636022687,-0.0003873753594234586,0.00038173276698216796
1783696383983812900,3.534812744140625,-0.0008082284475676715,0.0022112829610705376,-0.00020276964642107487
1783696383993775900,3.54477587890625,0.00018939172150567174,0.0003944744821637869,-0.00015962636098265648
1783696384003740000,3.554739990234375,0.00016697689716238528,-0.003014274872839451,-0.001078449422493577
1783696384013703000,3.564702880859375,0.0020032264292240143,0.0010949827264994383,-0.0006259784568101168
1783696384023666000,3.574666015625,-0.0000311945186695084,0.0013340195873752236,-0.0003764068242162466
1783696384033629000,3.58462890625,0.00021621314226649702,-0.000026855734176933765,-0.0008475200738757849
1783696384043592000,3.594592041015625,-0.00030529091600328684,0.0027842759154736996,0.0005362804513424635
1783696384053554700,3.6045546875,-0.00021421081328298897,0.001554960967041552,0.00032216229010373354
1783696384063518700,3.614518798828125,0.00010196704533882439,-0.0009762776317074895,-0.00019418122246861458
1783696384073481700,3.624481689453125,-0.00020323123317211866,0.0003097628941759467,0.0005360575160011649
1783696384083444700,3.63444482421875,0.00030857694218866527,0.00024229194968938828,-0.0006693287286907434
1783696384093407700,3.64440771484375,0.0011647832579910755,-0.0005334868328645825,0.00011523847933858633
1783696384103371000,3.65437109375,-0.0007852922426536679,0.0014654815895482898,0.0003075248678214848
1783696384113334800,3.664334716796875,0.00023869315919000655,-0.0018698612693697214,0.0008950181654654443
1783696384123298000,3.674298095703125,-0.0006173339206725359,0.0006250031292438507,0.0006220161449164152
1783696384133261000,3.684260986328125,0.0015046728076413274,0.0026444781105965376,-0.0006656222976744175
1783696384143223800,3.694223876953125,0.00028982586809433997,-0.002008357085287571,0.0006170982960611582
1783696384153186800,3.704186767578125,0.00044082707609049976,0.00004014652222394943,-0.0007592233596369624
1783696384163149800,3.71414990234375,0.00017066598229575902,0.002075418597087264,0.00031827070051804185
1783696384173113900,3.72411376953125,0.0010487101972103119,-0.001521979458630085,0.00045995082473382354
1783696384183076900,3.734076904296875,0.00024698476772755384,0.0012127262307330966,-0.0014398042112588882
1783696384193040000,3.744039794921875,-0.0005634151748381555,0.0006931435200385749,-0.0003644198877736926
1783696384203003000,3.7540029296875,-0.00005753643927164376,-0.0019468439277261496,-0.0004253374645486474
1783696384212966000,3.7639658203125,-0.0013406474608927965,0.00040632521267980337,-0.0005478429375216365
1783696384222928600,3.7739287109375,-0.0010707604233175516,0.0009661026997491717,-0.0022292635403573513
1783696384232893000,3.783892822265625,0.00018438731785863638,-0.00016334396786987782,-0.000726441852748394
1783696384242855700,3.793855712890625,-0.0004233532235957682,0.0017593128141015768,-0.0012564895441755652
1783696384252819000,3.80381884765625,0.00021047910558991134,0.00039444270078092813,-0.000046615488827228546
1783696384262782000,3.813781982421875,-0.00012729674926958978,-0.001729107927531004,-0.00042503862641751766
1783696384272745000,3.823744873046875,0.0008546106982976198,0.0014099599793553352,-0.0005589956417679787
1783696384282708000,3.8337080078125,-0.00019620086823124439,-0.00030125619377940893,0.0006054327823221684
1783696384292672000,3.843672119140625,-0.0005360202048905194,-0.0026339187752455473,-0.0006616992177441716
1783696384302635000,3.853635009765625,0.0005128004704602063,0.0015563840279355645,0.0002497321111150086
1783696384312598000,3.863597900390625,-0.0005103860748931766,-0.003045025747269392,0.002449236810207367
1783696384322560800,3.873560791015625,0.00009387315367348492,-0.0015295349294319749,0.00047469843411818147
1783696384332523800,3.883523681640625,0.0005532684735953808,0.003366952994838357,-0.0008259894093498588
1783696384342486800,3.89348681640625,-0.0006000263965688646,-0.0016546964179724455,0.000911540468223393
1783696384352450800,3.903450927734375,-0.0003347755700815469,-0.0020208810456097126,-0.0005822265520691872
1783696384362413800,3.913413818359375,0.0011402193922549486,0.0007688073092140257,0.0003473552060313523
1783696384372376800,3.923376953125,-0.0013857888989150524,-0.001964661292731762,-0.00018128228839486837
1783696384382339800,3.93333984375,-0.000759733549784869,0.00025094649754464626,0.00010936619946733117
1783696384392303000,3.94330322265625,-0.002285991096869111,0.0006658670026808977,-0.00039077538531273603
1783696384402265900,3.953265869140625,-0.00044290637015365064,-0.0023712075781077147,0.00018422561697661877
1783696384412230000,3.96322998046875,-0.0011078976094722748,-0.0018540218006819487,-0.0028464514762163162
1783696384422193000,3.97319287109375,0.00019299620180390775,0.002327436115592718,-0.000009812298230826855
1783696384432156000,3.983156005859375,-0.0005002246471121907,-0.0025346968322992325,-0.000522204558365047
1783696384442119000,3.993118896484375,-0.0001358170120511204,-0.0002246880903840065,-0.000376202049665153
1783696384452082000,4.00308203125,-0.0015470259822905064,0.001874149194918573,-0.0008196183480322361
1783696384462046000,4.0130458984375,-0.00027908620540983975,-0.002004286041483283,0.0016012138221412897
1783696384472009000,4.023009033203125,0.00015341115067712963,-0.0007765688933432102,-0.0019860640168190002
1783696384481972000,4.032971923828125,-0.00001786685606930405,0.0019374871626496315,0.0009612173307687044
1783696384491934700,4.042934814453125,-0.0012634273152798414,-0.0008812024025246501,-0.001931508188135922
1783696384501897700,4.052897705078125,0.00036390911554917693,0.0005595473339781165,-0.00033378961961716413
1783696384511860700,4.06286083984375,0.000035807694075629115,0.0009438414708711207,-0.0010347336065024137
1783696384521824800,4.07282470703125,0.0010736607946455479,-0.0011130511993542314,-0.0016388556687161326
1783696384531787800,4.082787841796875,-0.0005178442224860191,0.0006124108331277966,0.0005627796053886414
1783696384541750800,4.092750732421875,-0.00019543335656635463,0.0005734130972996354,0.0007222762214951217
1783696384551714000,4.102714111328125,-0.0002529576304368675,-0.0022106554824858904,0.0011233482509851456
1783696384561677000,4.112677001953125,0.0002767170371953398,0.0016657081432640553,-0.0008767865365371108
1783696384571639800,4.122639892578125,-0.0007720357971265912,-0.0009391297353431582,0.0017392365261912346
1783696384581603800,4.132603759765625,0.0007197839440777898,-0.0011942681157961488,0.0013174264458939433
1783696384591567000,4.142567138671875,-0.00027543934993445873,0.0009035039111040533,-0.0007968570571392775
1783696384601530000,4.152530029296875,0.000687267747707665,-0.0005122951697558165,0.000779838184826076
1783696384611493000,4.1624931640625,-0.0013662956189364195,-0.00047501083463430405,0.0007137918146327138
1783696384621456100,4.1724560546875,-0.0018486091867089272,0.00308865774422884,-0.0007590053137391806
1783696384631419100,4.182419189453125,-0.0004587054718285799,-0.0018206132808700204,0.0025893868878483772
1783696384641383200,4.192383056640625,-0.0005654569249600172,-0.000032462296076118946,-0.0003644778626039624
1783696384651346200,4.20234619140625,0.000616187637206167,0.0023697090800851583,-0.000020131119526922703
1783696384661309200,4.21230908203125,-0.0001824198116082698,-0.0013838965678587556,-0.0006460767472162843
1783696384671272000,4.22227197265625,-0.0008324974332936108,-0.0007202370325103402,-0.00160960853099823
1783696384681235200,4.232235107421875,0.0009583228384144604,0.0018735412741079926,-0.00015232281293720007
1783696384691198200,4.2421982421875,0.001274972571991384,-0.0006820281269028783,0.0007915014866739511
1783696384701162000,4.252161865234375,-0.0005782088846899569,-0.00022253987845033407,-0.0013717766851186752
1783696384711125200,4.262125244140625,-0.00015290206647478044,0.002262189518660307,0.0004210633342154324
1783696384721088300,4.272088134765625,-0.0001760713930707425,-0.002546509727835655,-0.0002457329537719488
1783696384731051300,4.28205126953125,0.0021400796249508858,-0.0005853581242263317,-0.0011882255785167217
1783696384741014300,4.29201416015625,-0.0008156512631103396,0.0004340321756899357,0.0016486188396811485
1783696384750977000,4.30197705078125,-0.0001557198993396014,0.00010087073314934969,0.0002267571398988366
1783696384760941000,4.311941162109375,-0.0007519811624661088,0.0006134276045486331,0.0010448191314935684
1783696384770904000,4.321904052734375,-0.0006055072881281376,-0.00037433893885463476,-0.0003930215025320649
1783696384780867000,4.3318671875,-0.00028605060651898384,-0.001491327304393053,0.000013102777302265167
1783696384790830000,4.341830078125,0.0001147551229223609,0.0006170972483232617,-0.00055548211093992
1783696384800793000,4.35179296875,0.003071968909353018,0.0009662431548349559,0.00022741995053365827
1783696384810756000,4.361756103515625,-0.00015418441034853458,-0.0029051941819489002,-0.0014359904453158379
1783696384820720000,4.37172021484375,-0.0004282960726413876,0.0004893055884167552,-0.0006329065654426813
1783696384830683100,4.38168310546875,0.00018556255963630974,0.00011752825230360031,-0.0001641901908442378
1783696384840646100,4.391646240234375,0.0025793754030019045,-0.0025999615900218487,-0.0005505855660885572
1783696384850609200,4.401609130859375,0.0009082417236641049,0.002070424146950245,0.001048110076226294
1783696384860572200,4.411572265625,-0.0005160398432053626,0.0015063093742355704,-0.001184423454105854
1783696384870535200,4.42153515625,0.00030661060009151697,-0.0009062482276931405,-0.0007218325044959784
1783696384880499200,4.431499267578125,-0.0005119662964716554,0.0008328214171342552,0.0008703273488208652
1783696384890462200,4.441462158203125,0.001744263805449009,-0.000566403497941792,0.001464744913391769
1783696384900425200,4.45142529296875,0.0000729959283489734,0.0012586277443915606,-0.0024951817467808723
1783696384910388200,4.46138818359375,0.00011720441398210824,0.0014386574039235711,-0.0006956836441531777
1783696384920351000,4.47135107421875,-0.0004864782968070358,0.0005940893897786736,0.0005913185304962099
1783696384930315000,4.48131494140625,0.0007423042552545667,-5.945330485701561e-7,-0.0012571815168485045
1783696384940278000,4.491278076171875,0.0005783158121630549,0.000646424014121294,0.00005470996256917715
1783696384950241000,4.501240966796875,0.001854768837802112,-0.0016340407310053706,-0.00025821151211857796
1783696384960204000,4.5112041015625,0.00014685190399177372,-0.0005924708675593138,-0.0007244747830554843
1783696384970167000,4.5211669921875,0.000863242254126817,0.0017290066462010145,0.0007578406948596239
1783696384980130300,4.53113037109375,-0.0012508409563452005,-0.002833703998476267,0.0010719553101807833
1783696384990094000,4.541093994140625,0.0019121953519061208,-0.0010366028873249888,0.00009244470857083797
1783696385000057300,4.551057373046875,-0.0005467296577990055,0.0008981638238765299,-0.0006238250061869621
1783696385010020000,4.56102001953125,0.000058340534451417625,-0.0012709808070212603,-0.0004906669491901994
1783696385019983000,4.570983154296875,0.0003062342875637114,0.0006525472272187471,-0.0009306776337325573
1783696385029946000,4.580946044921875,-0.0016354764811694622,0.0003611973952502012,-0.0007397289155051112
1783696385039909000,4.5909091796875,-0.000274602702120319,-0.0023217538837343454,0.0020434607286006212
1783696385049873200,4.600873046875,0.000961636658757925,0.0012439524289220572,-0.000411441083997488
1783696385059836200,4.610836181640625,-0.00133693334646523,0.001623363932594657,0.0002904269495047629
1783696385069799200,4.620799072265625,0.0010740263387560844,-0.0029005478136241436,-0.0006025310140103102
1783696385079762200,4.63076220703125,-0.0019019219325855374,0.0004439735785126686,-0.0006628852570429444
1783696385089725000,4.640724853515625,0.00022594376059714705,0.002688752021640539,0.000593860459048301
1783696385099688000,4.65068798828125,0.0005960087873972952,-0.0025390218943357468,0.000503336254041642
1783696385109652000,4.66065185546875,-0.00032651019864715636,0.0015715673798695207,-0.001109207863919437
1783696385119615000,4.670614990234375,-0.0000884515538928099,0.0008174024405889213,-0.00007915741298347712
1783696385129578200,4.680578125,0.0006140902987681329,-0.0028617545031011105,-0.0011060722172260284
1783696385139541200,4.690541259765625,-0.0007886695675551891,0.0018698401981964707,-0.0004762887256219983
1783696385149504300,4.700504150390625,-0.00008000241359695792,-0.0014441974926739931,0.0014390567084774375
1783696385159467300,4.71046728515625,-0.0009419007692486048,-0.0013914310839027166,-0.0006098211742937565
1783696385169431300,4.720431396484375,0.0012815725058317184,0.0009862390579655766,-0.00228628097102046
1783696385179394000,4.73039404296875,-0.0005017081275582314,-0.0009596844902262092,0.00041111581958830357
1783696385189357000,4.740357177734375,0.001221357029862702,-0.0014920503599569201,0.0000957974698394537
1783696385199320000,4.750320068359375,0.0006123736966401339,0.0023512286134064198,0.0005724589573219419
1783696385209283000,4.760282958984375,0.0004925314569845796,-0.0011212672106921673,0.0011301249032840133
1783696385219246000,4.77024609375,-0.00033470295602455735,-0.0017438556533306837,-0.00030415772926062346
1783696385229210000,4.780210205078125,-0.002912909258157015,0.00272412970662117,-0.0014490506146103144
1783696385239173000,4.790173095703125,0.0001378308515995741,-0.0004727453924715519,-0.00043439213186502457
1783696385249136000,4.80013623046875,-0.00081744504859671,-0.0006168223917484283,-0.0020163096487522125
1783696385259099000,4.810098876953125,0.00005512429925147444,0.0015408252365887165,-0.0001611249754205346
1783696385269062100,4.820062255859375,0.00023009399592410773,-0.0015681489603593946,-0.0005635286215692759
1783696385279025200,4.830025146484375,0.0001691083307377994,-0.001049534883350134,-0.0007972253952175379
1783696385288989200,4.8399892578125,0.0018671397119760513,0.0028932751156389713,-0.0015674117021262646
1783696385298952200,4.8499521484375,0.000956294999923557,0.00009976373985409737,0.000522409682162106
1783696385308915200,4.859915283203125,0.00013950344873592257,-0.000609169714152813,0.0012222883524373174
1783696385318878200,4.869878173828125,-0.00001668880577199161,0.0002149184001609683,0.0007682654540985823
1783696385328841200,4.87984130859375,0.00048212127876468003,-0.003183807712048292,-0.00010525144170969725
1783696385338804000,4.889803955078125,0.00021764625853393227,0.00033943704329431057,0.001928540994413197
1783696385348768300,4.899768310546875,0.0010450903791934252,0.00031094125006347895,-0.0005628461949527264
1783696385358731000,4.90973095703125,0.0012813876383006573,-0.0029258951544761658,0.0005602031596936285
1783696385368694000,4.919694091796875,0.00014688106602989137,-0.00046406907495111227,0.00025207543512806296
1783696385378657000,4.929656982421875,-0.0007938802009448409,0.0011804165551438928,0.0019566884730011225
1783696385388620000,4.9396201171875,0.0003680569934658706,-0.002573575358837843,0.0016576155321672559
1783696385398583300,4.949583251953125,0.0005468089366331697,0.0020273455884307623,-0.0009421954164281487
1783696385408547000,4.959547119140625,0.00004826519580092281,0.0007106786943040788,0.0012162965722382069
1783696385418510000,4.969510009765625,-0.00042871246114373207,-0.0015133616980165243,-0.00009907269850373268
1783696385428473300,4.979473388671875,0.002621405990794301,0.0020006794948130846,-0.0005835016490891576
1783696385438436000,4.98943603515625,-0.0002406808634987101,-0.0004961400991305709,0.0006510675884783268
1783696385448399000,4.999399169921875,-0.00022496821475215256,-0.001023446093313396,-0.0005393654573708773
1783696385458362000,5.009362060546875,-0.0007588276639580727,0.00127425289247185,-0.0002280606422573328
1783696385468326100,5.019326171875,0.001485950779169798,-0.0013239269610494375,0.0004899275954812765
1783696385478289200,5.0292890625,-0.00042824368574656546,-0.0016004153294488788,0.0003208405105397105
1783696385488252200,5.039252197265625,-0.00017604233289603144,0.0033352209720760584,0.0006010050419718027
1783696385498215200,5.049215087890625,-0.00019762659212574363,-0.0018473974196240306,-0.000666003325022757
1783696385508178200,5.05917822265625,-0.0007438409375026822,-0.001687607611529529,-0.002090794499963522
1783696385518141000,5.069140869140625,-0.0013413351261988282,0.0030240954365581274,0.0006462052697315812
1783696385528105000,5.07910498046875,0.001482680905610323,-0.0006838236004114151,0.0005958715337328613
1783696385538068000,5.08906787109375,-0.00018114580598194152,0.00007412245031446218,-0.00011466722935438156
1783696385548031000,5.099031005859375,0.0004971612943336368,0.002171361818909645,0.0006797536625526845
1783696385557994200,5.108994140625,-0.00018202037608716637,-0.0007686215685680509,0.001310968305915594
1783696385567957200,5.118957275390625,0.0008126703323796391,-0.0009356016525998712,-0.0005082370480522513
1783696385577920300,5.128920166015625,0.0009397392277605832,0.00130859250202775,-0.0005805291002616286
1783696385587884000,5.138884033203125,0.0005341398064047098,-0.0018930596997961402,-0.001019418123178184
1783696385597847000,5.148846923828125,-0.0002798750938382,0.0007374380948022008,-0.001457076403312385
1783696385607809800,5.158809814453125,-0.0013624501880258322,0.0010889754630625248,0.0013858481543138623
1783696385617772800,5.168772705078125,0.0004576892824843526,-0.000476042740046978,0.000448986713308841
1783696385627735800,5.17873583984375,-0.0009367418824695051,0.0017418378265574574,-0.0013435870641842484
1783696385637699800,5.188699951171875,0.0006461781449615955,0.00012516940478235483,0.00002009514719247818
1783696385647662800,5.198662841796875,-0.0002313334116479382,-0.0030831405892968178,0.0007127833086997271
1783696385657625900,5.2086259765625,0.0005657742731273174,0.0013623421546071768,-0.00015887327026575804
1783696385667588900,5.2185888671875,-0.0006462303572334349,-0.00024993554688990116,0.00010318175191059709
1783696385677551900,5.2285517578125,-0.00018325138080399483,-0.0025743390433490276,0.0011229567462578416
1783696385687515000,5.238514892578125,0.0001174194912891835,-0.0015631366986781359,0.0005852645845152438
1783696385697478700,5.248478759765625,-0.0012463197344914079,0.00021367857698351145,0.002112257294356823
1783696385707442000,5.25844189453125,0.00016195984790101647,-0.0017221731832250953,-0.0008731461130082607
1783696385717405000,5.268405029296875,-0.001368146389722824,0.0010872094426304102,-0.001301319571211934
1783696385727368000,5.278367919921875,0.000943477323744446,-0.0005865872371941805,0.0011381360236555338
1783696385737331000,5.2883310546875,0.0009803313296288252,-0.0004803217016160488,-0.0010286621982231736
1783696385747294000,5.2982939453125,-0.001433291588909924,0.00411576172336936,0.000636346114333719
1783696385757257000,5.308257080078125,-0.0004850700206588954,0.000030765775591135025,0.0009202389628626406
1783696385767843800,5.31884375,0.0009748028824105859,0.00010522815864533186,-0.0014929031021893024
1783696385777806800,5.328806884765625,-0.0007298864657059312,0.0032994234934449196,-0.0007578704971820116
1783696385787769900,5.338769775390625,-0.0005192291573621333,-0.0002411592286080122,-0.0012969549279659986
1783696385797732900,5.34873291015625,0.00026480542146600783,-0.0009335811482742429,-0.00033795053604990244
1783696385807696000,5.35869580078125,-0.0006292094476521015,0.0006445915205404162,-0.0003863554447889328
1783696385817660000,5.368659912109375,-0.00020097315427847207,-0.002023629378527403,0.00028556009056046605
1783696385827623000,5.378622802734375,-0.0003103339986409992,-0.0013967069098725915,-0.0013000746257603168
1783696385837586000,5.3885859375,-0.0009076810674741864,0.001547417719848454,-0.0003101776819676161
1783696385847549000,5.398548828125,-0.0012097517028450966,-0.0016608459409326315,-0.00014438724610954523
1783696385857511700,5.40851171875,-0.00039455806836485863,0.00022467202506959438,0.00041274604154750705
1783696385867474700,5.418474609375,-0.00026051202439703047,0.0024162139743566513,0.0018130335956811905
1783696385877438700,5.428438720703125,-0.00007888443360570818,-0.0011612102389335632,0.0009211408905684948
1783696385887401700,5.438401611328125,0.001351228216663003,0.0009173130965791643,-0.001703436952084303
1783696385897364700,5.44836474609375,-0.0006927478825673461,-0.00010906916577368975,0.0009898177813738585
1783696385907328000,5.458327880859375,-0.000697092735208571,-0.000788695877417922,-0.0015527087962254882
1783696385917291000,5.468291015625,0.0014054729836061597,0.00048615923151373863,-0.0019905325025320053
1783696385927254000,5.47825390625,0.0005476512596942484,-0.00031563022639602423,0.00037992908619344234
1783696385937218000,5.488218017578125,0.0005455207428894937,-0.0015502717578783631,0.000402832287363708
1783696385947181000,5.49818115234375,0.00186831783503294,-0.00006033130921423435,-0.0000764322467148304
1783696385957143800,5.508143798828125,-0.0008305294904857874,0.0006872180383652449,-0.000238618697039783
1783696385967106800,5.51810693359375,-0.0005084566073492169,-0.0018804831197485328,0.0005945887533016503
1783696385977069800,5.52806982421875,0.0021914560347795486,0.0011957342503592372,-0.0001494984608143568
1783696385987032800,5.53803271484375,-0.002126601990312338,0.000012978212907910347,0.00020397512707859278
1783696385996996900,5.547996826171875,0.0004540011577773839,-0.001261877128854394,-0.0005592867964878678
1783696386006959900,5.5579599609375,0.0007014829316176474,0.00265722768381238,-0.0013903103535994887
1783696386016923000,5.5679228515625,-0.00049587432295084,-0.000057865167036652565,0.00003288290463387966
1783696386026886000,5.577885986328125,-0.00015941177844069898,0.0004183754790574312,-0.0006255318876355886
1783696386036849000,5.587848876953125,0.0006770871113985777,0.0014506166335195303,0.000046650064177811146
1783696386046812000,5.59781201171875,0.000853341247420758,0.00001795613206923008,0.0018434342928230762
1783696386056776000,5.60777587890625,-0.00038076756754890084,0.00020943745039403439,-0.00001944683026522398
1783696386066739000,5.617739013671875,-0.0009908073116093874,0.00178189214784652,-0.0016895250882953405
1783696386076702000,5.627701904296875,-0.0007444649236276746,-0.0005712768761441112,0.0006601820350624621
1783696386087287800,5.638287841796875,0.0005061554838903248,-0.0008961827261373401,0.001100668916478753
1783696386097250800,5.648250732421875,-0.0004199356189928949,0.002086075022816658,0.000622874591499567
1783696386107214000,5.658214111328125,0.001362518174573779,-0.003739856416359544,0.0005429797456599772
1783696386117176800,5.6681767578125,-0.0006235424662008882,-0.0025476845912635326,-0.0006729726446792483
1783696386127140900,5.678140869140625,-0.0009684218093752861,0.002413518261164427,0.0003640623181127012
1783696386137104000,5.688103759765625,-0.0007659970433451235,-0.0013940116623416543,-0.0005889454623684287
1783696386147067000,5.69806689453125,0.0011647947831079364,-0.0002483197022229433,-0.0014102642890065908
1783696386157030000,5.70802978515625,-0.0002980074204970151,0.0020965668372809887,0.0020559877157211304
1783696386166993000,5.717992919921875,-0.0012221243232488632,-0.0015692744636908174,-0.00026868574786931276
1783696386176956000,5.727955810546875,0.0001639829424675554,-0.00047957024071365595,0.0003557643503881991
1783696386186920000,5.737919921875,0.0009251144365407526,-0.001517936703749001,-0.0015047199558466673
1783696386196883000,5.747883056640625,0.000048951798817142844,-0.0018984614871442318,0.0002998253330588341
1783696386206845700,5.757845703125,0.001511826179921627,0.0007420626934617758,-0.00017448363360017538
1783696386216808700,5.76780859375,0.00011083658318966627,-0.000987330568023026,0.0010767382336780429
1783696386226771700,5.777771728515625,-0.0003448302741162479,-0.002388685941696167,0.0005475680809468031
1783696386236735000,5.78773486328125,0.000028913957066833973,0.0011947362218052149,-0.0021384686697274446
1783696386246698800,5.79769873046875,-0.0009817556710913777,-0.00011766958050429821,0.00029858993366360664
1783696386256662000,5.807662109375,-0.000020231702364981174,-0.0015634703449904919,0.00015546916984021664
1783696386266625000,5.817625,0.00010653477511368692,0.0027391326148062944,-0.000822177273221314
1783696386276588000,5.827588134765625,0.00015650567365810275,0.0010948139242827892,0.0018950272351503372
1783696386286550800,5.83755078125,0.000057968718465417624,-0.001426134374924004,-0.0023950589820742607
1783696386296513800,5.847513671875,-0.0012586596421897411,0.0021081375889480114,0.0019212658517062664
1783696386306477800,5.857477783203125,0.00015681047807447612,-0.0008985712192952633,0.0014168631751090288
1783696386316440800,5.86744091796875,-0.0002616053097881377,-0.0023992210626602173,-0.0001205450389534235
1783696386326403800,5.87740380859375,0.00001696136314421892,0.0011845948174595833,-0.00019005348440259695
1783696386336366800,5.887366943359375,0.00008119485573843122,-0.002545394003391266,0.001398564549162984
1783696386346329900,5.897329833984375,0.0013560500228777528,0.0009305636049248278,0.000869394454639405
1783696386356294000,5.9072939453125,0.0004736814007628709,0.0018249198328703642,0.001761876279488206
1783696386366257000,5.9172568359375,0.0001716789265628904,-0.0019314687233418226,-0.0005798413185402751
1783696386376220000,5.927219970703125,0.0005300765624269843,-0.000004843110218644142,0.0002589273499324918
1783696386386183000,5.937182861328125,0.0007322104647755623,0.0031267679296433926,-0.0008193865651264787
1783696386396146000,5.94714599609375,-0.00021321210078895092,-0.0014702279586344957,-0.0012341230176389217
1783696386406109000,5.95710888671875,-0.0004265313036739826,0.0015857492107897997,-0.0003086745273321867
1783696386416073000,5.967072998046875,-0.00037600944051519036,0.001872658496722579,0.0018753461772575974
1783696386426036000,5.977035888671875,-0.0008852058672346175,-0.0016799983568489552,0.0005477603990584612
1783696386435999000,5.9869990234375,0.0007540939841419458,0.0000833671074360609,-0.0009723297553136945
1783696386445962000,5.9969619140625,-0.002048350404947996,-0.0002982638543471694,0.00007296097464859486
1783696386455925000,6.006925048828125,0.0006010713987052441,-0.0007749880896881223,0.00013506278628483415
1783696386465889000,6.016888916015625,0.0007075978210195899,0.0009717792854644358,-0.000013807904906570911
1783696386475851800,6.026851806640625,0.0004177755326963961,0.000705340295098722,0.0012310495367273688
1783696386485814800,6.036814697265625,0.0012553397100418806,-0.0018310543382540345,-0.0005016030045226216
1783696386495777800,6.04677783203125,-0.000015853613149374723,-0.00002701161429286003,0.00035480543738231063
1783696386505740800,6.05674072265625,0.0005660470924340189,0.0008217378635890782,0.0007601385586895049
1783696386515703800,6.066703857421875,0.0003354146610945463,-0.0017875470221042633,0.00015331379836425185
1783696386525667800,6.076667724609375,0.00004699433338828385,0.001990945776924491,-0.0003300498938187957
1783696386535630800,6.086630859375,0.0005302124191075563,0.0009263827232643962,-0.00023724965285509825
1783696386545593900,6.09659375,-0.00023571267956867814,-0.0014861749950796366,-0.001141392975114286
1783696386555556900,6.106556884765625,0.000030410359613597393,0.0024167390074580908,-0.00044451537542045116
1783696386565520000,6.116519775390625,-0.0006319177919067442,-0.00045148550998419523,-0.00016381824389100075
1783696386575484000,6.12648388671875,0.0003329193568788469,-0.0011255568824708462,0.0010358483996242285
1783696386585447200,6.136447265625,0.0002663403283804655,0.0037727952003479004,0.0009982978226616979
1783696386595410200,6.14641015625,0.0002342347288504243,-0.0016767350025475025,-0.000710412859916687
1783696386605373200,6.156373291015625,0.0007104078540578485,0.00041411269921809435,-0.0016342635499313474
1783696386615336000,6.1663359375,-0.0005915433284826577,0.0020658746361732483,0.000015898491255939007
1783696386625299000,6.176298828125,-0.0005976685788482428,-0.0005900958785787225,0.0005525254528038204
1783696386635263000,6.186262939453125,0.00002303777728229761,0.00012140173930674791,-0.0017831803997978568
1783696386645226000,6.19622607421875,-0.0007974821492098272,0.001752321608364582,-0.00042576726991683245
1783696386655189000,6.20618896484375,0.0005275580915622413,-0.0022296132519841194,0.0010731654474511743
1783696386665152000,6.216152099609375,-0.0000032099196687340736,-0.0019425243372097611,0.00014851591549813747
1783696386675115000,6.226114990234375,-0.001193957170471549,0.001241885358467698,-0.0005531780188903213
1783696386685079000,6.2360791015625,-0.0007571988389827311,-0.0018705509137362242,0.0005483054555952549
1783696386695042000,6.2460419921875,0.0008796348702162504,0.000006854184903204441,-0.0005790125578641891
1783696386705005000,6.256005126953125,-0.0002484802098479122,0.0017861120868474245,-0.0010288205230608582
1783696386714968000,6.265968017578125,0.0009259424405172467,-0.001508419867604971,0.00036740105133503675
1783696386724931000,6.27593115234375,-0.00010097242193296552,0.0016644701827317476,-0.0020108018070459366
1783696386734894000,6.28589404296875,-0.001987169496715069,0.0013029848923906684,0.000637831399217248
1783696386744858000,6.295858154296875,0.0006104776402935386,-0.001967909513041377,0.00090547907166183
1783696386754821000,6.305821044921875,-0.0019870975520461798,0.0006646255496889353,-0.0003546838415786624
1783696386764784000,6.3157841796875,0.0010422482155263424,0.0013650369364768267,0.00023920106468722224
1783696386774747100,6.3257470703125,0.000011625845218077302,-0.001512184739112854,0.0005518289399333298
1783696386784710000,6.3357099609375,0.00047634745715186,0.0005925113800913095,-0.002107070991769433
1783696386794674200,6.345674072265625,0.00042621162720024586,0.0020686520729213953,-0.0014034565538167953
1783696386804637000,6.355636962890625,-0.0004544957191683352,-0.001073345192708075,-0.00011448666919022799
1783696386814600000,6.365599853515625,0.0004331388045102358,0.0012309306766837835,-0.0016838704468682408
1783696386824563000,6.37556298828125,-0.00024170622054953128,0.00005141668953001499,0.0009750296012498438
1783696386834526000,6.38552587890625,0.0005493648932315409,-0.002663728781044483,0.0008556031971238554
1783696386844490000,6.395489990234375,-0.0005542490398511291,0.0013965265825390816,-0.0007662618299946189
1783696386854453000,6.405452880859375,-0.0007302556768991053,-0.0004035396268591285,0.002239244058728218
1783696386864416000,6.415416015625,0.0005376753397285938,-0.0030472595244646072,-0.0013549580471590161
1783696386874379300,6.425379150390625,-0.002000227337703109,0.0018352825427427888,0.00008870463352650404
1783696386884342000,6.435342041015625,0.0008389687864109874,-0.001204982283525169,-0.0005509867332875729
1783696386894305000,6.445304931640625,-0.00031834447872824967,-0.001085128984414041,-0.0012132112169638276
1783696386904269000,6.45526904296875,-0.00029544130666181445,0.001712255529128015,-0.00048377143684774637
1783696386914232000,6.465232177734375,-0.0004135191848035902,0.0009670864092186093,0.001013806788250804
1783696386924195000,6.475195068359375,-0.0018122114706784487,-0.0006350713083520532,0.00007504248060286045
1783696386934158000,6.485157958984375,0.000038691796362400055,0.0018917310517281294,0.0008005588315427303
1783696386944121000,6.49512109375,-0.0007493376033380628,-0.0010942051885649562,0.0010759297292679548
1783696386954085000,6.505085205078125,0.0008107644389383495,0.0002553223166614771,-0.0014799603959545493
1783696386964048100,6.515048095703125,0.000013147684512659907,0.0022385783959180117,-0.0004807421937584877
1783696386974011000,6.525010986328125,0.001070261001586914,-0.0015428386395797133,0.0003516700817272067
1783696386983974000,6.534973876953125,0.00024308310821652412,0.0008316358434967697,-0.002159158233553171
1783696386993937000,6.54493701171875,-0.0006624412490054965,0.0012469643261283636,0.00011444685515016317
1783696387003900200,6.554900146484375,0.0001090765290427953,-0.001176512218080461,0.0001288279891014099
1783696387013864000,6.564864013671875,-0.0010850524995476007,0.000435633584856987,-0.0010390076786279678
1783696387023827200,6.5748271484375,-0.0008166058687493205,0.0008843762334436178,0.0003921751631423831
1783696387033790200,6.584790283203125,-0.001927180215716362,-0.0018058446003124118,-0.0004341870080679655
1783696387043753200,6.594753173828125,0.00004462417564354837,0.0011313557624816895,-0.0010565678821876645
1783696387053716000,6.604716064453125,-0.0006922108586877584,-0.0004904078086838126,0.00007247831672430038
1783696387063680000,6.614679931640625,-0.0005385464755818248,-0.003574348520487547,0.00006262469105422497
1783696387073643000,6.62464306640625,0.0008448753505945206,0.001664601149968803,0.0005165367037989199
1783696387083606000,6.63460595703125,-0.00016952271107584238,0.0010898909531533718,0.0012981744948774576
1783696387093569000,6.644569091796875,0.00024048722116276622,-0.001246580039151013,-0.0002254600403830409
1783696387103532000,6.654531982421875,-0.0009715173509903252,0.0011979355476796627,0.0006706935819238424
1783696387113495000,6.6644951171875,0.0014003054238855839,0.0011626644991338253,-0.00032172398641705513
1783696387123459000,6.674458984375,-0.0004324819892644882,-0.0010834455024451017,-0.00046846410259604454
1783696387133422000,6.684422119140625,0.0003833199152722955,0.00134953367523849,0.0000585668021813035
1783696387143384800,6.694384765625,0.00015269016148522496,0.0006906675407662988,-0.00026607245672494173
1783696387153348000,6.70434814453125,0.0014942965935915709,-0.0005348387639969587,-0.0009633224690333009
1783696387163311000,6.71431103515625,0.0006071975803934038,0.0027768020518124104,-0.001356405089609325
1783696387173275000,6.72427490234375,0.0005503373686224222,0.0001900671049952507,0.00045796704944223166
1783696387183238100,6.734238037109375,0.0003852213849313557,-0.0022672314662486315,0.00007234129589051008
1783696387193201200,6.744201171875,-0.000993206282146275,0.0034126206301152706,-0.00007977476343512535
1783696387203164200,6.7541640625,-0.0003306117723695934,-0.0005435050697997212,-0.0002406297717243433
1783696387213127200,6.764127197265625,-0.0012541069881990552,-0.0023469259031116962,-0.0001282599987462163
1783696387223090000,6.77408984375,-0.00006260874215513468,0.0023732611443847418,0.0005061050178483129
1783696387233054000,6.784053955078125,0.0019259208347648382,-0.00033076596446335316,-0.00035155878867954016
1783696387243017000,6.794016845703125,0.0017943608108907938,-0.001163802808150649,-0.0007446412928402424
1783696387252980000,6.80397998046875,0.00013212976045906544,0.0015293159522116184,-0.0016799189615994692
1783696387262943000,6.81394287109375,0.0008338727056980133,-0.001509883557446301,0.0002631233073771
1783696387272906000,6.823906005859375,-0.0012630175333470106,-0.00012594368308782578,-0.001473784213885665
1783696387282869000,6.833868896484375,-0.0005234576528891921,0.0008778017945587635,-0.0003102491609752178
1783696387292833000,6.8438330078125,0.000752302526962012,-0.000031597912311553955,-0.0014057338703423738
1783696387302796000,6.853796142578125,-0.002401679055765271,0.0007585620041936636,-0.000611312803812325
1783696387312759000,6.863759033203125,-0.0003160097694490105,0.0007354707340709865,0.0020010555163025856
1783696387322722000,6.87372216796875,0.0010861445916816592,-0.0031364993192255497,0.00024869543267413974
1783696387332685000,6.88368505859375,-0.0004943395615555346,0.000008443603292107582,0.000044456799514591694
1783696387342649000,6.893649169921875,0.0009810515912249684,0.0009525342611595988,0.0009539263555780053
1783696387352612000,6.903612060546875,0.0004097299824934453,-0.0011379392817616463,0.0013100538635626435
1783696387362575000,6.9135751953125,-0.0014542164281010628,0.0023430786095559597,-0.00036640604957938194
1783696387372538000,6.9235380859375,0.0009399947011843324,0.0008967406465671957,0.0003838582197204232
1783696387382501000,6.933501220703125,-0.0009929275838658214,-0.0013949094573035836,0.0005284678773023188
1783696387392464000,6.9434638671875,0.00006760077667422593,0.0006205779500305653,0.0006455852999351919
1783696387402428200,6.95342822265625,0.0008593584643676877,-0.000032695475965738297,-0.0006314005004242063
1783696387412391000,6.963390869140625,-0.0012270923471078277,-0.00034226931165903807,-0.0005601841257885098
1783696387422354000,6.97335400390625,-0.000025207758881151676,0.0015155518194660544,-0.0002499258844181895
1783696387432317000,6.98331689453125,0.0009676336776465178,-0.0002418546937406063,0.0013540270738303661
1783696387442280000,6.993280029296875,0.0004038425104226917,-0.0017268331721425056,0.0003851690562441945
1783696387452244000,7.003243896484375,0.0010438732570037246,0.0017078416422009468,0.0005244924104772508
1783696387462207000,7.01320703125,-0.00032339367317035794,-0.003355360357090831,0.0008754970040172338
1783696387472170200,7.023170166015625,0.001477612997405231,-0.0021089385263621807,0.0004269215860404074
1783696387482133200,7.03313330078125,0.0005574907991103828,0.0021095084957778454,0.00009908643551170826
1783696387492096000,7.043095947265625,-0.00003690319135785103,-0.0019213436171412468,-0.0006113174604251981
1783696387502059000,7.05305908203125,-0.0013421183684840798,-0.0011301182676106691,0.0012259973445907235
1783696387512023000,7.06302294921875,0.0002460344403516501,0.001544305356219411,-0.00010796647984534502
1783696387521986000,7.072986083984375,-0.0017414826434105635,-0.0018632092978805304,0.00012878852430731058
1783696387531949000,7.082948974609375,-0.0015947665087878704,-0.0005155850667506456,0.00019313255324959755
1783696387541912000,7.092912109375,0.0008433574112132192,0.0023646235931664705,0.0004195012734271586
1783696387551875000,7.102875,0.00042133411625400186,-0.002589113311842084,-0.0012684327084571123
1783696387561838000,7.112838134765625,0.0006572902202606201,-0.000575763639062643,0.0011089711915701628
1783696387571802000,7.122802001953125,-0.0007799682207405567,0.0005597866838797927,0.0011775424936786294
1783696387581764900,7.132764892578125,-0.0009221810032613575,-0.0029758261516690254,0.0015027144690975547
1783696387591727600,7.1427275390625,0.0009831101633608341,0.0006335865473374724,-0.0007519397186115384
1783696387601691000,7.15269091796875,0.0004408905515447259,0.0010253374930471182,0.00107019511051476
1783696387611654000,7.16265380859375,-0.00013723403390031308,-0.0005004836712032557,-0.0012398893013596535
1783696387621618000,7.172617919921875,0.0013267056783661246,0.0010350949596613646,-0.0014561379794031382
1783696387631581000,7.182580810546875,0.0005220709717832506,0.0003572909627109766,0.0013520477805286646
1783696387641544000,7.1925439453125,-0.000764768454246223,-0.002050206530839205,0.00014297268353402615
1783696387651506700,7.202506591796875,-0.0010955603793263435,0.001030093408189714,-0.0017843440873548388
1783696387661469700,7.2124697265625,-0.0008596043335273862,0.001003728131763637,-0.00006713776383548975
1783696387671432700,7.2224326171875,-0.00043121399357914925,-0.0011415432672947645,0.0003446019836701453
1783696387681396700,7.232396728515625,0.00013550667790696025,0.002831893041729927,0.000376559910364449
1783696387691359700,7.24235986328125,-0.000020210252841934562,0.001343709765933454,0.0004795113345608115
1783696387701322800,7.25232275390625,0.0013971240259706974,-0.001700017019174993,-0.0005894814385101199
1783696387711285800,7.26228564453125,-0.0010696491226553917,0.0014734147116541862,-0.0004092936869710684
1783696387721248800,7.272248779296875,-0.0013364979531615973,-0.00021795881912112236,0.00013479008339345455
1783696387731212800,7.282212890625,0.0003605684032663703,-0.0013047961983829737,0.00003979459870606661
1783696387741175600,7.292175537109375,-0.0002966997562907636,0.0013261407148092985,-0.0004201332340016961
1783696387751138600,7.302138671875,-0.00017495613428764045,0.0007053416920825839,0.0018939550500363111
1783696387761101800,7.312101806640625,0.00018084218027070165,-0.0005937481764703989,-0.0013681508135050535
1783696387771064800,7.32206494140625,0.00014068023301661015,0.0015452621737495065,-0.0016254307702183723
1783696387781027800,7.33202783203125,0.001258941600099206,0.00019503955263644457,0.0005655518034473062
1783696387790992000,7.341991943359375,-0.00041093159234151244,0.0002317120088264346,-0.0013057031901553273
1783696387800955000,7.351954833984375,0.00045566100743599236,0.0008604843751527369,-0.001245782128535211
1783696387810918000,7.36191796875,0.00010935933096334338,-0.00006578490138053894,0.0008046996081247926
1783696387820880600,7.371880615234375,-0.0007215469377115369,0.002034650184214115,-0.001657659187912941
1783696387830843600,7.38184375,0.0008022570400498807,0.0037903576157987118,-0.00037094333674758673
1783696387840806700,7.391806640625,-0.0008259996538981795,-0.002953032497316599,0.001508982153609395
1783696387850770700,7.401770751953125,0.0009568706154823303,0.0008769967244006693,-0.0022318800911307335
1783696387860733700,7.411733642578125,-0.00003915163688361645,0.0015968491788953543,-0.0011447776341810822
1783696387870696700,7.42169677734375,0.00008106784662231803,-0.0023264014162123203,0.0005050603067502379
1783696387880659700,7.43165966796875,-0.00047260336577892303,0.00013542454689741135,-0.0011149405036121607
1783696387890623000,7.441623046875,-0.001648126752115786,0.0019053667783737183,-0.0005970883648842573
1783696387900586800,7.451586669921875,0.0013439347967505455,-0.0009471451630815864,-0.0008274518186226487
1783696387910549800,7.4615498046875,-0.00020151367061771452,-0.000005804002285003662,0.00012981693726032972
1783696387920512800,7.4715126953125,0.0005063545540906489,0.001097011030651629,0.00170720717869699
1783696387930475800,7.481475830078125,-0.00031632056925445795,-0.001141636515967548,-0.0007203884888440371
1783696387940438800,7.491438720703125,-0.00007929923594929278,0.0006781014380976558,-0.0016562232049182057
1783696387950401800,7.50140185546875,-0.0007659659022465348,-0.001147666247561574,0.0007133944891393185
1783696387960365800,7.51136572265625,-0.0002133599919034168,-0.0020179871935397387,-0.00016944343224167824
1783696387970328800,7.521328857421875,-0.0016900717746466398,0.0011635039700195193,-0.00041692773811519146
1783696387980291800,7.531291748046875,-0.0010077699553221464,-0.002059453632682562,0.0017879032529890537
1783696387990254600,7.541254638671875,-0.0000542848720215261,-0.0008174799149855971,0.0009211950236931443
1783696388000217600,7.551217529296875,0.0007505223620682955,0.0006983913481235504,-0.00020452321041375399
1783696388010180600,7.5611806640625,-0.0006003352464176714,-0.0016603115946054459,0.0012357218656688929
1783696388020144600,7.57114453125,-0.0000522567133884877,-0.0014579114504158497,-0.00027002941351383924
1783696388030107600,7.581107666015625,0.0012991768307983875,0.002093130722641945,-0.00018075923435389996
1783696388040070700,7.591070556640625,-0.0015682487282902002,-0.0004957281053066254,-0.000501670059747994
1783696388050034000,7.601033935546875,0.0008850957965478301,0.0005003049736842513,-0.00011785945389419794
1783696388059997000,7.610996826171875,0.0011439550435170531,0.0019458688329905272,-0.0015447811456397176
1783696388069961000,7.6209609375,-0.0006256652995944023,-0.0010961961233988404,0.0008040490793064237
1783696388079923700,7.630923828125,-0.0007534970063716173,-0.0005305408267304301,-0.0004383155610412359
1783696388089886700,7.64088671875,-0.0006236342014744878,0.0021373205818235874,-0.00012598151806741953
1783696388099849700,7.650849609375,-0.00019060424529016018,-0.0004036014433950186,0.00033288117265328765
1783696388109812700,7.660812744140625,-0.0007668699836358428,-0.00020051479805260897,-0.0010315650142729282
1783696388119775700,7.670775634765625,-0.0006787193706259131,0.0024780926760286093,0.001238513388670981
1783696388129739800,7.68073974609375,0.001380400499328971,-0.00202164426445961,0.0008992019575089216
1783696388139702800,7.690702880859375,-0.0004939322825521231,0.001087330048903823,-0.00004249182529747486
1783696388149665800,7.700665771484375,0.0001856382586993277,0.002287845592945814,-0.00012534926645457745
1783696388159628800,7.71062890625,0.00008310654084198177,-0.003281623125076294,0.0008355192258022726
1783696388169591600,7.720591552734375,-0.000647048931568861,0.0017540797125548124,0.00034547492396086454
1783696388179554800,7.730554931640625,0.000023002387024462223,0.00033674540463835,0.0000013945391401648521
1783696388189518600,7.7405185546875,0.00047673864173702896,-0.001689291326329112,0.00027594127459451556
1783696388199481600,7.750481689453125,-0.0023842952214181423,0.0015259429346770048,-0.0006993083516135812
1783696388209444900,7.76044482421875,-0.0007521340157836676,0.001106620766222477,0.0011596601689234376
1783696388219408000,7.770407958984375,-0.0005577232223004103,-0.0026178101543337107,-0.0007383747724816203
1783696388229371000,7.780370849609375,0.0005044200224801898,-0.000032858806662261486,-0.00030062533915042877
1783696388239334000,7.790333984375,0.0012469093780964613,-0.0006589678814634681,0.0014940788969397545
1783696388249298000,7.8002978515625,-0.0006009623175486922,-0.00247018551453948,-0.00008140259888023138
1783696388259260700,7.8102607421875,-0.00017245972412638366,0.0008925878792069852,0.0007825267966836691
1783696388269223700,7.8202236328125,0.00047841493505984545,-0.00001549313310533762,0.0019279313273727894
1783696388279186700,7.830186767578125,-0.0005658105365000665,-0.0011627830099314451,0.0003848958294838667
1783696388289149700,7.840149658203125,-0.0009309034794569016,0.002668044064193964,-0.00012486299965530634
1783696388299112700,7.85011279296875,0.0011612758971750736,-0.0005431956378743052,0.0008629034273326397
1783696388309076700,7.86007666015625,-0.00008029583841562271,-0.0014879266964271665,0.0009118355228565633
1783696388319039700,7.870039794921875,-0.0013610100140795112,0.0020791110582649708,-0.001346791279502213
1783696388329002800,7.880002685546875,-0.001656941371038556,-0.0005074270302429795,0.0004329344956204295
1783696388338965800,7.8899658203125,0.00021020090207457542,-0.0019942699000239372,0.0006877990090288222
1783696388348928800,7.8999287109375,0.000610083807259798,0.001971932826563716,0.0004726092447526753
1783696388358892800,7.909892822265625,0.0007046259706839919,-0.0016683419235050678,0.0006811347557231784
1783696388368855800,7.919855712890625,0.00020124256843701005,-0.00005743303336203098,0.00011195323895663023
1783696388378818800,7.92981884765625,-0.0002696043229661882,0.0016491205897182226,0.0008808078709989786
1783696388388781800,7.93978173828125,-0.000880888313986361,-0.0011008011642843485,0.0008849409059621394
1783696388398744800,7.949744873046875,0.0005649418453685939,0.0010206729639321566,-0.0014578418340533972
1783696388408707800,7.959707763671875,-0.002063038758933544,0.0013776844134554267,-0.000613060430623591
1783696388418671900,7.969671875,-0.0011501070111989975,0.000011482741683721542,0.0010191909968852997
1783696388428634600,7.979634521484375,-0.00042024170397780836,0.0008907857118174434,-0.0020603681914508343
1783696388438597600,7.98959765625,0.0010303821181878448,-0.00014944502618163824,-0.0004507536068558693
1783696388448560600,7.999560546875,-0.0008972121868282557,-0.001664354931563139,-0.00039922434370964766
1783696388458523600,8.009523681640625,-0.0012098673032596707,-0.00026646186597645283,-0.0011694105342030525
1783696388468487000,8.01948681640625,-0.0009540991159155965,0.0020923716947436333,-0.0005135521059855819
1783696388478450700,8.02945068359375,-0.0007050935528241098,-0.0013132788008078933,0.00018259824719280005
1783696388488413700,8.03941357421875,-0.001419635722413659,-0.00010178156662732363,-0.0008777602342888713
1783696388498377000,8.049376953125,-0.0003826008178293705,0.0012372557539492846,-0.0003035826375707984
1783696388508339700,8.059339599609375,-0.0017195589607581496,-0.0014445878332480788,0.0004812408587895334
1783696388518302700,8.069302734375,-0.002609587274491787,0.0006358735263347626,0.0008958950638771057
1783696388528265700,8.079265625,0.0001889429404400289,0.00017999904230237007,0.0007637350354343653
1783696388538229800,8.089229736328125,-0.0007658003596588969,-0.0023260358721017838,-0.000005652196705341339
1783696388548192800,8.09919287109375,-0.001503356033936143,0.001690479344688356,-0.00022442638874053955
1783696388558155800,8.10915576171875,0.00041571789188310504,0.00048113788943737745,0.0014546966413035989
1783696388568118800,8.119118896484375,-0.0005751397111453116,-0.0021792573388665915,-0.0012438814155757427
1783696388578081800,8.129081787109374,0.00007387262303382158,0.001984062371775508,-0.0002188307698816061
1783696388588045600,8.139045654296876,-0.00039577216375619173,-0.0013902322389185429,0.00031264894641935825
1783696388598008600,8.149008544921875,-0.0006514356355182827,0.00008329481352120638,-0.0006173269357532263
1783696388607971600,8.1589716796875,-0.00022832014656160027,0.001743991277180612,0.0007493724697269499
1783696388617934600,8.1689345703125,0.000875560101121664,0.0004885770613327622,0.0008550999918952584
1783696388627897900,8.17889794921875,-0.0008757034665904939,-0.00045534875243902206,-0.0018047920893877745
1783696388637860900,8.18886083984375,-0.0008693118579685688,0.004329552873969078,-0.0001576270442456007
1783696388647824600,8.19882470703125,0.0004899008199572563,0.00047829654067754745,-0.0004730985965579748
1783696388657787600,8.20878759765625,0.0005948293837718666,-0.00026445905677974224,0.00013037363532930613
1783696388667750700,8.218750732421874,0.0002566141774877906,0.001227527973242104,0.0007733370293863118
1783696388677713700,8.228713623046875,0.0007583537371829152,-0.0029389874543994665,0.001675083301961422
1783696388687676700,8.2386767578125,0.00036629161331802607,-0.0008166481275111437,0.00046864396426826715
1783696388697639700,8.2486396484375,-0.00042200408643111587,0.0024204240180552006,0.001979455351829529
1783696388707603700,8.258603759765625,0.00044533255277201533,-0.0014183144085109234,-0.000006870599463582039
1783696388717566700,8.268566650390625,0.0011124544544145465,-0.001696881139650941,-0.0010044906521216035
1783696388727529700,8.27852978515625,-0.00006515529821626842,0.002474101958796382,0.0011137916008010507
1783696388737492500,8.288492431640625,0.0007969099096953869,-0.0013925416860729456,-0.00043883128091692924
1783696388747455500,8.29845556640625,-0.0005979433190077543,0.0006466909544542432,-0.0006098288577049971
1783696388757418800,8.308418701171876,0.0010667985770851374,0.001853635534644127,0.0006343999993987381
1783696388767382500,8.318382568359375,0.00009168399265035987,-0.0017422379460185766,-0.0005065026925876737
1783696388777345500,8.328345458984375,-0.00017063737323042005,0.00029241712763905525,-0.0002833297476172447
1783696388787308800,8.338308837890626,-0.0010838296730071306,0.0009577393648214638,0.0011173823149874806
1783696388797271800,8.348271728515625,0.0013745342148467898,-0.001995439874008298,0.00003640528302639723
1783696388807234800,8.35823486328125,-0.000667086336761713,0.002281412947922945,-0.0001622854033485055
1783696388817197600,8.368197509765626,-0.0006002410082146525,0.0018664924427866936,0.0013333458919078112
1783696388827161600,8.37816162109375,0.002551756799221039,-0.002384103601798415,-0.0007806649664416909
1783696388837124600,8.38812451171875,0.00024545929045416415,0.0014870672021061182,-0.002928237896412611
1783696388847087600,8.398087646484376,0.00015965159400366247,0.0020953514613211155,0.0005028402665629983
1783696388857050600,8.408050537109375,-0.0008867044234648347,-0.001354773878119886,-0.001137933344580233
1783696388867013600,8.418013671875,-0.0014245399506762624,0.002993300324305892,0.0005288450629450381
1783696388876976600,8.4279765625,-0.00043544196523725986,0.0007221565465442836,0.00007397716399282217
1783696388886940700,8.437940673828125,-0.0005805845139548182,-0.0020871865563094616,-0.00003752252086997032
1783696388896903700,8.447903564453124,-0.00036300421925261617,0.0019123489037156105,-0.00015283736865967512
1783696388906866400,8.457866455078126,0.00035175526863895357,-0.0011813311139121652,0.00038949056761339307
1783696388916829700,8.46782958984375,-0.0007236291421577334,-0.0015310040907934308,0.00019800924928858876
1783696388926792700,8.477792724609374,-0.0009503005421720445,0.0025890374090522528,0.0002195845008827746
1783696388936755700,8.487755615234375,-0.0003518882440403104,-0.0013175536878407001,0.0004922921652905643
1783696388946719700,8.4977197265625,0.0008434036280959845,-0.0004569027805700898,0.0013775367988273501
1783696388956682800,8.507682861328124,-0.0008453067275695503,0.0028952178545296192,0.0013293336378410459
1783696388966645800,8.517645751953125,-0.00006188947008922696,0.00007468601688742638,0.0012723823310807347
1783696388976608800,8.52760888671875,-0.0017418115166947246,-0.00019882060587406158,-0.00019528577104210854
1783696388986571500,8.537571533203124,-0.0009683826938271523,0.0006030595395714045,-0.00033321219962090254
1783696388996534500,8.547534423828125,-0.001716730883345008,-0.00047312385868281126,0.000668136402964592
1783696389006498600,8.55749853515625,-0.00083361123688519,-0.00016411335673183203,-0.002066238783299923
1783696389016461600,8.567461669921874,-0.0001867293904069811,0.0012244589161127806,-0.00012772390618920326
1783696389026424600,8.577424560546875,0.0006938931765034795,-0.0023086322471499443,-0.0010165025014430285
1783696389036387600,8.5873876953125,0.00010959565406665206,0.0017343125073239207,-0.00202717212960124
1783696389046350600,8.5973505859375,-0.0003216093173250556,0.0006704370025545359,0.0003164721420034766
1783696389056314600,8.607314697265625,-0.000825479393824935,-0.002171155996620655,-0.00022841058671474457
1783696389066277600,8.617277587890625,0.0011221423046663404,0.0019013878190889955,0.0006076014833524823
1783696389076241000,8.627240966796874,-0.000068556924816221,0.0002483637072145939,-0.00040413346141576767
1783696389086203600,8.63720361328125,-0.00008226869977079332,-0.001769396010786295,-0.0013355048140510917
1783696389096166700,8.647166748046875,-0.00040424487087875605,0.001532657304778695,-0.0003432108787819743
1783696389106129700,8.657129638671876,-0.0019903930369764566,0.0006600665510632098,0.00152873108163476
1783696389116092700,8.6670927734375,0.0007201723055914044,-0.0029109662864357233,0.0016339258290827274
1783696389126056700,8.677056640625,-0.0014074333012104034,0.0007824034546501935,0.0005882465629838407
1783696389136019700,8.687019775390626,0.00015930435620248318,0.0008183561149053276,0.0003128757234662771
1783696389145982700,8.696982666015625,-0.0008327256655320525,-0.001469375449232757,0.0002612125244922936
1783696389155945700,8.70694580078125,0.0008549195481464267,0.0007271997164934874,0.0010407197987660766
1783696389165908500,8.716908447265626,0.00046197292977012694,0.000420147436670959,-0.0008236056892201304
1783696389175871500,8.72687158203125,-0.0002679995377548039,0.0003703463589772582,-0.00020282284822314978
1783696389185835500,8.73683544921875,0.0008140721474774182,0.0005708595272153616,-0.0004585519200190902
1783696389195798500,8.746798583984376,-0.00118862499948591,-0.00033781107049435377,0.00004798138979822397
1783696389205761800,8.75676171875,-0.0002502300776541233,-0.00016418402083218098,-0.0003675417974591255
1783696389215724800,8.766724853515624,0.0003774769720621407,0.0014134725788608193,0.00044632016215473413
1783696389225687800,8.776687744140625,-0.00016223844431806356,-0.001844156184233725,-0.0004669952904805541
1783696389235650800,8.78665087890625,-0.0008887487929314375,-0.0004806177457794547,-0.001311217318288982
1783696389245614800,8.79661474609375,0.00001662314753048122,0.0016169757582247257,0.000027883914299309254
1783696389255577600,8.80657763671875,0.00022781180450692773,-0.0002720043994486332,-0.000008335104212164879
1783696389265540600,8.81654052734375,-0.00040228001307696104,-0.0020329407416284084,-0.0017138622933998704
1783696389275503600,8.826503662109374,0.0016843066550791264,0.0012318284716457129,-0.0011700448812916875
1783696389285466600,8.836466552734375,0.0006022478337399662,-0.0010409372625872493,0.00011545233428478241
1783696389295429600,8.8464296875,-0.0002749974373728037,-0.0014723694184795022,-0.0009354311041533947
1783696389305393700,8.8563935546875,-0.000937008997425437,0.002461152384057641,0.0009277150384150445
1783696389315356700,8.866356689453125,0.000467009493149817,-0.001114940270781517,0.0002185152843594551
1783696389325319700,8.876319580078125,0.001121046836487949,0.00047284166794270277,0.0008387059788219631
1783696389335282700,8.88628271484375,0.0009053308749571443,0.0002866866998374462,0.0008440322708338499
1783696389345245700,8.89624560546875,-0.0011749964905902743,-0.0006352809723466635,0.000199577072635293
1783696389355209500,8.90620947265625,-0.00008017101208679378,0.0016731470823287964,-0.00033385411370545626
1783696389365172700,8.9161728515625,0.00038612246862612665,-0.0007789862575009465,0.0009829946793615818
1783696389375135700,8.9261357421875,0.0002684107457753271,-0.0019382602768018842,0.0011329306289553642
1783696389385098800,8.9360986328125,-0.0003975265135522932,0.0018376593943685293,-0.0015744840493425727
1783696389395061800,8.946061767578126,0.00007731511141173542,0.0015063622267916799,-0.000745441997423768
1783696389405024800,8.956024658203125,-0.00017527166346553713,-0.0013867487432435155,-0.0015336822252720594
1783696389414988800,8.96598876953125,-0.000815495615825057,0.002158451359719038,-0.0003903871402144432
1783696389424951600,8.97595166015625,-0.0007203595596365631,0.0012308985460549593,0.0012891391525045037
1783696389434914600,8.98591455078125,0.0002048226015176624,-0.0005590119399130344,0.0007445226656273007
1783696389444877600,8.995877685546875,0.00024931601365096867,0.002299343468621373,-0.0003649286227300763
1783696389454840600,9.005840576171876,0.00030817187507636845,0.0010529840365052223,0.001201010076329112
1783696389464803600,9.015803466796875,-0.001304343342781067,-0.0010976531775668263,-0.000569105613976717
1783696389474766800,9.025766845703124,0.0002626605564728379,0.00011355255264788866,-0.00015471770893782377
1783696389484730600,9.035730712890626,-0.0008547954494133592,0.0008526123710907996,0.0013779904693365097
1783696389494693600,9.045693603515625,-0.00097650196403265,-0.0011407637502998114,0.0005082021234557033
1783696389504656600,9.05565673828125,0.0014682235196232796,0.0013260513078421354,0.0004221288254484534
1783696389514619600,9.06561962890625,-0.0015629864064976573,-0.0009221892105415463,-0.00023886770941317081
1783696389524582700,9.075582763671875,0.00042266998207196593,-0.0003085976932197809,0.00030963035533204675
1783696389534545700,9.085545654296874,-0.0009235579636879265,0.0013950264547020197,0.00023612711811438203
1783696389544509700,9.095509765625,-0.0017049345187842846,-0.0007307701744139194,0.00010209297761321068
1783696389554472700,9.10547265625,0.0007851210539229214,0.00022929941769689322,-0.0012129760580137372
1783696389564435700,9.115435791015624,-0.00014613007078878582,0.0034186814446002245,-0.0000687657156959176
1783696389574398700,9.125398681640625,-0.0010785027407109737,-0.0023760907351970673,0.00004441861528903246
1783696389584361500,9.135361572265625,-0.0009900087025016546,0.000787592027336359,-0.00011334032751619816
1783696389594324700,9.14532470703125,-0.0016233082860708237,0.001653119339607656,0.0005481889238581061
1783696389604288800,9.155288818359375,-0.00047355901915580034,-0.002725725993514061,0.0018196618184447289
1783696389614251800,9.165251708984375,0.00039995781844481826,0.001395515981130302,0.0005999340210109949
1783696389624214800,9.17521484375,-0.00020773516735062003,0.0006766128353774548,0.00006385328015312552
1783696389634178000,9.185177978515625,-0.000793896964751184,-0.003935982473194599,-0.001410206314176321
1783696389644141000,9.19514111328125,0.00002566821058280766,0.001201424514874816,-0.00012571830302476883
1783696389654103800,9.205103759765626,0.0007551080780103803,0.0016962399240583181,-0.0007044231751933694
1783696389664068000,9.215068115234375,0.0008204658515751362,-0.0016403429908677936,-0.001353697618469596
1783696389674030800,9.22503076171875,-0.0011729102116078138,0.0012497195275500417,-0.0005065459990873933
1783696389683993900,9.234993896484376,-0.0005210670060478151,0.0008813462336547673,0.0005251920665614307
1783696389693956900,9.244956787109375,-0.0005636776331812143,-0.0016047145472839475,-0.0016836337745189667
1783696389703919900,9.254919921875,-0.0012136014411225915,0.0009125290671363473,-0.0009580178884789348
1783696389713883000,9.2648828125,-0.00017470229067839682,0.0004363558255136013,0.0008492032065987587
1783696389723847000,9.274846923828125,-0.0004964083200320601,-0.0008882206166163087,-0.0012744959676638246
1783696389733810000,9.284809814453125,0.00048549918574281037,0.0021302062086760998,-0.0013954035239294171
1783696389743773000,9.29477294921875,-0.001770020229741931,0.000746771926060319,-0.0006709966110065579
1783696389753735700,9.304735595703125,-0.00027172581758350134,-0.0010170397581532598,-0.0011421097442507744
1783696389765566700,9.316566650390625,0.0009905403712764382,0.0027398336678743362,-0.0000602671061642468
1783696389775530000,9.326530029296874,-0.0005314741283655167,-0.0018109541852027178,0.00020096986554563046
1783696389785493800,9.33649365234375,0.0008373906603083014,-0.0007446245290338993,-0.0010882664937525988
1783696389795456800,9.346456787109375,0.00042814953485503793,0.0006389027112163603,-0.0014570672065019608
1783696389805420000,9.356419921875,-0.000297561869956553,-0.0016684600850567222,0.0006492268294095993
1783696389815383000,9.366383056640625,0.0005414496990852058,-0.0007997448556125164,-0.0020366497337818146
1783696389825346000,9.376345947265625,-0.0000710773456376046,0.001087903743609786,0.00030054053058847785
1783696389835308800,9.386308837890626,-0.0003160776395816356,-0.0016467457171529531,-0.0008724763174541295
1783696389845272800,9.39627294921875,-0.0007672171341255307,-0.00016469659749418497,-0.0011851312592625618
1783696389855235800,9.40623583984375,-0.0011482441332191229,0.0010411033872514963,0.0012413847725838423
1783696389865198800,9.41619873046875,0.0009236952755600214,-0.0015043457970023155,0.0005068849422968924
1783696389875161900,9.426161865234375,0.0002667248190846294,0.0017413400346413255,-0.00115978776011616
1783696389885124900,9.436124755859375,-0.0005972046637907624,0.0014081785921007395,0.0009028305648826063
1783696389895087900,9.446087890625,0.0017107916064560413,-0.0006366823799908161,-0.001992016565054655
1783696389905052000,9.456052001953125,0.00020104576833546162,0.0000826375326141715,-0.0014860160881653428
1783696389915015000,9.466014892578125,0.0011152812512591481,0.0005090553313493729,0.001050301012583077
1783696389924977700,9.475977783203126,-0.00040085637010633945,-0.0020073656924068928,0.0008476343937218189
1783696389934941000,9.48594091796875,0.002023265929892659,0.0013321349397301674,0.0006433134549297392
1783696389944904000,9.495904052734375,0.00105094606988132,0.0018668976845219731,0.00040389527566730976
1783696389954867000,9.505866943359376,0.0010687485337257385,-0.002636214718222618,0.00029411882860586047
1783696389964831000,9.5158310546875,-0.00018986141367349774,0.0022829100489616394,0.0007380677852779627
1783696389974794000,9.5257939453125,-0.00042126019252464175,0.0009987977100536227,0.0017772989813238382
1783696389984757000,9.535757080078126,-0.0007983638206496835,-0.0006808580365031958,-0.0006728091975674033
1783696389994720000,9.545719970703125,-0.00038589024916291237,0.0013942222576588392,-0.0012909681536257267
1783696390004682800,9.555682861328124,-0.0011488859308883548,-0.0015781319234520197,0.0006070667295716703
1783696390014645800,9.565645751953125,0.001357438275590539,-0.0016425213543698192,0.0002220520400442183
1783696390024609800,9.57560986328125,0.0007004364160820842,0.001713327830657363,0.0006146019441075623
1783696390034572800,9.58557275390625,-0.0012505484046414495,0.00013681885320693254,0.000039986567571759224
1783696390044535800,9.595535888671876,-0.0011970188934355974,-0.0009838392725214362,-0.0015754869673401117
1783696390054498800,9.605498779296875,-0.0010682642459869385,0.0008089028997346759,0.00045379335642792284
1783696390064461800,9.6154619140625,-0.0006600016495212913,-0.0019759645219892263,0.0010103939566761255
1783696390074425000,9.625425048828125,-0.0014529202599078417,-0.0015300912782549858,-0.0010586290154606104
1783696390085010700,9.6360107421875,0.0005889253225177526,0.0006209439015947282,0.00023460190277546644
1783696390094973700,9.6459736328125,0.0019192411564290524,-0.0019374929834157228,0.00017370324349030852
1783696390104937000,9.65593701171875,-0.0004501731600612402,0.00015548535156995058,0.00004107784479856491
1783696390114900000,9.66589990234375,-0.000021604268113151193,0.002324130618944764,-0.00016264774603769183
1783696390124863000,9.675863037109375,-0.001241864636540413,-0.0025161646772176027,0.000015517754945904016
1783696390134827000,9.685826904296874,-0.0005272376583889127,0.0014931176556274295,-0.0007628635503351688
1783696390144790000,9.6957900390625,-0.0009810402989387512,0.001108024618588388,0.000032356358133256435
1783696390154753000,9.7057529296875,0.0012567306403070688,-0.0022183475084602833,0.00017691508401185274
1783696390164715800,9.7157158203125,-0.0010879163164645433,0.00046505359932780266,-0.0009309599408879876
1783696390174678800,9.7256787109375,-0.002035804558545351,0.0010788023937493563,-0.0002200249582529068
1783696390184641800,9.735641845703125,-0.00030208667158149183,-0.0020480151288211346,0.0002007544389925897
1783696390194605800,9.745605712890624,-0.00029335662839002907,0.003283849684521556,-0.0007540226215496659
1783696390204568800,9.75556884765625,-0.001195901888422668,0.00017620704602450132,0.00019246479496359825
1783696390214531800,9.76553173828125,-0.0014244127087295055,-0.0013802041066810489,-0.001125680049881339
1783696390224494800,9.775494873046876,-0.00008644058834761381,0.002418795134872198,-0.0019962675869464874
1783696390234457900,9.785457763671875,-0.000020074076019227505,-0.00043069140519946814,0.00010903755901381373
1783696390244420900,9.7954208984375,-0.00019850587705150247,-0.0009284360567107797,0.0011444746050983667
1783696390254384600,9.805384521484376,-0.0010256069945171475,0.003007233142852783,-0.002355518750846386
1783696390264348000,9.815347900390625,0.0005901328986510634,-0.000058597768656909466,0.0006293522892519832
1783696390274311000,9.825310791015625,0.0001834992435760796,-0.0008177876006811857,-0.000044485204853117466
1783696390284274000,9.83527392578125,-0.00015205905947368592,0.002736467169597745,-0.0006777849048376083
1783696390294237000,9.84523681640625,-0.0002762184012681246,-0.0003180534113198519,-0.00045009597670286894
1783696390304200000,9.855199951171874,-0.00021762885444331914,-0.0009726583957672119,0.00005803513340651989
1783696390314164000,9.8651640625,-0.0014246581122279167,0.0026967294979840517,-0.0009870452340692282
1783696390324127000,9.875126953125,-0.0009333048947155476,-0.0026809917762875557,0.0005863502738066018
1783696390334089700,9.88508984375,-0.0007042252691462636,-0.0007662695134058595,0.000956822419539094
1783696390344052700,9.895052734375,-0.000042429775930941105,0.0020430991426110268,-0.001753210206516087
1783696390354015700,9.905015625,-0.0012475713156163692,-0.000851605786010623,-0.0006766137667000294
1783696390363978800,9.914978759765624,0.0003758915700018406,0.006691797636449337,0.002691485919058323
1783696390373942800,9.92494287109375,-0.0036669389810413122,0.1618276834487915,0.1445980966091156
1783696390383905800,9.93490576171875,-0.0093213627114892,0.14432406425476074,0.15685182809829712
1783696390393868800,9.944868896484374,-0.004058883059769869,-0.013094956055283546,0.03941275179386139
1783696390403832000,9.95483203125,0.0034690741449594498,-0.09331309795379639,-0.06429500132799149
1783696390413794800,9.964794921875,0.0026418552733957767,-0.04141070693731308,-0.08108501136302948
1783696390423757800,9.9747578125,0.0055942353792488575,-0.003913396503776312,-0.062411192804574966
1783696390433721900,9.984721923828126,0.002345188520848751,-0.042194996029138565,-0.06505516171455383
1783696390443684900,9.994684814453125,-0.0005877508083358407,-0.0752381682395935,-0.04862239584326744
1783696390453648000,10.00464794921875,0.0004908611299470067,-0.0485600046813488,-0.017916321754455566
1783696390463611000,10.01461083984375,0.0007539814105257392,0.0108878742903471,0.009832752868533134
1783696390473574000,10.024573974609375,-0.00041765134665183723,0.027798399329185486,0.009651584550738335
