time,seconds_elapsed,z,y,x
1783696380516626700,0.067626708984375,-0.037411154505610465,-0.0009075432989746332,-0.014887955193407833
1783696380526589700,0.077589599609375,0.02587561501264572,-0.012048640114255249,0.04689326860010624
1783696380536552700,0.087552734375,-0.04339315152466297,-0.007491378668695688,-0.024693711751699446
1783696380546515700,0.097515625,-0.07719429883956909,0.0020040698314085603,-0.05038702899999916
1783696380556478700,0.107478759765625,-0.00478489618897438,0.012594912352785467,0.029265001722611487
1783696380566442800,0.11744287109375,0.020649404796957968,-0.03273337195292115,0.023106917484290897
1783696380576405800,0.12740576171875,-0.053099137502908705,0.008754128613509238,-0.02670227509513497
1783696380586368800,0.13736865234375,-0.09559270983934402,0.027359095036052165,-0.017566051828861236
1783696380596331800,0.147331787109375,-0.007929623955488204,-0.006326791868731379,0.017750358887203038
1783696380606294500,0.15729443359375,0.02275602168738842,-0.019787709933705627,0.009331891968846321
1783696380616258800,0.1672587890625,-0.057286652320623396,0.009728380473144352,-0.018101729608140885
1783696380626221600,0.1772216796875,-0.06837269448041916,0.0095666871054098,-0.02919456683490425
1783696380636184600,0.1871845703125,0.006439677658677101,0.004569353742152452,0.01618654363658279
1783696380646147800,0.19714794921875,0.0019599018961191177,-0.014494718092121182,0.009456504729203879
1783696380656110800,0.20711083984375,-0.047121232137084,0.00014561901576817034,-0.023478563808277248
1783696380666075000,0.217074951171875,-0.058043023645877836,-0.0002842237688601017,-0.00860123960673809
1783696380676038000,0.227037841796875,-0.012250409764051437,-0.012021898237802088,0.023617862681113183
1783696380686001000,0.2370009765625,-0.004007482075691223,-0.013445903158932923,-0.010710121519491076
1783696380695964000,0.2469638671875,-0.058922144567966454,0.020861440112441777,-0.011499372201040386
1783696380705926700,0.2569267578125,-0.046209962511062616,0.007050429968163371,-0.0033519407764077184
1783696380715890700,0.266890625,0.014995909079909324,-0.0068155982989817855,-0.01675104565154761
1783696380725853700,0.276853759765625,-0.013869535398483275,-0.010108538897149265,-0.006806428611837327
1783696380735816700,0.286816650390625,-0.05457680884003639,0.0046062882190570234,0.005510726245492696
1783696380745779700,0.29677978515625,-0.03167699476778507,0.0046388387817889445,-0.012889913243986665
1783696380755742700,0.30674267578125,-0.0030862755775451656,-0.021413119178451595,-0.004423332867585122
1783696380765705700,0.316705810546875,-0.03466974684298038,0.0040700989831238986,0.007421601368114351
1783696380775669800,0.326669677734375,-0.05367489156424999,-0.005012019475735724,-0.009803893394768238
1783696380785632800,0.3366328125,-0.022693477845191955,-0.008329473460651934,0.004548932008631527
1783696380795595500,0.346595458984375,-0.025531916141510007,-0.00009531360063701868,-0.007664324082806706
1783696380805558800,0.356558837890625,-0.028368016350269316,0.01139536383729428,-0.012910882966779171
1783696380815521800,0.366521728515625,-0.0416840095192194,0.017939561316370964,-0.003841770119965076
1783696380825485800,0.37648583984375,-0.030164836639165877,-0.011362119154818355,-0.009326631271839142
1783696380835448800,0.38644873046875,-0.014304419684410095,-0.013069544127210973,-0.01099671990852803
1783696380845411800,0.396411865234375,-0.02552840901017189,-0.0011444938600063323,-0.0022914719380438325
1783696380855374800,0.406374755859375,-0.04857786068618297,-0.016502331587485968,-0.0017525062231346963
1783696380865337900,0.416337890625,-0.014005144476890562,-0.001657923274859786,-0.010762180500291287
1783696380875300600,0.426300537109375,-0.02238075863420963,-0.001690510370209813,-0.00739438456762582
1783696380885264600,0.4362646484375,-0.029418986707925796,-0.012421893873438238,0.00572765693180263
1783696380895227600,0.4462275390625,-0.0306125804066658,0.0011841682832688092,-0.013959953628294169
1783696380905190700,0.456190673828125,-0.03839022867083549,-0.01903824327327311,-0.00013498802389949558
1783696380915153700,0.466153564453125,-0.04616846145689487,-0.0030306729327887294,0.002997939706966281
1783696380925116700,0.47611669921875,-0.038680736050009726,0.006226509832032025,-0.0010382204739376902
1783696380935080700,0.486080810546875,-0.041076106753945345,-0.003879581379704177,-0.0031983211172744628
1783696380945043700,0.496043701171875,-0.028809914898872375,-0.00760338767580688,-0.007597213663347065
1783696380955006700,0.5060068359375,-0.015490414598584175,0.00874159792549908,0.002779328520223498
1783696380964969700,0.5159697265625,-0.04826689504086971,-0.01462451848424971,-0.0006645283233374357
1783696380974932700,0.5259326171875,-0.04826689504086971,-0.00609780541844666,-0.012023067281581461
1783696380984896800,0.535896728515625,-0.0240203425347805,0.006998334454745054,0.0010757760053500532
1783696380994859800,0.54585986328125,-0.030607904231548307,-0.012102598791196942,0.008751936656422913
1783696381004822800,0.55582275390625,-0.03839022867083549,-0.007463869607262313,-0.02607873636931181
1783696381014785800,0.565785888671875,-0.01833060646057129,0.002669876796379685,-0.006370959804020822
1783696381024748800,0.575748779296875,-0.029557518395781517,-0.011835910679027438,-0.0008773673564195632
1783696381034711800,0.5857119140625,-0.024470424389839172,-0.003024864246509969,-0.0023266163166612386
1783696381044675800,0.59567578125,-0.022368483674526214,0.0056023135190829635,0.0045629240013659
1783696381054638800,0.605638916015625,-0.03464052074849605,-0.0014670768778771162,-0.00893891059588641
1783696381064601600,0.6156015625,-0.012042319971323013,0.000949519277177751,-0.009605886604636907
1783696381074564600,0.625564697265625,-0.03717734574973583,-0.002673566590808332,-0.00204579008128494
1783696381084527600,0.635527587890625,-0.03658288698792457,-0.01991451465114951,-0.006225742647051811
1783696381094491600,0.64549169921875,-0.03224456552267074,-0.010993468505516647,-0.02077087575215846
1783696381104454700,0.65545458984375,-0.03209142078757286,-0.013835560063645242,0.001413264331407845
1783696381114417700,0.665417724609375,-0.03883095817565918,-0.010488916516862809,-0.02183331735190004
1783696381124381000,0.675380859375,-0.031041034951806067,-0.0038509032744914293,0.0006416954370215535
1783696381134344000,0.685343994140625,-0.03717383861839771,-0.013589111021906136,-0.011828932948969305
1783696381144308000,0.695307861328125,-0.035085926428437234,-0.004264562109299003,-0.0024133812846615908
1783696381154270700,0.705270751953125,-0.03911971198916435,-0.00101999069750309,-0.0008899711096659302
1783696381164233700,0.715233642578125,-0.04061374993920326,0.01034019222855568,-0.0025947292009368536
1783696381174196700,0.72519677734375,-0.021322774013876913,-0.008001885474100709,-0.0073961746659129855
1783696381184159700,0.73515966796875,-0.023564999982714652,-0.005007964355126023,-0.01045874057430774
1783696381194122800,0.745122802734375,-0.03478606669902801,-0.004270809186995029,-0.000629931933991611
1783696381204086800,0.755086669921875,-0.0376361954331398,-0.0099501334650442,-0.02062478181235492
1783696381214049800,0.7650498046875,-0.00665887336730957,0.006771795689873397,-0.0074761810995638365
1783696381224012800,0.7750126953125,-0.029707155999541282,-0.00927727570477873,-0.0006220043558627366
1783696381233975600,0.7849755859375,-0.03255553116798401,-0.019796075903251765,-0.009687610071338712
1783696381243938600,0.7949384765625,-0.011751228070259094,-0.0030992081243544816,0.0019295432904735206
1783696381253902600,0.804902587890625,-0.020881459987163543,0.0020263912610709667,-0.011524945033714174
1783696381263865600,0.814865478515625,-0.031359014859795566,-0.013699293398112058,-0.02069189223181456
1783696381273828900,0.824828857421875,-0.023420623075962065,0.0039061771256849167,-0.009314721638336777
1783696381283792000,0.8347919921875,-0.04871054715514183,-0.016626250228099524,-0.004007189814746379
1783696381293755000,0.8447548828125,-0.02626782920062542,-0.009485438562743365,-0.006852751971594989
1783696381303719000,0.854718994140625,-0.024021511578559872,0.0013397607037797569,-0.0008467895550653338
1783696381313682000,0.864681884765625,-0.053360418787598604,0.00019979688841849564,0.002901895453967154
1783696381323644700,0.874644775390625,-0.02328676756322384,0.003523936342447996,-0.008848273170366882
1783696381333607700,0.884607666015625,-0.012959434816241264,0.00020721300989389417,0.0024813684869557616
1783696381343570700,0.89457080078125,-0.02942132479548454,-0.009042663231305778,0.006093677232600748
1783696381353533700,0.90453369140625,-0.02747194429337978,-0.019358342073112725,-0.009096658440865575
1783696381363497700,0.914497802734375,-0.02761982833147049,0.0020695362830534577,-0.00291132086943835
1783696381373460700,0.924460693359375,-0.027775311154127118,-0.010465572173893451,-0.013561017438583076
1783696381383423700,0.934423828125,-0.021938860085606575,-0.007170366553403437,-0.01657627360653132
1783696381393386800,0.94438671875,-0.029262919363379478,0.0060926543192937966,-0.002383205342106521
1783696381403349800,0.954349853515625,-0.044829906329512594,-0.01840692309979349,0.0018990020217373965
1783696381413313800,0.964313720703125,-0.016099486407637593,-0.018981690780445933,-0.000237644680775702
1783696381423276500,0.974276611328125,-0.030315643286705014,-0.0024516674684360623,0.004628280855156481
1783696381433239800,0.98423974609375,-0.04214636633396148,-0.010202939182333648,-0.012785904880240558
1783696381443202800,0.994202880859375,-0.029426000970602034,0.002187098248116672,-0.011593480225279926
1783696381453165800,1.004165771484375,-0.04199614420831203,-0.004523761034756899,0.009795710088312625
1783696381463128800,1.01412890625,-0.035872692891955375,-0.015812522692419586,-0.0065888768710196015
1783696381473092900,1.0240927734375,-0.024795418560504913,-0.003605805939622223,-0.012605360681563616
1783696381483055900,1.034055908203125,-0.03647182782888412,0.010433533067815005,0.007413454594276845
1783696381493019000,1.044018798828125,-0.045154315978288645,-0.012241678468324243,-0.01592723511327058
1783696381502981600,1.053981689453125,-0.008786533045768737,-0.0023818171026185153,-0.009783654324337839
1783696381512944600,1.063944580078125,-0.0415618444442749,-0.00928301132582128,0.007384922619536519
1783696381522908700,1.07390869140625,-0.02825286553800106,-0.0006618979748338461,-0.01103844015840441
1783696381532871700,1.08387158203125,-0.024356442621350286,0.009458952414616941,-0.008293817625381053
1783696381542834700,1.093834716796875,-0.03333762145638466,0.00008504793494939804,0.0018967735320329665
1783696381552797700,1.103797607421875,-0.037984570479393,-0.011545330234616994,-0.011390395401231945
1783696381562760700,1.1137607421875,-0.024058920979499816,0.002603716224990785,-0.006491700106859207
1783696381572724700,1.123724853515625,-0.04007482075691223,-0.021992818762548265,0.003102276864275336
1783696381582688000,1.13368798828125,-0.03200198893845081,-0.011775010804645717,-0.012004618309438228
1783696381592651000,1.143651123046875,-0.024813538739085195,0.021546572832390663,-0.011502258277870714
1783696381602614000,1.153614013671875,-0.03633855683803558,-0.0035765067799016833,-0.00635879444219172
1783696381612577000,1.163576904296875,-0.02242693586349487,-0.0034436741804704067,0.000838021726720035
1783696381622540000,1.1735400390625,-0.026763503763079642,0.0024216741889715194,-0.0025759149026125666
1783696381632504000,1.183504150390625,-0.03649637774825096,-0.00648044806048274,-0.005347096648998558
1783696381642467000,1.193467041015625,-0.024675591573119163,0.0007952420309185981,-0.0064491761393845074
1783696381652430000,1.20343017578125,-0.017639117065072058,-0.008355082825943827,-0.009055559245496989
1783696381662393000,1.21339306640625,-0.03919745340049267,-0.011367233721353114,-0.0035320831162855026
1783696381672355800,1.22335595703125,-0.03680208269655704,-0.015754107036069033,-0.012639409081637859
1783696381682320100,1.233320068359375,-0.03874035728275776,0.0047235944557934995,-0.00533394490648061
1783696381692283000,1.243282958984375,-0.031114684709906575,-0.01781735970880836,-0.003145494951494038
1783696381702246000,1.253245849609375,-0.023635142609477043,-0.007864742025732993,-0.009455920207314193
1783696381712209000,1.263208984375,-0.040994273689389224,0.0022153744945302605,0.002316167987883091
1783696381722172000,1.273171875,-0.03650923722982406,-0.011917999471910298,0.0005869695750996471
1783696381732135200,1.28313525390625,-0.009575637596845626,-0.01314067313466221,-0.00039184886179864404
1783696381742099000,1.293098876953125,-0.0320201091170311,-0.004278627167269587,0.004625942767597735
1783696381752062200,1.303062255859375,-0.038462709385156627,-0.006461560696922242,-0.008986768325604497
1783696381762025200,1.313025146484375,-0.016609189495444297,-0.003105126408487558,-0.007407024853490292
1783696381771988000,1.322988037109375,-0.030676877814531326,-0.0039040217012166973,-0.004061623415723443
1783696381781951000,1.332950927734375,-0.03712123164832592,-0.0057466173605993385,-0.012879611045680939
1783696381791915000,1.3429150390625,-0.029936873102188108,-0.0002602949040010571,-0.005384067658521234
1783696381801878000,1.3528779296875,-0.04519932416379451,-0.0027429420325905084,0.01337404349911958
1783696381811841000,1.362841064453125,-0.02918868508338928,-0.002885309645347297,-0.012206716752797364
1783696381821804000,1.372803955078125,-0.023056465938687324,-0.005051328572817147,0.006760616708733141
1783696381831767000,1.38276708984375,-0.033837387672066684,-0.011421996115893125,-0.006135908939130604
1783696381841730000,1.39272998046875,-0.016180734950304032,-0.003886522577144205,-0.012728402539342642
1783696381851694000,1.402694091796875,-0.02754384048581123,-0.012222791104763745,0.003908003756590187
1783696381861656800,1.41265673828125,-0.039516602352261544,-0.00007817980274558067,0.006035846098139882
1783696381871619800,1.422619873046875,-0.03398410266637802,0.0023310002308338878,-0.009732764387317001
1783696381881582800,1.432582763671875,-0.013923895934224127,0.00454611899703741,0.005304353485815227
1783696381891546000,1.442546142578125,-0.041915480187535284,-0.021086700235679743,-0.0020501374628394842
1783696381901510000,1.452510009765625,-0.026352584874629974,-0.0025804814798757432,-0.012023688336089253
1783696381911473200,1.46247314453125,-0.02410042203366756,-0.0016309256700798868,-0.0075248790794983506
1783696381921436200,1.472436279296875,-0.030541853258013722,-0.001999247525818646,0.002144062823988497
1783696381931399200,1.482399169921875,-0.033089784175157545,-0.0027106471981853245,-0.01873622811939567
1783696381941362000,1.49236181640625,-0.023211364239454267,-0.004870419047959149,-0.00037537265103310347
1783696381951325000,1.502324951171875,-0.02127250513136387,-0.009622837739437819,0.0033657866386696696
1783696381961289000,1.5122890625,-0.037888124367594714,0.014638035552948712,-0.014748035266064106
1783696381971252000,1.522251953125,-0.030558219870924948,-0.0005190189054235816,0.0040206338182091714
1783696381981215000,1.532215087890625,-0.03101122433543205,-0.0018085107266902923,0.0063162339420989155
1783696381991178000,1.542177978515625,-0.01649929938018322,-0.0021023060414940118,-0.0043842794988304375
1783696382001141000,1.55214111328125,-0.031764088529348374,0.0018762422006577252,0.015156579534336924
1783696382011104000,1.56210400390625,-0.030873861691355704,-0.008267623738199472,-0.006817242266796529
1783696382021068000,1.572068115234375,-0.019044892209768294,-0.012142565475404262,-0.009842289176397024
1783696382031030800,1.58203076171875,-0.03385550785064697,0.0022389015005901455,0.008885499908216297
1783696382040994000,1.591994140625,-0.03340659503936767,-0.016466748817451297,0.00445822151787579
1783696382050957000,1.60195703125,-0.0057101943403482435,0.0033744448691606518,-0.01690780711583793
1783696382060920000,1.611920166015625,-0.025306290692090987,-0.013741488572023808,-0.0008566533619537949
1783696382070884000,1.621884033203125,-0.02695581146478653,-0.014762209921889006,0.005804923419095575
1783696382080847000,1.63184716796875,-0.010786182430386542,0.0019858035223558543,-0.012991218193992972
1783696382090810000,1.64181005859375,-0.02364917113482952,0.001812931173481047,0.010961538997292518
1783696382100773000,1.651773193359375,-0.029790158107876778,-0.003908259484916925,-0.005425130321271717
1783696382110736000,1.66173583984375,-0.03383154245316982,0.004341718998737633,0.004896941728703677
1783696382120700000,1.671699951171875,-0.029344167906045913,-0.0014370105331763625,-0.0012639189885929225
1783696382130663000,1.681662841796875,-0.015575754794478416,-0.001962861038185656,0.00043813568893820047
1783696382140626000,1.6916259765625,-0.00973579659461975,0.002205035763606429,0.0010952113581821322
1783696382150589000,1.7015888671875,-0.04086860148310661,-0.004799838029779494,-0.0047427740802988404
1783696382160552000,1.711552001953125,-0.03264028684198856,-0.01350293057579547,-0.008698562501370907
1783696382170515000,1.721514892578125,-0.015723054310679434,0.003481777701154351,-0.0017982085283845663
1783696382180479000,1.73147900390625,-0.03383504958450794,-0.0006664280194789171,0.003236205442249775
1783696382190442000,1.74144189453125,-0.03218786689937114,-0.00651150078587234,-0.0030615795277059077
1783696382200405000,1.751405029296875,-0.021554244682192802,0.002847279189899564,0.01246734045036137
1783696382210368000,1.761367919921875,-0.038169279396533966,-0.012940072528645395,0.010582001627795398
1783696382220331000,1.7713310546875,-0.023206688064336775,0.002932107929140329,-0.0016712942130863665
1783696382230295000,1.781294921875,-0.022902152159810066,0.0005623100578784942,-0.002750906143337488
1783696382240258000,1.791258056640625,-0.045649406018853186,-0.000677607000619173,-0.004279467417486011
1783696382250221000,1.801220947265625,-0.015722469788789748,-0.002224544181674719,-0.010028861257061362
1783696382260184000,1.81118408203125,-0.025893150669336316,-0.005962379003129899,0.0009145940942689776
1783696382270147000,1.82114697265625,-0.041613866892457003,-0.009748363815248013,0.0028240809774026272
1783696382280109800,1.83110986328125,-0.02111293065547943,-0.00041124768201261755,-0.004015555784292519
1783696382290074000,1.84107421875,-0.025149054303765295,0.0036431788079440593,0.0076703519647940985
1783696382300036900,1.851036865234375,-0.03353635889887809,-0.02086414352618158,-0.00024330723658204078
1783696382309999900,1.860999755859375,-0.025602643290162087,-0.00641699090283364,-0.025361856804229317
1783696382319963000,1.870962890625,-0.02125847660601139,-0.00449142966773361,-0.009921528425067662
1783696382329926000,1.88092578125,-0.03219020498692989,-0.01251026627663523,-0.003335281902551651
1783696382339889200,1.89088916015625,-0.023805238479375837,-0.01043714979700744,-0.00884399885404855
1783696382349853000,1.90085302734375,-0.0371177245169878,-0.017753573757596314,-0.0030322073027491568
1783696382359816200,1.910816162109375,-0.03383388054072857,-0.0078021616509184235,0.004727430380694568
1783696382369779200,1.920779296875,-0.02216214744746685,0.003910378376767039,0.002582490773871541
1783696382379742000,1.930741943359375,-0.03518997132480144,0.0011427037617191672,0.01017879112176597
1783696382389705000,1.940705078125,-0.03520283080637455,-0.006989676224254071,0.0018860329423099754
1783696382399668000,1.95066796875,-0.016948212191462517,0.012927322644926607,-0.004534245896153152
1783696382409632000,1.960632080078125,-0.016051555612683295,-0.015646116616949438,-0.0016624898521229623
1783696382419595000,1.970594970703125,-0.026225743624567983,-0.006891513079404831,-0.015203158622421324
1783696382429558000,1.98055810546875,-0.023536942932009697,0.010404051245003938,0.0032086963808163997
1783696382439521000,1.99052099609375,-0.040897243055701256,-0.00799143714532256,-0.004215681466273963
1783696382449484000,2.000484130859375,-0.028024317479133604,-0.0012506211156025529,-0.02030113934855908
1783696382459448000,2.010447998046875,-0.01724865644276142,0.012553192102909087,-0.003334587782807648
1783696382469410800,2.020410888671875,-0.03655424541532993,-0.02350377131476998,-0.00942410029694438
1783696382479373800,2.030373779296875,-0.01874620152413845,0.0073902929143980145,-0.013525580799020826
1783696382489337000,2.040337158203125,-0.029362872606515884,0.006711918728798627,-0.005262414040230214
1783696382499300000,2.050300048828125,-0.03191431065499782,-0.014347674304246901,0.0010369783649221062
1783696382509263000,2.06026318359375,-0.02951543281972408,-0.008981763356924057,-0.016064122833311555
1783696382519227100,2.07022705078125,-0.016191256344318387,0.00233607826475054,0.0059659591997042296
1783696382529190100,2.080190185546875,-0.017393617871403692,-0.0047792701657861465,0.012013934127055108
1783696382539153200,2.090153076171875,-0.013955460116267204,-0.0006908683409914374,-0.021625373689644036
1783696382549116000,2.100115966796875,-0.030559973436594008,-0.0049672304859384895,-0.004497019158303737
1783696382559079000,2.110078857421875,-0.03550327505767345,-0.0035752281382679936,-0.0060612362677231425
1783696382569043000,2.12004296875,-0.021133973443508147,-0.0012579276392236352,0.00500146154910326
1783696382579006000,2.130005859375,-0.02427694764435291,-0.008319244327582418,0.006799377816542983
1783696382588968700,2.13996875,-0.03910100728869438,-0.009281769216805695,-0.001113842993415892
1783696382598931700,2.149931640625,-0.022789339435100555,0.004654693938046694,-0.013587284391000867
1783696382608894700,2.159894775390625,-0.025481647258996962,0.0006442892529070377,0.004589410149492323
1783696382618858000,2.16985791015625,-0.02593406720161438,-0.010422463684529065,-0.0019011939788237213
1783696382628821800,2.17982177734375,-0.03281330532133579,0.0014620719091966747,-0.012227576877735555
1783696382638784800,2.18978466796875,-0.039243630629777905,0.0018606793053448198,0.01151486203111708
1783696382648747800,2.199747802734375,-0.034601357781887054,-0.00498768875207752,-0.00729271429143846
1783696382658710800,2.209710693359375,-0.028458617243170736,-0.0023409005703404545,-0.004009126043505966
1783696382668673800,2.219673828125,-0.024570377632975576,-0.01006111955884844,0.01050093574821949
1783696382678636800,2.22963671875,-0.03250643132925033,-0.010370222040638326,-0.008636237854883074
1783696382688600800,2.239600830078125,-0.026815526211261747,0.0008363777589052915,-0.00785911600254476
1783696382698563800,2.249563720703125,-0.03922901758253574,-0.009588350947946309,-0.004916742407716811
1783696382708526800,2.25952685546875,-0.03010579992830753,-0.0013529489789158105,-0.011073511471785605
1783696382718489600,2.269489501953125,-0.019324293673038482,-0.006491919302567839,0.0022383900439366697
1783696382728452600,2.27945263671875,-0.03772621180415153,-0.013727642709761857,0.004163585952855646
1783696382738416600,2.289416748046875,-0.031445524099469185,-0.0021909707056358457,-0.013392054079845547
1783696382748379600,2.299379638671875,-0.014832827472686766,0.0026013781374320385,0.0026770737221464514
1783696382758342700,2.3093427734375,-0.028005028256773947,-0.005435395986959338,0.0027404943471774456
1783696382768305700,2.3193056640625,-0.014686112478375434,-0.005789250925928354,-0.007544716291129588
1783696382778269000,2.32926904296875,-0.02037000333368778,0.01081836766693741,0.004361263949424028
1783696382788232000,2.33923193359375,-0.04042845650017261,0.0003811813373118639,-0.015249080123379825
1783696382798195700,2.34919580078125,-0.022318214792013166,-0.006239186650514602,-0.011876681080833076
1783696382808158700,2.35915869140625,-0.01483224295079708,0.016180442689359188,0.008236315284483134
1783696382818121700,2.369121826171875,-0.047612230524420734,-0.00754215900786221,-0.0007120572594925761
1783696382828084700,2.379084716796875,-0.0353401934504509,0.003356982277706265,0.00003445025887340307
1783696382838047700,2.3890478515625,-0.013639818295836447,0.005814385367184877,-0.003288447086140513
1783696382848010800,2.3990107421875,-0.026215806752443314,-0.008361293371021747,0.005829363740608095
1783696382857974800,2.408974853515625,-0.029213235002756115,0.005138787660561502,-0.009354213398508728
1783696382867937800,2.418937744140625,-0.0432785852342844,-0.009774265441484749,0.008077873319759964
1783696382877900800,2.42890087890625,-0.0334141938239336,-0.015900200975872577,-0.007056275187060236
1783696382887863600,2.438863525390625,-0.04014379433989525,0.003528904778510332,-0.008191928153485059
1783696382897826600,2.44882666015625,-0.028615853631496428,-0.008009922650083899,-0.0016144494593143461
1783696382907789800,2.458789794921875,-0.031606267619132995,-0.01248469344396144,0.001338262866437435
1783696382917753600,2.468753662109375,-0.01962766053378582,0.008707951384223997,-0.006884973740763962
1783696382927716600,2.478716552734375,-0.035489246532320974,-0.0028484847662970424,0.003586187923699617
1783696382937680000,2.488679931640625,-0.023221885633468626,-0.006470291992649435,-0.017982633273117242
1783696382947643000,2.498642822265625,-0.014834581038355827,0.006807670720852911,-0.01815740531813353
1783696382957606000,2.50860595703125,-0.03653203358352184,-0.013500811683945357,0.008868877566978335
1783696382967570000,2.51856982421875,-0.03967208517491817,-0.004854527359083294,-0.009408610466867685
1783696382977533000,2.528532958984375,-0.01931435680091381,0.007526486514694989,-0.009107727824151516
1783696382987495700,2.53849560546875,-0.0333791225105524,0.00042505701165646313,0.0016753858663141727
1783696382997458700,2.548458740234375,-0.03577332417070865,-0.00053885611705482,-0.014846563737094401
1783696383007421700,2.558421630859375,-0.023346973317861557,0.00241283329539001,0.0017782617188990114
1783696383017384700,2.568384765625,-0.02963350624144077,-0.005195522816479206,0.001799706365726888
1783696383027348700,2.5783486328125,-0.027844284737110137,-0.006441869615763426,-0.014410437342152
1783696383037311700,2.588311767578125,-0.0263426480025053,0.004054645685665309,0.004112769081071019
1783696383047274800,2.598274658203125,-0.032926118046045304,-0.009751140294224024,-0.0064723378192633385
1783696383057237800,2.60823779296875,-0.028588381102681158,-0.00006966770272701979,-0.0039696342833340165
1783696383067200800,2.61820068359375,-0.02783668595254421,0.014892521770671008,0.0023644275764003395
1783696383077164500,2.62816455078125,-0.03966156378090381,-0.010632964630052446,-0.004351546273007989
1783696383087127800,2.6381279296875,-0.04549450771808624,0.011320946894213556,-0.009909582258947194
1783696383097090800,2.6480908203125,-0.02169511445760727,0.006781842159852385,-0.009161796098947525
1783696383107053800,2.6580537109375,-0.04025193088948727,-0.008786569578386843,-0.012079290980845689
1783696383117016800,2.668016845703125,-0.015105799195170402,0.0034886458333581684,-0.011943572304584085
1783696383126979800,2.677979736328125,-0.02632394330203533,0.015533157761767506,0.013019311777316033
1783696383136943900,2.68794384765625,-0.037250410985946655,-0.003941832960955799,-0.004821209611371159
1783696383146907000,2.697906982421875,-0.015396306574344635,0.001344729139842093,-0.018371559525467453
1783696383156869600,2.70786962890625,-0.016443769800662995,-0.008595759714022278,-0.006956066215597093
1783696383166832600,2.71783251953125,-0.04233458238244057,-0.006235606453940272,-0.012043598612956702
1783696383176795600,2.727795654296875,-0.024675007051229474,-0.005252440635487437,-0.020999752604588865
1783696383186758700,2.737758544921875,-0.03380290088057518,-0.0026574922388419506,-0.002968311753682792
1783696383196722700,2.74772265625,-0.03859948750734329,-0.00398059406876564,-0.008152180664986372
1783696383206685700,2.757685791015625,-0.03021101386845112,0.00729008394293487,-0.006167874979972839
1783696383216648700,2.767648681640625,-0.029615386062860488,0.01064385135024786,-0.00377820336446166
1783696383226612000,2.777612060546875,-0.030665187376737593,-0.0013625570574775337,-0.009495521565340458
1783696383236574700,2.78757470703125,-0.02736439226567745,0.003321655235998332,-0.013647563210874795
1783696383246537700,2.797537841796875,-0.02945873419642448,-0.009829758488386868,0.004119381484948098
1783696383256501800,2.807501708984375,-0.040239655929803844,-0.006960669325478374,-0.009170344731584191
1783696383266464800,2.81746484375,-0.032302433189749714,0.0162304923761636,-0.005767258289828896
1783696383276427800,2.827427734375,-0.04427928670942783,-0.006063903148844838,0.0013661007214337587
1783696383286390800,2.837390869140625,-0.025727146452665328,-0.01789890051241964,-0.015574549218080937
1783696383296353800,2.847353759765625,-0.012103694769740103,0.004938917706906795,-0.003861278538033366
1783696383306317800,2.85731787109375,-0.035896658289432525,-0.0021030001612380145,-0.002800079047307372
1783696383316280800,2.86728076171875,-0.029465163937211034,-0.009611951019242405,-0.010001059934683143
1783696383326243600,2.87724365234375,-0.02527121937870979,-0.011541494309715926,-0.01328534230235964
1783696383336206600,2.88720654296875,-0.04876549221277237,-0.014246040560677646,-0.0003713905956596136
1783696383346169600,2.897169677734375,-0.018691840988397598,-0.016617263204045593,-0.01585932097621262
1783696383356132900,2.9071328125,-0.02511749012172222,0.0026643238384276625,-0.012493643935397267
1783696383366096600,2.9170966796875,-0.03664075465500354,-0.013182356851920485,-0.0009527341475710272
1783696383376059600,2.9270595703125,-0.014192776003479957,-0.0074369450677186245,-0.010181859861686826
1783696383386023000,2.93702294921875,-0.024512509965896604,-0.0019398454887792466,-0.0019031667402014136
1783696383395986000,2.94698583984375,-0.03693243107795715,-0.015566146715916692,-0.019699739389307795
1783696383405948700,2.95694873046875,-0.03049626055061817,0.009148498225957155,-0.008706636209972203
1783696383415911700,2.96691162109375,-0.024513094487786293,0.0037475890304893254,0.009733458507061005
1783696383425875700,2.976875732421875,-0.03633446518480778,-0.01217529870122671,-0.006950805518589913
1783696383435838700,2.986838623046875,-0.01642564962208271,-0.0014984218642115593,-0.008660312850214541
1783696383445801700,2.9968017578125,-0.044105099186301226,0.005777122096717357,-0.00599803483840078
1783696383455764700,3.0067646484375,-0.03617605975270271,-0.008927329755946994,-0.014579473766125738
1783696383465727700,3.016727783203125,-0.020308044013381002,0.002063179607503116,-0.01479139948375523
1783696383475690800,3.026690673828125,-0.039461072772741315,0.0008487988490611314,-0.0020789616985246537
1783696383485654800,3.03665478515625,-0.02958908257782459,-0.006647584788314998,-0.018687968530878424
1783696383495617800,3.04661767578125,-0.02210018812716007,0.001184862403012812,-0.013828107409551739
1783696383505580500,3.05658056640625,-0.03631166883111,0.008217281790450216,0.010741028114408253
1783696383515543800,3.066543701171875,-0.03587386193573475,0.006188260180875658,-0.004729841533489525
1783696383525506800,3.0765068359375,-0.019262334352731704,0.006339139893651008,0.0004630874671041965
1783696383535469800,3.0864697265625,-0.042916766184568404,-0.0005233662869781256,-0.0028797932200133798
1783696383545433900,3.096433837890625,-0.03244856366217136,-0.008137640682980419,0.003278656344488263
1783696383555396900,3.10639697265625,-0.023769582644104958,-0.012755948133394122,0.009978007852658628
1783696383565359900,3.11635986328125,-0.0447293685644865,-0.0009242752380669117,0.005283529893495142
1783696383575323000,3.126322998046875,-0.014206220006942749,-0.000998509518057108,0.005768135072663426
1783696383585286000,3.136285888671875,-0.027664251995086667,0.005945756661891937,0.0029339345600455998
1783696383595250000,3.14625,-0.03440437390506267,-0.0057733227044343945,0.0017850202532485127
1783696383605213000,3.156212890625,-0.021837737798690793,-0.0001169409105554223,-0.015302746539376676
1783696383615176000,3.166176025390625,-0.014347089782357216,0.006414397086948156,-0.005306070518866181
1783696383625138700,3.176138671875,-0.042484804508090016,0.000052570437453687186,-0.0009080912882462143
1783696383635101700,3.186101806640625,-0.021988544446229934,0.005212985407933592,-0.010300663935765623
1783696383645064700,3.196064697265625,-0.028413024535775183,-0.005310271769948303,-0.012038630176894365
1783696383655028700,3.20602880859375,-0.04009177189171314,-0.0032948037616908547,-0.002497004447504878
1783696383664991700,3.21599169921875,-0.025576924327015874,-0.005900200487114489,0.0005809416931122541
1783696383674955000,3.225955078125,-0.03620002515017986,-0.017650624839775263,0.006141900288499891
1783696383684918000,3.23591796875,-0.044138416934013366,0.0033250527694821358,-0.010732917873188853
1783696383694881000,3.245881103515625,-0.025138532909750936,-0.005329889785870909,-0.012730850224755704
1783696383704843800,3.25584375,-0.025290508601069447,-0.0013648220798000692,-0.004698606145009398
1783696383714808000,3.26580810546875,-0.03965864117145538,-0.007964731801487506,-0.008764796137996017
1783696383724770800,3.275770751953125,-0.021700959676504133,-0.003829568225517869,0.0023391835372895
1783696383734733800,3.28573388671875,-0.03173544695675373,-0.002623188110440969,0.0008779153456911444
1783696383744696800,3.29569677734375,-0.046854105633497234,-0.020407924191281197,-0.006474018319696188
1783696383754659800,3.305659912109375,-0.021110592567920684,0.008072941416315734,-0.00440448203664273
1783696383764622800,3.315622802734375,-0.04325520435869693,-0.0015134733028709887,0.0024406711503863333
1783696383774587000,3.3255869140625,-0.026050971579551694,-0.007358144210465252,-0.00625759909003973
1783696383784550000,3.3355498046875,-0.02245265482664108,0.010692841591127216,-0.003258417274057865
1783696383794513000,3.345512939453125,-0.03247662071287632,-0.009288527751155197,-0.002955817598290741
1783696383804476000,3.355475830078125,-0.02769289356768131,-0.003342844154499471,-0.008808708344958721
1783696383814439000,3.36543896484375,-0.026793314379453658,-0.004689399925246834,-0.009000321926921606
1783696383824402700,3.375402587890625,-0.032932547786831856,-0.009856208103895188,-0.004948598850704729
1783696383834366000,3.385365966796875,-0.04265840750932693,-0.013393076993152498,-0.008557802323810756
1783696383844329000,3.395328857421875,-0.024546412235498426,-0.008554441322945057,-0.003059387570619583
1783696383854292000,3.4052919921875,-0.021713234636187552,-0.008875891829654575,0.006478694494813681
1783696383864255000,3.4152548828125,-0.029649872854351996,0.007762523760274052,-0.01389083391483873
1783696383874218000,3.425218017578125,-0.026207038924098012,0.003908807474188506,-0.014584588332660495
1783696383884182000,3.43518212890625,-0.03399462406039238,-0.005551094788499176,0.0016114903172478078
1783696383894144800,3.445144775390625,-0.019931611916422842,-0.0037611060991883274,-0.012508037786930798
1783696383904107800,3.455107666015625,-0.02366962940096855,0.00030636253543198105,-0.011591836257465182
1783696383914070800,3.46507080078125,-0.037889877933263774,-0.012970504199527203,0.0004668868593871593
1783696383924033800,3.47503369140625,-0.02816518725454807,-0.00131561264321208,-0.009340878992900252
1783696383933996800,3.484996826171875,-0.01933130793571472,0.0029726956678554415,-0.0026935134002938864
1783696383943960800,3.4949609375,-0.042832595032453534,-0.017733334687165914,-0.0057093540901318185
1783696383953923800,3.504923828125,-0.028767244800925254,-0.0059200376987457275,-0.013025960713811218
1783696383963887000,3.51488720703125,-0.03205810303986072,0.0056325259942561386,-0.011005341606400907
1783696383973849900,3.524849853515625,-0.03460778752267361,-0.011399893881939351,0.0012539455838501453
1783696383983812900,3.534812744140625,-0.01575111136138439,-0.00829177179876715,-0.022706848783418533
1783696383993775900,3.54477587890625,-0.02532265730500221,0.011282660710439086,-0.005322217936068773
1783696384003740000,3.554739990234375,-0.0426858800381422,-0.0167098003257066,-0.0025969211580231786
1783696384013703000,3.564702880859375,-0.035649990051984784,-0.002867262532003224,-0.012610877106897532
1783696384023666000,3.574666015625,-0.020079495954513547,-0.004556823054142296,-0.008448862056620418
1783696384033629000,3.58462890625,-0.04581599475741386,-0.007748458702303469,-0.0015443433651700614
1783696384043592000,3.594592041015625,-0.025160744741559028,0.014040873377397655,-0.014039594735763966
1783696384053554700,3.6045546875,-0.03129413293004036,0.0017179463664069772,-0.01781586187146604
1783696384063518700,3.614518798828125,-0.021122283005714414,-0.006206124631129205,-0.009786723064258694
1783696384073481700,3.624481689453125,-0.022318799313902852,0.005298727462626994,0.0032283509293571113
1783696384083444700,3.63444482421875,-0.027254502150416374,-0.01623345151823014,0.010034743008576333
1783696384093407700,3.64440771484375,-0.031896774998307224,-0.008167305168882012,-0.010354257286526261
1783696384103371000,3.65437109375,-0.026360183659195898,-0.002861892237141728,-0.015821363586001096
1783696384113334800,3.664334716796875,-0.04536766646802425,0.002758906786702573,0.007206095453910529
1783696384123298000,3.674298095703125,-0.03744330320954323,-0.0003813274677842855,-0.0008319938447326421
1783696384133261000,3.684260986328125,-0.014393267011642456,0.017100991600379346,-0.004417743377014995
1783696384143223800,3.694223876953125,-0.028459201765060425,0.002022811064496636,0.006445851671136915
1783696384153186800,3.704186767578125,-0.042376083436608314,-0.0035923984687775373,-0.0038890433277934786
1783696384163149800,3.71414990234375,-0.024115619602799416,0.007010609414428472,-0.010435834622755645
1783696384173113900,3.72411376953125,-0.024868483796715735,-0.004898439566045999,-0.002161781143769622
1783696384183076900,3.734076904296875,-0.027118893072009084,-0.0014101225262507795,-0.011018639479391277
1783696384193040000,3.744039794921875,-0.02725976284742355,0.0023782734386622903,-0.00829670370221138
1783696384203003000,3.7540029296875,-0.03968260656893253,-0.006892828253656625,0.010628434585407376
1783696384212966000,3.7639658203125,-0.012598784810304641,-0.01606752036679536,-0.004094137445837259
1783696384222928600,3.7739287109375,-0.011841244441270828,0.0032822730736806987,0.016720431317575276
1783696384232893000,3.783892822265625,-0.051042789494991296,-0.009220504016242921,-0.0016848112817853687
1783696384242855700,3.793855712890625,-0.03143441818356514,0.009063596421480179,0.008343428920768201
1783696384252819000,3.80381884765625,-0.02050736597776413,0.00648706046435982,-0.005468567604199052
1783696384262782000,3.813781982421875,-0.031135142976045607,-0.0017733298154547809,-0.00952361514866352
1783696384272745000,3.823744873046875,-0.03142565035521984,-0.00790704679749906,-0.01570971990507096
1783696384282708000,3.8337080078125,-0.029023849910497664,0.0029116131303831934,-0.009210274883173405
1783696384292672000,3.843672119140625,-0.029331892946362494,-0.01800352993067354,-0.014221125315129757
1783696384302635000,3.853635009765625,-0.032922026392817494,0.003828143453411758,-0.0033235549321398135
1783696384312598000,3.863597900390625,-0.024245383462309835,-0.0008238836035132408,-0.005826842989958822
1783696384322560800,3.873560791015625,-0.031436756271123883,-0.006136347330547869,0.0015139482269063591
1783696384332523800,3.883523681640625,-0.009281623086333275,0.0063060413416475055,-0.010402261146716774
1783696384342486800,3.89348681640625,-0.02484042674601078,0.00345726431440562,-0.00016910948920994997
1783696384352450800,3.903450927734375,-0.04101005578041077,-0.006840330881439149,-0.003691876787878573
1783696384362413800,3.913413818359375,-0.010779168167710304,0.005321596881560981,0.003965396499633789
1783696384372376800,3.923376953125,-0.032924949002265926,-0.007644267675466835,0.0052292424229905005
1783696384382339800,3.93333984375,-0.04055880488157272,-0.011732194576226174,-0.011991831893101334
1783696384392303000,3.94330322265625,-0.021849428236484527,0.0029149010660126803,-0.0034278190242126583
1783696384402265900,3.953265869140625,-0.03696399526000023,-0.009768018363788723,-0.0005945318270474672
1783696384412230000,3.96322998046875,-0.03247720523476601,-0.0032993338063359258,-0.01683751835860312
1783696384422193000,3.97319287109375,-0.00912497121989727,0.01168214488942176,-0.002699943141080439
1783696384432156000,3.983156005859375,-0.033518823242187495,0.002130034298636019,0.010075842203944921
1783696384442119000,3.993118896484375,-0.04474105900228023,0.00559182865768671,-0.0018783610925078391
1783696384452082000,4.00308203125,-0.02154430781006813,-0.0017033698517829178,0.00246832634229213
1783696384462046000,4.0130458984375,-0.03127425918579101,-0.0066990592472255224,-0.0014367548048496246
1783696384472009000,4.023009033203125,-0.01841068595945835,-0.009866327639110386,-0.01231733752042055
1783696384481972000,4.032971923828125,-0.036361937713623046,0.000687726535834372,-0.002956584783270955
1783696384491934700,4.042934814453125,-0.035163667839765544,-0.009056764821894466,-0.009547726676613091
1783696384501897700,4.052897705078125,-0.03665186057090759,-0.005217515452578664,-0.015807919582538306
1783696384511860700,4.06286083984375,-0.02557224815189838,0.0034035978984087705,-0.011127835474908351
1783696384521824800,4.07282470703125,-0.04203355360925198,-0.0048985491639003155,-0.003955971084162593
1783696384531787800,4.082787841796875,-0.032306524842977524,0.008350333585590123,-0.005526362206041813
1783696384541750800,4.092750732421875,-0.0270703777551651,-0.0038197044186294078,0.005000365570560097
1783696384551714000,4.102714111328125,-0.030219781696796417,-0.00700911157708615,0.015241590936668216
1783696384561677000,4.112677001953125,-0.0270791455835104,-0.0012938757354393601,-0.0036046734284609556
1783696384571639800,4.122639892578125,-0.01869827072918415,-0.004709821658767759,-0.007559073610045016
1783696384581603800,4.132603759765625,-0.03531915066242218,-0.0004072656266391277,0.00622439094018191
1783696384591567000,4.142567138671875,-0.004346504771709442,-0.00023844839837402105,-0.0122893170023337
1783696384601530000,4.152530029296875,-0.024697218883037567,-0.009785554020479321,-0.0090286347059533
1783696384611493000,4.1624931640625,-0.04295709819495678,-0.007833068245835602,-0.014155439667776226
1783696384621456100,4.1724560546875,-0.028888240832090375,-0.00226330528948456,-0.00696651454437524
1783696384631419100,4.182419189453125,-0.03248246593177318,-0.015173238408192992,0.0038959479926154016
1783696384641383200,4.192383056640625,-0.043261634099483484,-0.015626462068408727,-0.017946246785484253
1783696384651346200,4.20234619140625,-0.02589782684445381,-0.003252206728979945,-0.005320354772545397
1783696384661309200,4.21230908203125,-0.03142857296466827,-0.0016821809332817792,-0.00824661748278886
1783696384671272000,4.22227197265625,-0.03158171769976616,-0.011574373666010796,-0.00990165468081832
1783696384681235200,4.232235107421875,-0.02678922272622585,0.008884002070873975,-0.0006854615135118365
1783696384691198200,4.2421982421875,-0.03277531139850616,0.002614018423296511,-0.004431954565457999
1783696384701162000,4.252161865234375,-0.025142624562978742,-0.006294825827889144,-0.016931735980696975
1783696384711125200,4.262125244140625,-0.019601357048749924,0.020017280905880033,-0.0005834624437615275
1783696384721088300,4.272088134765625,-0.03830781108438969,-0.0034391806684434412,-0.0049166328098624945
1783696384731051300,4.28205126953125,-0.027687048348784445,0.0008338935408741235,0.005753266297094523
1783696384741014300,4.29201416015625,-0.015264204627275466,0.010380451173707842,-0.0031108985621482134
1783696384750977000,4.30197705078125,-0.022452070304751395,0.0010694923950359224,-0.007765921293757855
1783696384760941000,4.311941162109375,-0.016021160474419593,-0.010554309903271495,-0.007269771807268261
1783696384770904000,4.321904052734375,-0.028888240832090375,0.003080065032467246,-0.0064461073994636535
1783696384780867000,4.3318671875,-0.025602643290162087,-0.003933868850208818,-0.007481405263952911
1783696384790830000,4.341830078125,-0.01811959405839443,-0.006852057851850986,-0.008007182703725994
1783696384800793000,4.35179296875,-0.027841362127661702,0.001221175825409591,-0.009037585197389125
1783696384810756000,4.361756103515625,-0.03906652049720287,-0.006594868220388889,-0.00742010353077203
1783696384820720000,4.37172021484375,-0.03637538171708583,0.002016637052036822,-0.005162278134003281
1783696384830683100,4.38168310546875,-0.03307692469358444,0.0010467691065743565,-0.0036159254748374223
1783696384840646100,4.391646240234375,-0.03248012784421444,-0.011398359511978923,-0.008021686153113841
1783696384850609200,4.401609130859375,-0.015430208843946455,-0.004565773545578122,0.004213781770132482
1783696384860572200,4.411572265625,-0.02590308754146099,-0.01003843280300498,-0.006091083416715264
1783696384870535200,4.42153515625,-0.049997079834342,-0.009766082135029136,-0.011826850589737295
1783696384880499200,4.431499267578125,-0.023660277050733564,-0.010419358411990105,-0.007431209446676075
1783696384890462200,4.441462158203125,-0.036983284482359886,-0.0018799685277044772,0.005219670877046883
1783696384900425200,4.45142529296875,-0.04117372190952301,0.0006021671442314982,-0.018466252071596682
1783696384910388200,4.46138818359375,-0.025752280893921852,-0.0026259645894169807,-0.018900040378980337
1783696384920351000,4.47135107421875,-0.04175882832109928,-0.000244658943451941,0.005368249034881592
1783696384930315000,4.48131494140625,-0.03667114979326725,-0.009836626620590686,-0.016155783172138033
1783696384940278000,4.491278076171875,-0.016166706424951553,0.01714961651507765,-0.013739735006354748
1783696384950241000,4.501240966796875,-0.036220483416318894,-0.0021375234853476285,-0.00023537965845316647
1783696384960204000,4.5112041015625,-0.02739186479449272,-0.008063114142045379,-0.0007077098779380321
1783696384970167000,4.5211669921875,-0.025891981625556944,0.0004332403181120753,0.003718983990512788
1783696384980130300,4.53113037109375,-0.031582302221655846,-0.0005622735252603889,0.006463898784480989
1783696384990094000,4.541093994140625,-0.027554946401715276,-0.006624496173672377,-0.010764883914031088
1783696385000057300,4.551057373046875,-0.0223123695731163,0.01229026685040444,-0.013491240138001738
1783696385010020000,4.56102001953125,-0.04536240577101707,-0.012482501486875117,-0.0018881518341600893
1783696385019983000,4.570983154296875,-0.03518997132480144,-0.015814276258088646,0.005284845067746937
1783696385029946000,4.580946044921875,-0.0024117373168468475,0.004309679892659187,0.005314399955794215
1783696385039909000,4.5909091796875,-0.03339315103590488,-0.008025266349688172,0.004347308489307761
1783696385049873200,4.600873046875,-0.01574117448925972,-0.015635485625080763,-0.005105908304266631
1783696385059836200,4.610836181640625,-0.01393909350335598,0.0017311346415430306,0.0009799509480595589
1783696385069799200,4.620799072265625,-0.03294599179029464,-0.013207893151976168,0.0029745588313788173
1783696385079762200,4.63076220703125,-0.012594108635187149,-0.005844634374976158,-0.02203260278366506
1783696385089725000,4.640724853515625,-0.02920271360874176,0.004118906560912728,0.007889328477717936
1783696385099688000,4.65068798828125,-0.02621288414299488,-0.0052484585801139474,-0.006473799123987555
1783696385109652000,4.66065185546875,-0.015289923590421675,-0.011720869464613497,-0.020171631217375398
1783696385119615000,4.670614990234375,-0.038921559068560596,0.00001844897214323282,0.018216478561609982
1783696385129578200,4.680578125,-0.044759763702750206,-0.013461319923773408,-0.007437493056990206
1783696385139541200,4.690541259765625,-0.0208136554479599,0.0005171557419002056,-0.00892648950573057
1783696385149504300,4.700504150390625,-0.010935235512256622,-0.00962886562142521,-0.0004989259654656052
1783696385159467300,4.71046728515625,-0.02485737788081169,0.0011787979884073138,0.0035023455651476978
1783696385169431300,4.720431396484375,-0.025900164932012557,0.011088416779972613,-0.008288228134810924
1783696385179394000,4.73039404296875,-0.01721241608560085,-0.001613901470042765,0.004956891755014657
1783696385189357000,4.740357177734375,-0.026049218013882637,-0.011589717365615069,-0.0011567688196897506
1783696385199320000,4.750320068359375,-0.01886427494585514,0.006971519513055682,-0.007075856670364737
1783696385209283000,4.760282958984375,-0.03682371000647545,0.004349536979012191,-0.0012495251370593906
1783696385219246000,4.77024609375,-0.0315928236156702,-0.003879581379704177,-0.010793342823535203
1783696385229210000,4.780210205078125,-0.021260814693570135,-0.008463402038626373,0.004101918893493712
1783696385239173000,4.790173095703125,-0.03861000890135765,-0.007068404016271233,0.0005413038024678826
1783696385249136000,4.80013623046875,-0.03786123636066913,-0.008060520326159894,-0.008329984917305409
1783696385259099000,4.810098876953125,-0.021688684716820717,-0.007867993428744375,0.010174699468538164
1783696385269062100,4.820062255859375,-0.03844517372846603,-0.017497333974204957,0.0026885449642315507
1783696385279025200,4.830025146484375,-0.03185819655358791,-0.005680237593501806,-0.008406630350090562
1783696385288989200,4.8399892578125,-0.01554068348109722,-0.003245813520811498,-0.006978241514787077
1783696385298952200,4.8499521484375,-0.031098318096995353,-0.01925926561281085,0.003966236749850213
1783696385308915200,4.859915283203125,-0.030053777480125426,-0.0004035027669742703,-0.007774031534977257
1783696385318878200,4.869878173828125,-0.015538345393538475,0.005026303729414939,0.00546356263551861
1783696385328841200,4.87984130859375,-0.042480128332972523,-0.009440211181528865,0.0026130320426076647
1783696385338804000,4.889803955078125,-0.028567922836542126,0.005558839703537524,-0.0005940934356302022
1783696385348768300,4.899768310546875,-0.022431027516722678,0.001866707187332213,0.0007831497343257069
1783696385358731000,4.90973095703125,-0.04128828819990158,-0.01125595536660403,0.009624152913689612
1783696385368694000,4.919694091796875,-0.01480301685631275,0.0030472952740266917,-0.007327602941729128
1783696385378657000,4.929656982421875,-0.02812251715660095,-0.003699037181027233,-0.004326557962223887
1783696385388620000,4.9396201171875,-0.045189387291669846,-0.011692520152963697,-0.011839746603928506
1783696385398583300,4.949583251953125,-0.01989829416871071,0.007541391822881996,-0.017934885141253472
1783696385408547000,4.959547119140625,-0.021537878069281577,-0.01715758062582463,0.01884166125524789
1783696385418510000,4.969510009765625,-0.038454526078701014,-0.013044775012135504,-0.006475004700385033
1783696385428473300,4.979473388671875,-0.029326632249355316,0.006559248917736113,-0.0049828299138695
1783696385438436000,4.98943603515625,-0.024981296521425247,-0.0055838645469397305,0.006254676480591297
1783696385448399000,4.999399169921875,-0.05790566100180149,-0.008857552455365658,-0.006811835439316928
1783696385458362000,5.009362060546875,-0.02513794838786125,-0.0071906056238338345,-0.005268441922217607
1783696385468326100,5.019326171875,-0.02828033806681633,-0.003273322582244873,0.007110087733529507
1783696385478289200,5.0292890625,-0.019760347002744674,-0.003656586278788745,-0.00407598073463887
1783696385488252200,5.039252197265625,-0.02394903086423874,0.011812639401294291,-0.016756123685464263
1783696385498215200,5.049215087890625,-0.03726502403318882,-0.004203369973972439,0.00025952771902084347
1783696385508178200,5.05917822265625,-0.03621346915364265,0.00460329254437238,-0.007847206369042396
1783696385518141000,5.069140869140625,-0.025132687690854073,-0.0020589052911847826,-0.01274911653380841
1783696385528105000,5.07910498046875,-0.04383271198570728,0.0012478446366265415,0.005486687782779336
1783696385538068000,5.08906787109375,-0.03126549135744572,-0.007125175704807043,-0.008961524286493659
1783696385548031000,5.099031005859375,-0.021086042648553845,0.008596965290419758,0.0016720248654484749
1783696385557994200,5.108994140625,-0.037844285225868225,-0.013928279848396776,0.002740713542886078
1783696385567957200,5.118957275390625,-0.017799276062846182,-0.02002933666985482,-0.008938326073996722
1783696385577920300,5.128920166015625,-0.008814005574584007,0.008173807974904775,0.006670235011540353
1783696385587884000,5.138884033203125,-0.053256373891234395,-0.01753076131977141,0.007234883156977593
1783696385597847000,5.148846923828125,-0.042479543811082834,-0.00826214384548366,0.0024286884516477583
1783696385607809800,5.158809814453125,-0.025115152034163472,0.008473046649806202,0.006008994623832404
1783696385617772800,5.168772705078125,-0.04218085312545299,-0.01564483797531575,-0.004426913064159452
1783696385627735800,5.17873583984375,-0.024072949504852295,-0.013728775220923126,-0.01551138432137668
1783696385637699800,5.188699951171875,-0.016288871499896048,0.006954970237053931,-0.004282061233371496
1783696385647662800,5.198662841796875,-0.04682429501712322,-0.004507321356609463,-0.0024341683443635702
1783696385657625900,5.2086259765625,-0.02303425410687923,-0.0004986702371388673,-0.0032200945576652882
1783696385667588900,5.2185888671875,-0.022883447459340095,-0.0024196648949757218,0.0003064721332862973
1783696385677551900,5.2285517578125,-0.029775545060634612,-0.008360051262006164,0.010825418462231754
1783696385687515000,5.238514892578125,-0.0205085350215435,0.001758935963921249,-0.013083718783035873
1783696385697478700,5.248478759765625,-0.029490882900357243,-0.004577354385517538,-0.00023362609278410672
1783696385707442000,5.25844189453125,-0.04341828596591949,-0.01211765022985637,-0.005270487748831511
1783696385717405000,5.268405029296875,-0.02620586988031864,-0.008931384876556694,-0.0027084187084808944
1783696385727368000,5.278367919921875,-0.038919805502891536,-0.004918934364803135,-0.011051701498776673
1783696385737331000,5.2883310546875,-0.040567572709918016,-0.012757409438118338,-0.027832338570989667
1783696385747294000,5.2982939453125,-0.016465981632471084,-0.01299019528068602,-0.0070568231763318175
1783696385757257000,5.308257080078125,-0.0345645329028368,-0.014801555551588534,0.002771948931366205
1783696385767843800,5.31884375,-0.03695990360677242,-0.005703728066943585,-0.005386369213461876
1783696385777806800,5.328806884765625,-0.02543079385459423,0.004865523677133023,-0.009860592018067837
1783696385787769900,5.338769775390625,-0.0406862306535244,-0.0028234964555129407,-0.0011801131626591086
1783696385797732900,5.34873291015625,-0.02168283949792385,-0.00015844196472316978,-0.009195954096876085
1783696385807696000,5.35869580078125,-0.035444822868704796,-0.0026122648576274513,0.004372515995800495
1783696385817660000,5.368659912109375,-0.032903321692347526,-0.0005988426759839057,0.008236132621392608
1783696385827623000,5.378622802734375,-0.02468085227012634,-0.0017418386986479163,-0.002840995579585433
1783696385837586000,5.3885859375,-0.011810264781117439,0.001840440234914422,-0.009623495326563715
1783696385847549000,5.398548828125,-0.03036591216921806,-0.010419687205553054,-0.005118365927040577
1783696385857511700,5.40851171875,-0.038299627777934074,-0.013265724286437033,-0.010575644952245056
1783696385867474700,5.418474609375,-0.028572014489769933,-0.004644647468067705,0.0024420959224924444
1783696385877438700,5.428438720703125,-0.03231704623699188,-0.005428673985227942,0.004950973470881581
1783696385887401700,5.438401611328125,-0.023337036445736883,-0.016973602361045777,-0.008537709383852779
1783696385897364700,5.44836474609375,-0.01988894181847572,0.00358823375031352,-0.005309796845912933
1783696385907328000,5.458327880859375,-0.03650105392336845,0.004785480710864067,0.006571487344801425
1783696385917291000,5.468291015625,-0.016595745491981506,-0.00579334257915616,-0.002522394617088139
1783696385927254000,5.47825390625,-0.021827800926566124,-0.0007917348995804786,0.006722988112084567
1783696385937218000,5.488218017578125,-0.03126023066043854,-0.013661189877428113,-0.001057911555096507
1783696385947181000,5.49818115234375,-0.018240590089559555,-0.011009360194392501,-0.009555252395942807
1783696385957143800,5.508143798828125,-0.02915770542323589,-0.0028131942572072145,0.00601659340839833
1783696385967106800,5.51810693359375,-0.025869185271859167,-0.010304134534485638,-0.011372092559561132
1783696385977069800,5.52806982421875,-0.0324514862716198,-0.009177724320441484,-0.009535195988602935
1783696385987032800,5.53803271484375,-0.04097849159836769,-0.004835128538869321,0.0023664734030142427
1783696385996996900,5.547996826171875,-0.03679740652143955,-0.008046272605098784,0.0032514760766178367
1783696386006959900,5.5579599609375,-0.013296703946590422,-0.01215253888014704,-0.011389007161743939
1783696386016923000,5.5679228515625,-0.02496317634284496,-0.007242591539397835,0.004643514956906437
1783696386026886000,5.577885986328125,-0.042918519750237465,-0.014919994299486278,-0.009232888573780655
1783696386036849000,5.587848876953125,-0.019568039301037787,0.0029689693408086896,-0.01534402839783579
1783696386046812000,5.59781201171875,-0.033190321940183634,-0.004821867198497057,-0.0013142609363421796
1783696386056776000,5.60777587890625,-0.0477139373332262,-0.006065729779750108,-0.01599602603316307
1783696386066739000,5.617739013671875,-0.007900397861003876,-0.00048160950448364017,-0.023490217713452874
1783696386076702000,5.627701904296875,-0.023162264400720594,-0.009920176718197763,0.013000059087574482
1783696386087287800,5.638287841796875,-0.034845103409886356,0.003498728835955262,0.008711604646034538
1783696386097250800,5.648250732421875,-0.03140226947963238,-0.0021560820553451774,-0.008727021410875021
1783696386107214000,5.658214111328125,-0.03095978640913963,-0.0120429044932127,0.0023306714372709394
1783696386117176800,5.6681767578125,-0.012861235138773918,0.005131627267412841,-0.011158595939353108
1783696386127140900,5.678140869140625,-0.018248773396015164,0.008758074136264622,-0.007154438331909477
1783696386137104000,5.688103759765625,-0.039194530791044235,-0.00859758634492755,0.009209434632956981
1783696386147067000,5.69806689453125,-0.03560673543214798,-0.007301482119783759,-0.009330722925066948
1783696386157030000,5.70802978515625,-0.02213642848432064,-0.0019193506900221109,0.001672317126393318
1783696386166993000,5.717992919921875,-0.036355507972836494,0.0032589652633294463,-0.009119272131472825
1783696386176956000,5.727955810546875,-0.03171615773439407,-0.009200118815340101,-0.0035607246888801456
1783696386186920000,5.737919921875,-0.019292729490995406,-0.003151705496571958,-0.008929850506596266
1783696386196883000,5.747883056640625,-0.038004444223642346,-0.007332388714700937,0.004582140158489346
1783696386206845700,5.757845703125,-0.024238369199633597,-0.004420117997191846,0.004869871058687567
1783696386216808700,5.76780859375,-0.01899754593670368,-0.0028058146683499216,0.004801408932358026
1783696386226771700,5.777771728515625,-0.025590952852368353,-0.020237901386618615,-0.0015996537489816546
1783696386236735000,5.78773486328125,-0.02424479894042015,-0.004420702519081532,0.0035607612214982507
1783696386246698800,5.79769873046875,-0.023787118300795555,0.001199585048109293,-0.0009400573290884494
1783696386256662000,5.807662109375,-0.03696224169433117,-0.0007185235328972339,0.0011715279974043368
1783696386266625000,5.817625,-0.023047698110342026,-0.0029731705918908118,0.003932992067374289
1783696386276588000,5.827588134765625,-0.022741408640146253,-0.009430164711549878,0.009889635449461639
1783696386286550800,5.83755078125,-0.04459259044229984,-0.005828523490391671,-0.0007875336484983563
1783696386296513800,5.847513671875,-0.028732173487544057,-0.005805179147422314,-0.019929383426718413
1783696386306477800,5.857477783203125,-0.0333750308573246,-0.011636734845116735,0.00437167574558407
1783696386316440800,5.86744091796875,-0.03083820585608482,-0.02008672941289842,0.011044504573009907
1783696386326403800,5.87740380859375,-0.01542436362504959,0.00916797011140734,-0.008786642643623053
1783696386336366800,5.887366943359375,-0.036523265755176545,-0.005335369678586721,-0.0019100714050233362
1783696386346329900,5.897329833984375,-0.03144435505568981,-0.01046374554298818,-0.004365538265742362
1783696386356294000,5.9072939453125,-0.027402970710396764,0.0012705679250881075,-0.007478847980685531
1783696386366257000,5.9172568359375,-0.03683598496615886,0.0025998437674716116,0.005381291179545223
1783696386376220000,5.927219970703125,-0.031001287463307377,-0.005703618469089269,0.0005870061077177524
1783696386386183000,5.937182861328125,-0.021266659912467,-0.0033120836900547143,-0.0038486382521688936
1783696386396146000,5.94714599609375,-0.044160628765821455,-0.003116488052718341,-0.007669803975522518
1783696386406109000,5.95710888671875,-0.03637830432653427,-0.000031929508224129677,-0.013765892360918222
1783696386416073000,5.967072998046875,-0.015120996764302253,-0.002578399120643735,-0.007274119188822805
1783696386426036000,5.977035888671875,-0.040561142969131464,-0.012248765796236693,-0.0017633564107120037
1783696386435999000,5.9869990234375,-0.026799159598350525,-0.012345248440653085,-0.008721797246485948
1783696386445962000,5.9969619140625,-0.007489478972554206,-0.0012140519648790359,-0.004154671994037926
1783696386455925000,6.006925048828125,-0.03517944993078709,-0.00081138944812119,0.0015982655094936488
1783696386465889000,6.016888916015625,-0.03008884879350662,0.0014987141251564026,0.001020977078191936
1783696386475851800,6.026851806640625,-0.03517360471189022,-0.003713138771615922,0.010333945150859654
1783696386485814800,6.036814697265625,-0.04565408219397068,-0.019267814245447514,0.004054864881373942
1783696386495777800,6.04677783203125,-0.024403204372525213,-0.025306948279216885,-0.007012837904132902
1783696386505740800,6.05674072265625,-0.035922377252578734,-0.0011647694630548358,-0.0016245324619114398
1783696386515703800,6.066703857421875,-0.03787701845169067,-0.009463592057116329,-0.017474391490034758
1783696386525667800,6.076667724609375,-0.025604981377720833,-0.008919584840908646,-0.016405922008305786
1783696386535630800,6.086630859375,-0.035172435668110846,-0.007073299387097358,-0.008316760109551251
1783696386545593900,6.09659375,-0.03906009075641632,-0.006021123453043401,-0.00954973597060889
1783696386555556900,6.106556884765625,-0.015113982501626013,0.0037763402009382842,-0.017194478570111096
1783696386565520000,6.116519775390625,-0.0230400993257761,-0.005038542156480252,0.012291764687746762
1783696386575484000,6.12648388671875,-0.037116555473208426,-0.005797763025946915,-0.01572444255016744
1783696386585447200,6.136447265625,-0.01975567082762718,0.000519676492549479,-0.009573737900704146
1783696386595410200,6.14641015625,-0.028434651845693586,0.006860095027834177,0.012038812839984894
1783696386605373200,6.156373291015625,-0.043102644145488735,-0.013802351913787423,0.0003388035003095865
1783696386615336000,6.1663359375,-0.024392682978510855,0.002052950474433601,-0.0012968714101240038
1783696386625299000,6.176298828125,-0.020649989318847654,-0.0021294497767463325,0.005518142366968095
1783696386635263000,6.186262939453125,-0.02454115153849125,-0.0155398797634989,-0.012135003223456441
1783696386645226000,6.19622607421875,-0.023183891710638997,-0.0020688056306913494,-0.009398052540235222
1783696386655189000,6.20618896484375,-0.044429508835077285,-0.0017768369467929005,-0.016808365329355
1783696386665152000,6.216152099609375,-0.026630817294120788,0.006310352190583944,-0.012998342054523528
1783696386675115000,6.226114990234375,-0.03740004858970642,-0.004501403072476387,0.005023746446147561
1783696386685079000,6.2360791015625,-0.02752513578534126,-0.005527165923640132,0.0036890272436663507
1783696386695042000,6.2460419921875,-0.023788871866464615,-0.008527480250783264,-0.007989500916562973
1783696386705005000,6.256005126953125,-0.024076456636190412,-0.002621836403571069,-0.00028400457315146924
1783696386714968000,6.265968017578125,-0.031410452786087985,-0.019685820461809635,0.0044093774074688554
1783696386724931000,6.27593115234375,-0.030360651472210884,-0.013941175862587987,-0.0028711715221405028
1783696386734894000,6.28589404296875,-0.025710195317864417,0.0010868453886359929,-0.00863181740809232
1783696386744858000,6.295858154296875,-0.04441723387539386,-0.01103317946139723,0.0038633974298834797
1783696386754821000,6.305821044921875,-0.026610359027981756,-0.010349325383082031,-0.007880122257955372
1783696386764784000,6.3157841796875,-0.02735094826221466,-0.0069136883785948155,0.007327639474347234
1783696386774747100,6.3257470703125,-0.041571196794509886,0.006596877514384687,-0.002330634904652834
1783696386784710000,6.3357099609375,-0.03378302713632583,0.0033174174522981044,-0.018807832050882278
1783696386794674200,6.345674072265625,-0.028089199408888814,-0.0007937441935762763,-0.007859773589670658
1783696386804637000,6.355636962890625,-0.03467208493053913,-0.009828406781516969,-0.005426445495523512
1783696386814600000,6.365599853515625,-0.032122984969615936,-0.007553337989002466,-0.0066073258431628345
1783696386824563000,6.37556298828125,-0.012220599147677421,0.0018173881528899072,0.0019211773209273815
1783696386834526000,6.38552587890625,-0.04230886341929435,-0.01390866183247417,-0.010055603133514522
1783696386844490000,6.395489990234375,-0.013433482068777083,0.002268785182200372,0.010556173066794872
1783696386854453000,6.405452880859375,-0.030645898154377935,-0.002806910646893084,0.003880348564684391
1783696386864416000,6.415416015625,-0.0231751238822937,-0.01274250412993133,0.00033262948784977195
1783696386874379300,6.425379150390625,-0.013148819908499717,-0.007831314680166542,-0.007868870211578905
1783696386884342000,6.435342041015625,-0.040078912410140034,0.00013750877454876898,0.011393244945444166
1783696386894305000,6.445304931640625,-0.038437574943900106,-0.013239128540456294,-0.010235708940774201
1783696386904269000,6.45526904296875,-0.031546061864495274,-0.009761807818710803,-0.005686046279780566
1783696386914232000,6.465232177734375,-0.042019525083899494,-0.008194814230315386,-0.00791062699407339
1783696386924195000,6.475195068359375,-0.027357962524890898,-0.01399012957084924,-0.0007067600298672914
1783696386934158000,6.485157958984375,-0.011641337954998016,-0.00262190946880728,-0.005925334928371012
1783696386944121000,6.49512109375,-0.03693009299039841,-0.004770611935295164,0.0014306538576260208
1783696386954085000,6.505085205078125,-0.021223405292630195,0.005114201208576559,-0.008305508063174784
1783696386964048100,6.515048095703125,-0.013582535150647163,0.0017383680999279022,-0.00920760800205171
1783696386974011000,6.525010986328125,-0.033334698846936225,-0.007101648698747158,0.000384213544614613
1783696386983974000,6.534973876953125,-0.028545126482844352,-0.012003303135186433,0.0026037527576088905
1783696386993937000,6.54493701171875,-0.02106149272918701,-0.00841254863422364,0.002838328698463738
1783696387003900200,6.554900146484375,-0.029894203004240987,-0.0020564941383898255,0.004965367322415113
1783696387013864000,6.564864013671875,-0.024956162080168723,-0.011995777415856718,-0.021580109775811433
1783696387023827200,6.5748271484375,-0.020759294912219048,-0.002315546933375299,0.00579915126543492
1783696387033790200,6.584790283203125,-0.02749824777841568,-0.01736114037390798,-0.010885587684251368
1783696387043753200,6.594753173828125,-0.02600187174081802,0.006965126304887235,-0.013792488106898962
1783696387053716000,6.604716064453125,-0.033031916508078574,0.005781469478271901,0.0037616175558418032
1783696387063680000,6.614679931640625,-0.041270752543210984,-0.008793985699862242,0.008229885543696582
1783696387073643000,6.62464306640625,-0.009251227948069572,-0.007260967446304857,-0.0047436143305152655
1783696387083606000,6.63460595703125,-0.02241524542570114,-0.001870287383906543,0.006038768707588314
1783696387093569000,6.644569091796875,-0.030048516783118245,-0.007686682045087218,0.004874474168568849
1783696387103532000,6.654531982421875,-0.033038346248865126,-0.014049896934069692,-0.02069843157045543
1783696387113495000,6.6644951171875,-0.024659224960207938,-0.003752265205606818,-0.0013853534111753106
1783696387123459000,6.674458984375,-0.03588146072030067,-0.005906812890991568,-0.01793758855499327
1783696387133422000,6.684422119140625,-0.030790275061130523,-0.004597995314747095,-0.019474771527014673
1783696387143384800,6.694384765625,-0.03213525992929935,-0.00250741624366492,0.006811250917427241
1783696387153348000,6.70434814453125,-0.0430564669162035,-0.014258096324652433,0.008647782162204385
1783696387163311000,6.71431103515625,-0.032874095597863195,-0.014150726960040627,-0.017697021264769137
1783696387173275000,6.72427490234375,-0.03406593573093414,-0.010251710227504372,0.01086359504815191
1783696387183238100,6.734238037109375,-0.0352659591704607,-0.012688801181316375,-0.01157784426473081
1783696387193201200,6.744201171875,-0.03197276284396648,-0.007738156503997742,-0.020316081189364194
1783696387203164200,6.7541640625,-0.04544131622612476,-0.002280475619994104,0.003428367013484239
1783696387213127200,6.764127197265625,-0.02823942153453827,-0.0012394421344622969,-0.010142368101514875
1783696387223090000,6.77408984375,-0.019407880303263663,-0.003779628136567771,-0.0039551308339461685
1783696387233054000,6.784053955078125,-0.040356560307741166,0.007300240010768175,0.000059182841330766675
1783696387243017000,6.794016845703125,-0.024794249516725538,-0.0065162865588441485,-0.01093691601268947
1783696387252980000,6.80397998046875,-0.024339491486549375,-0.0015283786110579967,-0.013674706946127116
1783696387262943000,6.81394287109375,-0.04140110092461109,-0.013906104549206792,-0.0022730229659006
1783696387272906000,6.823906005859375,-0.03153086429536343,-0.008493541448563336,-0.020085523836500942
1783696387282869000,6.833868896484375,-0.021497546058893202,0.002956255989708006,-0.004352678784169256
1783696387292833000,6.8438330078125,-0.046486441364884376,-0.008151924936659633,0.008536211546510457
1783696387302796000,6.853796142578125,-0.02882569698989391,-0.014188063295744359,-0.014242058505304156
1783696387312759000,6.863759033203125,-0.026127543947100637,0.0009099909843876958,-0.010010412284918129
1783696387322722000,6.87372216796875,-0.030925299617648123,-0.008711385450325905,0.00030117490366101264
1783696387332685000,6.88368505859375,-0.031228081956505775,-0.001693359914422035,-0.017693148807249964
1783696387342649000,6.893649169921875,-0.029129648372530934,0.0011847893377766013,-0.0034665801320224996
1783696387352612000,6.903612060546875,-0.023603578427433967,-0.0100601697107777,-0.006477488918416202
1783696387362575000,6.9135751953125,-0.01402443369925022,-0.0005219049822539091,-0.0008033522721379994
1783696387372538000,6.9235380859375,-0.02793137849867344,-0.0019192410921677946,0.003768266492336988
1783696387382501000,6.933501220703125,-0.0493348165333271,-0.010795059856586157,0.002888487983122468
1783696387392464000,6.9434638671875,-0.022705168282985685,-0.0041347982497885825,-0.000330327932909131
1783696387402428200,6.95342822265625,-0.03482230705618858,-0.010574877767264842,-0.005370623655058443
1783696387412391000,6.963390869140625,-0.03287935629487038,-0.01567651175521314,0.005344466300494968
1783696387422354000,6.97335400390625,-0.0191056824862957,-0.000976772610284388,-0.02014280698169023
1783696387432317000,6.98331689453125,-0.036470074263215066,0.004401559427194297,-0.002640906430222094
1783696387442280000,6.993280029296875,-0.028242928665876386,-0.015219598300568758,-0.015547478548064826
1783696387452244000,7.003243896484375,-0.019108020573854446,0.010007635805942118,-0.011926073180511592
1783696387462207000,7.01320703125,-0.025842297264933586,-0.013452807823754846,0.0036056963417679068
1783696387472170200,7.023170166015625,-0.033040099814534186,-0.01227211013920605,0.006261983004212379
1783696387482133200,7.03313330078125,-0.016426234143972394,-0.001976085845939815,-0.007592610553465783
1783696387492096000,7.043095947265625,-0.02465513330698013,0.002845087232813239,-0.0016731208439916372
1783696387502059000,7.05305908203125,-0.04351707016527653,-0.017034283039718864,-0.012857581876963377
1783696387512023000,7.06302294921875,-0.023463293173909185,-0.006424735817871987,-0.0070615724166855215
1783696387521986000,7.072986083984375,-0.04905424602627754,-0.015650062139704823,-0.011389007161743939
1783696387531949000,7.082948974609375,-0.0411304672896862,-0.017438224198110402,-0.01598901177048683
1783696387541912000,7.092912109375,-0.013895254361629486,0.004293788203783333,-0.003657207333296537
1783696387551875000,7.102875,-0.041132805377244945,-0.015534326805546879,0.006985803766734897
1783696387561838000,7.112838134765625,-0.02946750202476978,-0.011012063608132302,-0.0015564356617629527
1783696387571802000,7.122802001953125,-0.02423427754640579,0.002300751223042607,-0.0025261209441348907
1783696387581764900,7.132764892578125,-0.04115618625283241,-0.01057337992992252,-0.0033931130370125173
1783696387591727600,7.1427275390625,-0.03577916938960552,-0.003025741029344499,-0.006800364197231829
1783696387601691000,7.15269091796875,-0.03278291018307209,0.0025309067171067,0.010142550764605402
1783696387611654000,7.16265380859375,-0.03712298521399498,-0.012594875820167361,0.0035942981649190187
1783696387621618000,7.172617919921875,-0.02395019990801811,0.0043466143695637584,-0.00955411988478154
1783696387631581000,7.182580810546875,-0.022297756525874138,0.006820968593843281,0.003813859199732542
1783696387641544000,7.1925439453125,-0.036221652460098265,-0.015496332882717252,-0.0019726152472198007
1783696387651506700,7.202506591796875,-0.010931143859028816,-0.00330280440505594,-0.009988967638090252
1783696387661469700,7.2124697265625,-0.03277063522338867,0.0005706029621884226,0.013150829202495514
1783696387671432700,7.2224326171875,-0.044294484278559684,-0.009305077027156949,0.005721227191016078
1783696387681396700,7.232396728515625,-0.019299159231781958,0.0014052271554246545,-0.00812814220227301
1783696387691359700,7.24235986328125,-0.03126549135744572,0.000015709025785326956,-0.0028905703423544762
1783696387701322800,7.25232275390625,-0.04263561115562915,-0.008412731297314166,0.0017469897978007792
1783696387711285800,7.26228564453125,-0.032009003201127054,-0.009055961104296148,0.0004055851262062788
1783696387721248800,7.272248779296875,-0.03904080153405666,-0.004663023374974727,-0.0031474311802536245
1783696387731212800,7.282212890625,-0.03620177871584892,-0.0164802658861503,-0.001092179150879383
1783696387741175600,7.292175537109375,-0.008818681749701499,-0.0053547684988006945,-0.0005427285745739937
1783696387751138600,7.302138671875,-0.031713819646835326,-0.0022542817328125237,0.00157039112187922
1783696387761101800,7.312101806640625,-0.0326169059664011,-0.007145560905709863,-0.013162373509816824
1783696387771064800,7.32206494140625,-0.017049334478378295,-0.0039249548913910986,-0.005729483562707901
1783696387781027800,7.33202783203125,-0.027820903861522674,-0.012307839039713143,-0.009688815647736191
1783696387790992000,7.341991943359375,-0.030365327647328376,-0.007150054417736828,-0.02887333552390337
1783696387800955000,7.351954833984375,-0.027810382467508315,0.01439936795886606,-0.006688939712010324
1783696387810918000,7.36191796875,-0.027512276303768155,0.0018592180006206036,0.0006305164558812976
1783696387820880600,7.371880615234375,-0.02017886467576027,-0.015652911683917043,-0.008973580050468444
1783696387830843600,7.38184375,0.001830138036608696,0.0014461436877027153,-0.01038739237114787
1783696387840806700,7.391806640625,-0.041418052059412,-0.006422872654348611,0.003094897275418043
1783696387850770700,7.401770751953125,-0.04201894056200981,-0.0004614800319075584,0.0018469795735552906
1783696387860733700,7.411733642578125,-0.017017185774445533,0.0029732436571270225,-0.00638140813279897
1783696387870696700,7.42169677734375,-0.04560264426767826,-0.008633351778052746,-0.003336195218004286
1783696387880659700,7.43165966796875,-0.038273908814787864,0.001681632944010198,-0.003523059559613466
1783696387890623000,7.441623046875,-0.025106384205818174,-0.0012727964147925376,-0.00012030191142112016
1783696387900586800,7.451586669921875,-0.03977086937427521,-0.0023264701861888167,-0.010877112116850912
1783696387910549800,7.4615498046875,-0.028545711004734037,-0.00048314387444406745,-0.013956263833865522
1783696387920512800,7.4715126953125,-0.02121171485483646,0.0073459423160180445,-0.008530366327613592
1783696387930475800,7.481475830078125,-0.04261339932382106,-0.01730685290340334,-0.0022014190344139934
1783696387940438800,7.491438720703125,-0.02046586492359638,0.0013563099797815083,-0.018484847174212334
1783696387950401800,7.50140185546875,-0.02360825460255146,0.010450009278580545,-0.0007915157038718461
1783696387960365800,7.51136572265625,-0.03618482758104801,-0.02037248755171895,-0.003867196822166443
1783696387970328800,7.521328857421875,-0.03334171310961246,-0.011311667609214782,-0.010371902541071176
1783696387980291800,7.531291748046875,-0.020776246047019956,-0.010000950336828827,-0.00021967063266783952
1783696387990254600,7.541254638671875,-0.03680032913088798,-0.005097323139011859,-0.005085888429544866
1783696388000217600,7.551217529296875,-0.008068740165233611,-0.004223389848694205,-0.007181837795488536
1783696388010180600,7.5611806640625,-0.029612463453412053,0.004442914350889623,0.0034769553955644366
1783696388020144600,7.57114453125,-0.04144318650066852,-0.003880165901593864,-0.012771620626561344
1783696388030107600,7.581107666015625,-0.024681436792016027,0.0017284312278032302,-0.011251790648140013
1783696388040070700,7.591070556640625,-0.03320902664065361,-0.01004511827211827,0.007185016133263707
1783696388050034000,7.601033935546875,-0.03889876271486282,-0.004475355315767229,-0.012799239285849034
1783696388059997000,7.610996826171875,-0.016152677899599073,0.005106748554483056,-0.015691124802455304
1783696388069961000,7.6209609375,-0.04293547088503837,-0.0029928616730496285,0.004327946201711893
1783696388079923700,7.630923828125,-0.03860299463868141,-0.0007018281264230609,-0.006158559162355959
1783696388089886700,7.64088671875,-0.02258475677371025,-0.0050790202973410485,-0.01573218746520579
1783696388099849700,7.650849609375,-0.033061727124452586,0.0018512173572555184,0.0007230901101604103
1783696388109812700,7.660812744140625,-0.03710486503541469,-0.006413812565058469,-0.0099109704984352
1783696388119775700,7.670775634765625,-0.01599953316450119,-0.005838716090843081,0.009075140728801489
1783696388129739800,7.68073974609375,-0.036356092494726176,-0.008123794820718467,0.0017662059549242257
1783696388139702800,7.690702880859375,-0.04384206433594227,-0.010819061786681412,0.003997179877385497
1783696388149665800,7.700665771484375,-0.024680267748236655,0.012775493084080516,-0.0066625996943563215
1783696388159628800,7.71062890625,-0.03560965804159641,-0.021404753208905457,0.007017915938049554
1783696388169591600,7.720591552734375,-0.03142331226766109,-0.009726773037947714,-0.0026130320426076647
1783696388179554800,7.730554931640625,-0.03141922061443329,0.0015089067256078123,-0.0021534151742234825
1783696388189518600,7.7405185546875,-0.03277414235472679,-0.006502111903019249,-0.0036541385933756827
1783696388199481600,7.750481689453125,-0.030386370435357093,-0.01117649692222476,-0.003772504276037216
1783696388209444900,7.76044482421875,-0.023646248525381088,-0.0037219431325793265,-0.004086757856979966
1783696388219408000,7.770407958984375,-0.02948328411579132,-0.007740458058938383,0.0046074572628363964
1783696388229371000,7.780370849609375,-0.032176176461577416,-0.005897058681957423,0.004869651862978935
1783696388239334000,7.790333984375,-0.02544423785805702,-0.009303177331015468,0.0068253890406340355
1783696388249298000,7.8002978515625,-0.04550210650265216,-0.02120068200416863,-0.00865187381543219
1783696388259260700,7.8102607421875,-0.01721767678260803,-0.0052503948088735335,-0.021213468420505522
1783696388269223700,7.8202236328125,-0.02664718390703201,-0.010523111047409474,-0.0012661109456792473
1783696388279186700,7.830186767578125,-0.04236906917393207,-0.020301760403066874,0.002477751757763326
1783696388289149700,7.840149658203125,-0.02620586988031864,-0.007868541418015957,-0.011216098280251026
1783696388299112700,7.85011279296875,-0.027696985220909118,-0.0071133026039227835,0.002393397942557931
1783696388309076700,7.86007666015625,-0.03174655287265778,-0.002443630292452872,-0.012200908066518605
1783696388319039700,7.870039794921875,-0.01513853242099285,-0.0004833265375345945,-0.01142331129014492
1783696388329002800,7.880002685546875,-0.04311375006139278,-0.010973923554830253,-0.014000760562717913
1783696388338965800,7.8899658203125,-0.03474222755730152,-0.008812580802477895,-0.013699147267639636
1783696388348928800,7.8999287109375,-0.020080664998292922,0.004720744911581277,-0.0017307693153619766
1783696388358892800,7.909892822265625,-0.03309855200350285,-0.005104264336451888,0.000865896114334464
1783696388368855800,7.919855712890625,-0.03639642450511455,-0.011216975063085555,-0.014246259756386279
1783696388378818800,7.92981884765625,-0.0025759879678487778,-0.0010016878558322788,-0.0025548355819657444
1783696388388781800,7.93978173828125,-0.027418752801418304,-0.007174092880450188,-0.0002342471472918987
1783696388398744800,7.949744873046875,-0.032057518517971034,-0.007481222600862383,-0.012486593140102923
1783696388408707800,7.959707763671875,-0.01648410181105137,0.002432926235347986,-0.009669416827522218
1783696388418671900,7.969671875,-0.03264204040765762,-0.007933204152062535,-0.00745426152870059
1783696388428634600,7.979634521484375,-0.025902503019571303,-0.010577325452677904,-0.005832980469800532
1783696388438597600,7.98959765625,-0.010931728380918502,-0.00977974533420056,-0.00830108761638403
1783696388448560600,7.999560546875,-0.0365296954959631,-0.010283566670492291,0.011304251487739383
1783696388458523600,8.009523681640625,-0.029798925936222076,0.0030045155782252547,-0.005925444526225328
1783696388468487000,8.01948681640625,-0.029641105026006698,0.009234386411122977,0.0003545490587130189
1783696388478450700,8.02945068359375,-0.0339805955350399,-0.014416099897958338,-0.007860248513706028
1783696388488413700,8.03941357421875,-0.025747604718804357,-0.002711743176728487,-0.0023934710077941415
1783696388498377000,8.049376953125,-0.033221886122226714,0.008562076640129089,-0.003679565295577049
1783696388508339700,8.059339599609375,-0.049238370421528815,0.004579509809985756,-0.003159523476846516
1783696388518302700,8.069302734375,-0.02455108841061592,0.0007230901101604103,-0.008514730367064476
1783696388528265700,8.079265625,-0.020206921726465224,-0.005650353911891579,0.0006997822998091578
1783696388538229800,8.089229736328125,-0.03188216195106506,-0.009704415075667203,-0.005767587083391845
1783696388548192800,8.09919287109375,-0.03068447659909725,0.002559694420173764,-0.015048881376162171
1783696388558155800,8.10915576171875,-0.02439560558795929,0.01621171461045742,-0.010577069724351167
1783696388568118800,8.119118896484375,-0.02260521503984928,-0.010380122380144893,-0.004049969510547816
1783696388578081800,8.129081787109374,-0.019458733707666397,-0.003397058559767902,-0.016366759041696786
1783696388588045600,8.139045654296876,-0.01765957533121109,-0.004453070418722927,-0.0003076411770656705
1783696388598008600,8.149008544921875,-0.04878361239135265,-0.019611366986110806,0.002432305180840194
1783696388607971600,8.1589716796875,-0.0266302327722311,-0.00757233495041728,-0.0037908436503261327
1783696388617934600,8.1689345703125,-0.02962181580364704,-0.007235796472430229,-0.0016398761615157127
1783696388627897900,8.17889794921875,-0.020493921974301336,-0.003238178203627467,-0.011604330412857234
1783696388637860900,8.18886083984375,-0.02018237180709839,0.003509579023532569,-0.010738580428995191
1783696388647824600,8.19882470703125,-0.03857844471931457,0.010330657215230167,0.0013496610432863236
1783696388657787600,8.20878759765625,-0.02316986318528652,-0.009237783944606781,0.003068191931582987
1783696388667750700,8.218750732421874,-0.012545008796453476,0.006342318231426179,-0.003708133802935481
1783696388677713700,8.228713623046875,-0.022722119417786596,-0.002435666181705892,-0.0010262743078172207
1783696388687676700,8.2386767578125,-0.02991290770471096,0.0007264511110261083,-0.01534052126649767
1783696388697639700,8.2486396484375,-0.020186463460326192,0.008888057191483676,-0.004970664552040397
1783696388707603700,8.258603759765625,-0.03246083862185478,-0.00839095785692334,0.0004301350455731153
1783696388717566700,8.268566650390625,-0.029471593677997586,-0.0005648308085277676,-0.00860434487927705
1783696388727529700,8.27852978515625,-0.02108721169233322,0.001956650493107736,-0.006015424364618957
1783696388737492500,8.288492431640625,-0.027528058394789695,-0.008842683679796754,0.007327566409111023
1783696388747455500,8.29845556640625,-0.035761633732914924,-0.013974091751500963,-0.004942205642536282
1783696388757418800,8.308418701171876,-0.034710078853368756,-0.0011136237977072596,-0.0011575360046699643
1783696388767382500,8.318382568359375,-0.04114917199015617,-0.006299209742061793,0.007586947997659445
1783696388777345500,8.328345458984375,-0.024537644407153128,0.003331044118851423,-0.012970321536436676
1783696388787308800,8.338308837890626,-0.04279226302206516,-0.0026108766181394457,-0.012477313855104148
1783696388797271800,8.348271728515625,-0.0453437010705471,-0.008873626807332039,-0.0021119506526738403
1783696388807234800,8.35823486328125,-0.024692542707920075,-0.011794263494387268,-0.0006848404590040444
1783696388817197600,8.368197509765626,-0.0037391865283250805,-0.013084193707071244,0.006000080665014684
1783696388827161600,8.37816162109375,-0.04010521589517593,-0.009613887248001992,-0.016062296202406286
1783696388837124600,8.38812451171875,-0.026933599632978436,-0.00046666766367852683,-0.011650471109524368
1783696388847087600,8.398087646484376,-0.02437982349693775,0.007722228282503784,-0.009037183338589966
1783696388857050600,8.408050537109375,-0.02752396674156189,-0.008925393527187407,-0.01087966940011829
1783696388867013600,8.418013671875,-0.03156125943362713,0.004668539800308644,-0.014674239377491176
1783696388876976600,8.4279765625,-0.023774843341112135,0.00980451444927603,-0.0044277898469939824
1783696388886940700,8.437940673828125,-0.02453063014447689,-0.009886493644304573,-0.01221256197169423
1783696388896903700,8.447903564453124,-0.009714169284701347,0.004456687147915363,-0.003574205224961042
1783696388906866400,8.457866455078126,-0.030811317849159237,-0.009541296935826539,0.0027094050891697404
1783696388916829700,8.46782958984375,-0.03709785077273845,-0.009433817973360419,-0.0016701251693069933
1783696388926792700,8.477792724609374,-0.014048983618617056,-0.005279693968594074,0.002137633083201945
1783696388936755700,8.487755615234375,-0.04158288723230362,0.003274966550059616,-0.002071435979194939
1783696388946719700,8.4977197265625,-0.02842179236412048,-0.018786935393325984,-0.006016264614835381
1783696388956682800,8.507682861328124,-0.014054244315624236,-0.0006511939177289604,0.002247559731081128
1783696388966645800,8.517645751953125,-0.020341946282982824,0.0008246507884934544,0.006784289845265448
1783696388976608800,8.52760888671875,-0.035309798312187196,-0.001808328063599765,-0.006930676046013832
1783696388986571500,8.537571533203124,-0.03246259218752384,-0.006961765304021537,-0.01159950810726732
1783696388996534500,8.547534423828125,-0.036060324418544766,-0.009985387441515921,-0.0006591214958578348
1783696389006498600,8.55749853515625,-0.033515900632739064,-0.014079415289498865,-0.004334193279407918
1783696389016461600,8.567461669921874,-0.007770049479603767,0.010180581220053136,-0.000813252611644566
1783696389026424600,8.577424560546875,-0.032009003201127054,-0.012646204148605466,-0.0022562910268083213
1783696389036387600,8.5873876953125,-0.03440086677372455,-0.0033963279074057935,-0.015303623322211204
1783696389046350600,8.5973505859375,-0.016138649374246597,-0.003551810730062425,0.0012706044577062128
1783696389056314600,8.607314697265625,-0.030960955452919006,-0.008556998606212436,0.00034523324109613895
1783696389066277600,8.617277587890625,-0.012709259447455405,-0.012561996463872491,-0.007362345461547374
1783696389076241000,8.627240966796874,-0.0260246680945158,-0.004752710952423513,0.0022536241456866265
1783696389086203600,8.63720361328125,-0.03545826687216758,-0.00685505352653563,-0.004434731044434011
1783696389096166700,8.647166748046875,-0.026771102547645566,-0.0028331410666927693,0.003935622415877879
1783696389106129700,8.657129638671876,-0.033498949497938156,0.006169409349933266,0.0010373436911031604
1783696389116092700,8.6670927734375,-0.03709726625084877,-0.014270115556009114,-0.009600004853121936
1783696389126056700,8.677056640625,-0.016152677899599073,-0.01007649979107082,-0.01920453975088894
1783696389136019700,8.687019775390626,-0.026775194200873372,-0.0002722045375034213,-0.0006563084842637181
1783696389145982700,8.696982666015625,-0.03949965121746063,0.003241648802347481,-0.00014379238486289978
1783696389155945700,8.70694580078125,-0.026480010646581648,-0.003825513104908168,0.003598937807418406
1783696389165908500,8.716908447265626,-0.029770868885517117,0.00006254384219646453,0.005218392235413194
1783696389175871500,8.72687158203125,-0.04098959751427173,-0.011821041903458535,-0.00469341851323843
1783696389185835500,8.73683544921875,-0.03036123599410057,-0.010023490962199866,-0.019479045843333005
1783696389195798500,8.746798583984376,-0.03529576978683471,0.002906790824793279,-0.007046192184463143
1783696389205761800,8.75676171875,-0.04023614879846572,-0.013596746339090167,-0.010201550942845642
1783696389215724800,8.766724853515624,-0.034247722038626666,0.0006091814069077372,-0.008638320214115083
1783696389225687800,8.776687744140625,-0.030955694755911825,-0.010882592009566724,0.002844648841395974
1783696389235650800,8.78665087890625,-0.02960778727829456,-0.01693630255796015,-0.008173734909668565
1783696389245614800,8.79661474609375,-0.023615853387117386,0.00379325480312109,-0.00796151693109423
1783696389255577600,8.80657763671875,-0.031547815430164335,0.0023580343682318926,-0.0008301672138273715
1783696389265540600,8.81654052734375,-0.034247137516736983,-0.0063271937275305385,-0.015162607416324317
1783696389275503600,8.826503662109374,-0.016881576696038247,-0.007322744103521108,-0.008225866955704986
1783696389285466600,8.836466552734375,-0.02900222260057926,-0.019886238404735922,-0.0026861703440546987
1783696389295429600,8.8464296875,-0.029454642543196675,-0.005577325208298862,-0.008636055191792547
1783696389305393700,8.8563935546875,-0.012989829954504966,-0.007404175309278071,-0.007838876932114363
1783696389315356700,8.866356689453125,-0.022868249890208244,-0.016192388855479658,-0.009622107087075709
1783696389325319700,8.876319580078125,-0.03229834153652191,-0.005707637057080865,-0.01015617743115872
1783696389335282700,8.88628271484375,-0.023321254354715347,0.007223886838927864,-0.009752455468475817
1783696389345245700,8.89624560546875,-0.03964110551476478,-0.004180829348601401,0.0020355244155973195
1783696389355209500,8.90620947265625,-0.02871814496219158,-0.004035977517813444,-0.004227189240977168
1783696389365172700,8.9161728515625,-0.027519875088334082,0.0013891893360763788,-0.013449812149070203
1783696389375135700,8.9261357421875,-0.041895021921396255,-0.0032832959869876503,-0.002533865859173238
1783696389385098800,8.9360986328125,-0.03515957618653774,-0.01815375205632299,-0.008637589561752975
1783696389395061800,8.946061767578126,-0.020189970591664313,0.0038111923186108466,0.005434044280089438
1783696389405024800,8.956024658203125,-0.027969956943392753,-0.011360073328204452,-0.005432108051329851
1783696389414988800,8.96598876953125,-0.014348258826136589,-0.0045572979781776666,-0.014287212821282445
1783696389424951600,8.97595166015625,-0.03319850524663925,-0.012791494370810686,0.00009980711266398429
1783696389434914600,8.98591455078125,-0.03874211084842682,-0.004894932434707879,-0.0038852074028924107
1783696389444877600,8.995877685546875,-0.022724457505345342,-0.004066409188695252,-0.0023268720449879762
1783696389454840600,9.005840576171876,-0.031096564531326292,-0.006809022427722812,0.006932831470482051
1783696389464803600,9.015803466796875,-0.04412088127732277,-0.011251352256722748,-0.011664353504404425
1783696389474766800,9.025766845703124,-0.031548399952054024,-0.0005198226230219006,-0.010337488814815879
1783696389484730600,9.035730712890626,-0.03304302242398262,0.001439531283825636,-0.0005276406032964587
1783696389494693600,9.045693603515625,-0.03170271373093128,-0.010478979644738137,-0.01837360535208136
1783696389504656600,9.05565673828125,-0.012401800933480263,0.0030372488040477036,-0.007597615522146224
1783696389514619600,9.06561962890625,-0.031256723529100416,-0.006356565952487289,0.007182056991197169
1783696389524582700,9.075582763671875,-0.02931201920211315,-0.011943499239347875,-0.006337861252017319
1783696389534545700,9.085545654296874,-0.03215338010787964,0.009186455616168676,-0.015868417598120868
1783696389544509700,9.095509765625,-0.04786532850265503,-0.0086026643788442,-0.002872632826864719
1783696389554472700,9.10547265625,-0.03904021701216698,-0.002915558653138578,-0.00367565630543977
1783696389564435700,9.115435791015624,-0.030951018580794333,0.006326134281605482,-0.0014753697821870445
1783696389574398700,9.125398681640625,-0.0363379723161459,-0.005046214006282389,-0.003586626315116882
1783696389584361500,9.135361572265625,-0.03140168495774269,-0.0038876916209235786,-0.017983327392861247
1783696389594324700,9.14532470703125,-0.018078093004226685,0.007361943602748215,-0.000995586908608675
1783696389604288800,9.155288818359375,-0.03903437179327011,-0.004750738191045821,-0.008629954244568944
1783696389614251800,9.165251708984375,-0.027221768924593923,-0.007218297348357737,-0.02253587613068521
1783696389624214800,9.17521484375,-0.01958615947961807,-0.0001616203024983406,-0.007436506676301359
1783696389634178000,9.185177978515625,-0.04068681517541408,-0.01576999872494489,-0.002239157228916883
1783696389644141000,9.19514111328125,-0.016892098090052602,-0.0124601069919765,-0.010055895394459367
1783696389654103800,9.205103759765626,-0.026612697115540502,-0.002294284949637949,-0.01574522960986942
1783696389664068000,9.215068115234375,-0.04262275167405605,-0.007581102778762579,-0.006136858787201344
1783696389674030800,9.22503076171875,-0.022865911802649498,-0.006321859965287149,-0.01452697639390826
1783696389683993900,9.234993896484376,-0.025557635104656216,-0.01569401087928563,-0.005981777823343873
1783696389693956900,9.244956787109375,-0.029004560688138007,-0.010460421074740588,-0.0077602222053334115
1783696389703919900,9.254919921875,-0.02031739636361599,-0.00661890668310225,-0.016411036574840544
1783696389713883000,9.2648828125,-0.019863222855329512,-0.002735379780642688,0.002743453489243984
1783696389723847000,9.274846923828125,-0.03602583762705326,-0.019808898852206765,0.007612447765097022
1783696389733810000,9.284809814453125,-0.041406361621618266,0.0011588877115398645,-0.004966244105249643
1783696389743773000,9.29477294921875,-0.04648702588677406,0.01747135928273201,-0.005474522420950234
1783696389753735700,9.304735595703125,-0.019108020573854446,-0.016167071751132606,-0.005379683744348585
1783696389765566700,9.316566650390625,-0.015957447588443755,-0.00597973199672997,-0.008728409650363027
1783696389775530000,9.326530029296874,-0.031520927423238754,0.011439531772583722,-0.005338219222798943
1783696389785493800,9.33649365234375,-0.021197101807594296,-0.0016522607190534472,-0.006991100996360182
1783696389795456800,9.346456787109375,-0.030618425625562665,0.002098543181829154,-0.0059349064743146294
1783696389805420000,9.356419921875,-0.031070845568180083,-0.010029847637750208,0.011836568266153334
1783696389815383000,9.366383056640625,-0.016260229927301407,-0.017058029241487385,0.004602123500593006
1783696389825346000,9.376345947265625,-0.019544073903560638,0.009617029053159058,-0.008500665309093892
1783696389835308800,9.386308837890626,-0.04019698583185673,-0.00773348032888025,-0.004681910738535225
1783696389845272800,9.39627294921875,-0.03540449085831642,-0.007370309572294354,-0.014108422188274562
1783696389855235800,9.40623583984375,-0.030765725141763685,0.0037535438472405076,-0.004002769367955625
1783696389865198800,9.41619873046875,-0.04334522072970867,-0.015284187969379127,-0.004917509592697024
1783696389875161900,9.426161865234375,-0.029130232894420623,0.004148242253251374,-0.01670008264929056
1783696389885124900,9.436124755859375,-0.03331482510268688,0.0036983065286651253,-0.008315189206972717
1783696389895087900,9.446087890625,-0.05187222605645656,-0.0036162177357822655,-0.015764738027937708
1783696389905052000,9.456052001953125,-0.02373626489639282,-0.00810593037046492,-0.010430208599567413
1783696389915015000,9.466014892578125,-0.013708207356929777,-0.0038687677247449754,-0.0036796748934313653
1783696389924977700,9.475977783203126,-0.03720832540988922,-0.009813647603802383,-0.00024889672715216874
1783696389934941000,9.48594091796875,-0.014911737927794455,-0.008788286611437797,-0.013543883640691637
1783696389944904000,9.495904052734375,-0.016102993538975714,0.005448218935914338,-0.007009294240176677
1783696389954867000,9.505866943359376,-0.02119534824192524,-0.010859503394924103,-0.0034380481572821734
1783696389964831000,9.5158310546875,-0.020001170021295547,-0.010820303895696997,-0.012232727976888418
1783696389974794000,9.5257939453125,-0.030627193453907964,-0.004560257120244205,-0.00008632657658308744
1783696389984757000,9.535757080078126,-0.03826221837699413,-0.009936324135400354,0.004936141227930784
1783696389994720000,9.545719970703125,-0.03436287285089493,-0.0018539573036134242,-0.014271101936697958
1783696390004682800,9.555682861328124,-0.03555763559341431,0.002770231898315251,0.01201152297426015
1783696390014645800,9.565645751953125,-0.02494447164237499,-0.013012480177730322,-0.005572685565799474
1783696390024609800,9.57560986328125,-0.01222410627901554,-0.005060461727343499,-0.007573065602779388
1783696390034572800,9.58557275390625,-0.01671264986991882,-0.0018815759629011153,0.0004395604610443115
1783696390044535800,9.595535888671876,-0.04365560185313225,-0.006818082517012954,-0.002771145213767886
1783696390054498800,9.605498779296875,-0.024797172126173973,0.002082468829862773,-0.013997107300907372
1783696390064461800,9.6154619140625,-0.027343349477648732,-0.01819086919631809,0.012153525260835886
1783696390074425000,9.625425048828125,-0.04260813862681389,-0.009737659758143126,-0.0035578020794317126
1783696390085010700,9.6360107421875,-0.049341830796003336,-0.006412351260334253,0.002681055777519941
1783696390094973700,9.6459736328125,-0.0363245283126831,-0.0037308936240151524,-0.004152224308624863
1783696390104937000,9.65593701171875,-0.015673369950056075,0.004449672885239124,-0.009804770177602767
1783696390114900000,9.66589990234375,-0.0303337634652853,-0.011870543600991367,0.00041997897773981093
1783696390124863000,9.675863037109375,-0.03752162914276123,0.006602649668045342,-0.00879606805909425
1783696390134827000,9.685826904296874,-0.015074819535017013,0.003074146748334169,0.0032464711079373955
1783696390144790000,9.6957900390625,-0.02374678629040718,-0.010991349613666533,-0.0036810996655374764
1783696390154753000,9.7057529296875,-0.04215513416230678,-0.010563735318742691,-0.015701025141961873
1783696390164715800,9.7157158203125,-0.02344926464855671,-0.004425305628962814,0.0037253406660631297
1783696390174678800,9.7256787109375,-0.03780804486870765,-0.014225180435739457,0.007377323834970593
1783696390184641800,9.735641845703125,-0.028384382963180542,-0.019317498606070876,-0.01542118528727442
1783696390194605800,9.745605712890624,-0.021647768184542653,-0.013530951093882321,-0.004364332689344883
1783696390204568800,9.75556884765625,-0.036758243554830546,-0.004654693938046694,0.0034278190242126583
1783696390214531800,9.76553173828125,-0.013412439280748367,0.003043313218653202,-0.00715067547224462
1783696390224494800,9.775494873046876,-0.021782792741060257,-0.0025014248942956327,0.0005605564922094345
1783696390234457900,9.785457763671875,-0.03703881406188011,-0.00842767313811928,-0.0010100172927603125
1783696390244420900,9.7954208984375,-0.028063480445742604,-0.007088679619319737,-0.007495360724069177
1783696390254384600,9.805384521484376,-0.036436756515502926,-0.004319251438602805,0.0019770356940105554
1783696390264348000,9.815347900390625,-0.04061901063621044,-0.014358816752769052,-0.01318725222274661
1783696390274311000,9.825310791015625,-0.02776128262877464,0.00038845132831484075,-0.020893917609937487
1783696390284274000,9.83527392578125,-0.02746025385558605,-0.0011951280687004327,-0.00023428367991000412
1783696390294237000,9.84523681640625,-0.03373918799459934,-0.014511998020485042,0.00497574258595705
1783696390304200000,9.855199951171874,-0.02087327668070793,-0.0024056363696232435,-0.00615019319280982
1783696390314164000,9.8651640625,-0.037922611159086225,-0.008963789308816195,-0.006095430798269808
1783696390324127000,9.875126953125,-0.029995909813046454,-0.015949848803877828,-0.017862623622640968
1783696390334089700,9.88508984375,-0.03628419630229473,-0.0038516704594716428,-0.013541034096479415
1783696390344052700,9.895052734375,-0.029549335089325904,-0.011058167772181332,-0.014591785258427262
1783696390354015700,9.905015625,-0.028499533775448796,-0.025675416265428064,-0.013914433986134827
1783696390363978800,9.914978759765624,-0.02415419804751873,0.005364376577362418,-0.0032002573460340497
1783696390373942800,9.92494287109375,-0.24101707981824874,0.044680451388843356,-0.08323609975446015
1783696390383905800,9.93490576171875,0.12832944279313085,0.2108437310790643,-0.19488909650221467
1783696390393868800,9.944868896484374,0.3097247053414583,-0.1545486836116761,0.27216305471556257
1783696390403832000,9.95483203125,-0.10594342346191406,-0.2629128314144909,0.10998811400914564
1783696390413794800,9.964794921875,-0.44201545298099515,0.04572491894047707,-0.059000689696893094
1783696390423757800,9.9747578125,-0.23090426660478114,0.017600063696317374,-0.1388845564140007
1783696390433721900,9.984721923828126,0.25610125170350073,-0.007927870389819144,0.08382423837333917
1783696390443684900,9.994684814453125,0.24914310312867163,-0.05241853482760489,0.07397274297717958
1783696390453648000,10.00464794921875,-0.05557283414006233,0.055859322931244966,-0.01920026543457061
1783696390463611000,10.01461083984375,-0.2501525724321604,0.07751224221494048,-0.08620711492188274
1783696390473574000,10.024573974609375,-0.13281681734025477,-0.022854075234383344,-0.06411058005653321
