time,seconds_elapsed,z,y,x
1783696326077025000,0.06502490234375,-0.0001163895649369806,0.006057342514395714,-0.002002930734306574
1783696326086988800,0.07498876953125,-0.0001032343425322324,0.015969935804605484,0.0066987294703722
1783696326096952000,0.0849521484375,0.0009833353105932474,-0.00637558288872242,0.0019098336342722178
1783696326106915000,0.0949150390625,0.0005226935027167201,-0.01493116281926632,-0.004490287508815527
1783696326116879000,0.104879150390625,-0.0006014267564751208,0.004862516187131405,0.0011438960209488869
1783696326126842000,0.114842041015625,-0.00010664184810593724,0.011064576916396618,0.004566239658743143
1783696326136805000,0.12480517578125,-0.0006896078120917082,-0.00538204051554203,-0.002766507677733898
1783696326146769200,0.13476904296875,0.0017975389491766691,-0.005642815493047237,-0.003392023267224431
1783696326156732200,0.144732177734375,-0.0007319313008338213,0.00258635263890028,0.004415832459926605
1783696326166695000,0.15469482421875,-0.001371165388263762,0.005348716862499714,0.004519199021160603
1783696326176659000,0.164658935546875,0.0016946656396612525,-0.00026069919113069773,-0.0060713933780789375
1783696326186622000,0.1746220703125,0.0012839100090786815,-0.005402279086410999,-0.0036223758943378925
1783696326196585000,0.1845849609375,-0.00007403589552268386,0.00043510342948138714,0.0032485798001289368
1783696326206548000,0.1945478515625,0.0002578581916168332,0.0043237279169261456,0.004416836425662041
1783696326216512000,0.204511962890625,-0.0007980851805768907,-0.004557914100587368,-0.0032384200021624565
1783696326226475000,0.21447509765625,0.001719731604680419,-0.0025833037216216326,-0.004726134240627289
1783696326236438000,0.22443798828125,0.00008934433571994305,0.004292445722967386,0.003027393016964197
1783696326246402000,0.234402099609375,-0.0001499135250924155,0.0015112652909010649,0.002655567368492484
1783696326256365000,0.244364990234375,0.00018298160284757614,-0.0027167689986526966,-0.0022102943621575832
1783696326266328000,0.254328125,0.0007750023505650461,-0.000041357590816915035,-0.0021088276989758015
1783696326276292000,0.2642919921875,0.00023464695550501347,0.00034027337096631527,0.0012693919707089663
1783696326286254800,0.2742548828125,0.0006378384423442185,0.0030244840309023857,-0.000020946026779711246
1783696326296217900,0.2842177734375,0.0009209324489347637,-0.0011971588246524334,-0.0015764982672408223
1783696326306180900,0.294180908203125,0.00020258157746866345,-0.002394065260887146,-0.0027653579600155354
1783696326316145000,0.304144775390625,-0.001580671058036387,0.002172723412513733,0.0003018045681528747
1783696326326108000,0.31410791015625,0.0009569058893248439,0.0027155065909028053,-0.00047309056390076876
1783696326336071000,0.32407080078125,0.000028261623810976744,-0.003923754207789898,-0.0016006730729714036
1783696326346035000,0.334034912109375,-0.00025128363631665707,-0.0012250511208549142,-0.0002693585120141506
1783696326355998000,0.343998046875,0.0000025156186893582344,0.0030559804290533066,0.0027240347117185593
1783696326365961000,0.3539609375,0.0009999544126912951,-0.0006324053974822164,-0.001239293604157865
1783696326375925000,0.363925048828125,-0.0008666551439091563,-0.0004254778614267707,-0.0012352989288046956
1783696326385887700,0.3738876953125,0.00042169715743511915,0.0009369031176902354,-0.0003407312324270606
1783696326395851000,0.38385107421875,-0.0010979025391861796,-0.001378715387545526,0.0011021695099771023
1783696326405814800,0.393814697265625,0.0013300147838890553,0.002303515560925007,-0.001999880652874708
1783696326415778000,0.403778076171875,0.0004509052960202098,-0.0018867020262405276,-0.003367147408425808
1783696326425741000,0.413740966796875,-0.0007782172178849578,-0.0006742681143805385,-0.002396376570686698
1783696326435704000,0.4237041015625,-0.0012530589010566473,0.003162015462294221,0.0023674857802689075
1783696326445668000,0.433668212890625,0.0005351045983843505,-0.000863321591168642,0.0008293287828564644
1783696326455631000,0.443631103515625,-0.000017767626559361815,-0.0018971608951687813,0.00006473518442362547
1783696326465594000,0.453593994140625,-0.0005924362340010703,0.0020956152584403753,0.0001024060184136033
1783696326475558100,0.46355810546875,-0.0007548890425823629,0.00007960223592817783,0.001047561876475811
1783696326485521200,0.473521240234375,-0.00044216972310096025,-0.0012563626514747739,-0.000052129500545561314
1783696326495484000,0.48348388671875,-0.0006059541483409703,-0.0016366619383916259,-0.0009578707395121455
1783696326505448000,0.493447998046875,-0.0009689958533272147,-0.0004919231869280338,0.001339481445029378
1783696326515411000,0.503410888671875,-0.0011058823438361287,0.0006162181962281466,0.0007748912903480232
1783696326525374700,0.513374755859375,0.0010094159515574574,0.0011252500116825104,0.00014120421838015318
1783696326535338800,0.5233388671875,0.00010500650387257338,-0.0000798302935436368,-0.0011373794404789805
1783696326545301800,0.5333017578125,-0.00053867680253461,0.0009571943082846701,-0.0010084467940032482
1783696326555264800,0.5432646484375,-0.0009243024978786707,0.0008296289015561342,0.000661621568724513
1783696326565228800,0.553228759765625,-0.00024746483541093767,-0.0018018612172454596,0.0006591043202206492
1783696326575191800,0.56319189453125,-0.0021351133473217487,-0.001270560547709465,-0.0006956456927582622
1783696326585154800,0.57315478515625,-0.000610111397691071,0.0023261308670043945,0.0006335260695777833
1783696326595117600,0.58311767578125,0.0014000425580888987,0.0005396825727075338,0.000632460811175406
1783696326605081900,0.593081787109375,-0.0010873276041820645,0.000901278224773705,0.0003169729025103152
1783696326615044600,0.603044677734375,0.0003827372856903821,-0.002023671753704548,-0.0008292515994980931
1783696326625007600,0.613007568359375,0.000516458647325635,-0.0008138993289321661,-0.00015481817536056042
1783696326634971600,0.6229716796875,-0.000475302484119311,0.0012202231446281075,-0.0006285945419222116
1783696326644934700,0.6329345703125,0.0009711456950753927,-0.00016477482859045267,0.00010380917228758335
1783696326654897700,0.642897705078125,-0.0006067773210816085,-0.0016849071253091097,-0.00021523749455809593
1783696326664861700,0.65286181640625,0.0016543776728212833,0.0015939153963699937,0.0003588452818803489
1783696326674824700,0.66282470703125,0.00036034773802384734,0.0016833975678309798,-0.0008523603901267052
1783696326684787700,0.67278759765625,0.001500202575698495,-0.0024544280022382736,-0.0010434427531436086
1783696326694750700,0.682750732421875,0.0013896814780309796,0.0017312625423073769,0.000056176562793552876
1783696326704714800,0.69271484375,-0.0008914274512790143,-0.0006952357944101095,0.0015821796841919422
1783696326714677500,0.702677490234375,-0.001402754453010857,-0.0022055143490433693,-0.0011033519404008985
1783696326724640500,0.712640625,0.00033541227458044887,0.0011222179746255279,-0.002000231761485338
1783696326734604500,0.7226044921875,-0.0013024318031966686,0.00013072311412543058,-0.00009394099470227957
1783696326744567600,0.732567626953125,-0.00047131243627518415,-0.0015132379485294223,0.0006763385608792305
1783696326754530600,0.742530517578125,-0.0009924930054694414,0.0017057247459888458,0.0005338594783097506
1783696326764494600,0.75249462890625,-0.0004979688092134893,-0.002019207924604416,-0.0007405338110402226
1783696326774457600,0.76245751953125,0.00012068351497873664,-0.0010626005241647363,-0.0009756910149008036
1783696326784420600,0.772420654296875,0.0003011772932950407,0.0022762874141335487,0.001308470731601119
1783696326794384000,0.7823837890625,0.0004364659253042191,-0.002338704187422991,-0.00029981229454278946
1783696326804347600,0.79234765625,0.00033647456439211965,0.000817910535261035,-0.0018625592347234488
1783696326814311000,0.802310791015625,-0.00025021983310580254,0.0005779596976935863,0.0009452115627937019
1783696326824273700,0.812273681640625,0.0004224288568366319,0.000010886229574680328,-0.00020184286404401064
1783696326834237700,0.82223779296875,-0.0015879913698881865,-0.000564090209081769,-0.001166972448118031
1783696326844200700,0.83220068359375,0.0002918190439231694,0.0012945069465786219,-0.0007764654001221061
1783696326854163700,0.842163818359375,0.0007019457989372313,-0.002031781245023012,0.0011066558072343469
1783696326864127700,0.852127685546875,0.0002392203314229846,0.0006591075798496604,0.0005241817561909556
1783696326874090800,0.8620908203125,-0.0013341752346605062,0.0013129136059433222,0.0007321746670641005
1783696326884053800,0.8720537109375,0.0010546898702159524,-0.0021233023144304752,0.0008151124930009246
1783696326894016800,0.882016845703125,0.0016648200107738376,0.0022200471721589565,-0.002072819508612156
1783696326903980800,0.891980712890625,0.00007164955604821444,0.00046519958414137363,-0.00011688878294080496
1783696326913943800,0.90194384765625,0.0006556807784363627,-0.0007995356572791934,-0.0014729703543707728
1783696326923906800,0.91190673828125,0.0014110791962593794,0.00011442124377936125,-0.00208715396001935
1783696326933870800,0.921870849609375,-0.0009034741669893265,0.0005485164001584053,-0.0006013762904331088
1783696326943833600,0.93183349609375,-0.0006695046322420239,-0.002491333056241274,0.00122948142234236
1783696326953796600,0.941796630859375,-0.0002511220227461308,0.0011609259527176619,-0.000019541126675903797
1783696326963760600,0.9517607421875,0.00044145516585558653,-0.0005845230771228671,0.0013041420606896281
1783696326973723600,0.9617236328125,-0.002156724687665701,-0.0007309968350455165,-0.0009765890426933765
1783696326983686700,0.971686767578125,0.0006132664857432246,0.0020139524713158607,-0.0009023013990372419
1783696326993649700,0.981649658203125,0.0002745124220382422,-0.0007685181917622685,0.0010492631699889898
1783696327003613700,0.99161376953125,-0.0018098109867423773,-0.0008283739443868399,-0.00004529778379946947
1783696327013576700,1.00157666015625,0.00010393650154583156,0.001322661293670535,-0.00030788546428084373
1783696327023539700,1.011539794921875,0.00020929976017214358,0.00008291611447930336,0.0016040689079090953
1783696327033503700,1.021503662109375,-0.00003278159420005977,-0.0007722248556092381,-0.0011733417632058263
1783696327043466500,1.031466552734375,0.0014503534184768796,0.004535204265266657,0.0005421231035143137
1783696327053429500,1.041429443359375,-0.0022517067845910788,-0.0012582364724949002,-0.0003748033195734024
1783696327063393500,1.0513935546875,-0.00016946089453995228,-0.0001935844775289297,0.00003627233672887087
1783696327073356500,1.0613564453125,-0.000018992286641150713,0.001975293969735503,0.0007191068143583834
1783696327083319600,1.071319580078125,-0.000014551449567079544,-0.002704440150409937,-0.00015085760969668627
1783696327093282800,1.08128271484375,-0.0004960509832017124,0.0005781723884865642,0.0005002852994948626
1783696327103246600,1.09124658203125,0.000589218339882791,0.002063290448859334,-0.0007533251773566008
1783696327113209600,1.101209716796875,0.0026611576322466135,-0.0013532788725569844,0.0018597685266286135
1783696327123172900,1.1111728515625,0.0005224092747084796,-0.00021929864306002855,-0.000016248784959316254
1783696327133136600,1.12113671875,-0.0013852128759026527,-0.0003726966679096222,-0.000014917110092937946
1783696327143100000,1.131099853515625,-0.0007442213827744126,-0.0004922824446111917,-0.0010868574026972055
1783696327153062700,1.141062744140625,-0.0004558010259643197,0.0014848483260720968,-0.0007172105833888054
1783696327163026700,1.151026611328125,0.00001671953941695392,0.0011600562138482928,0.0023506395518779755
1783696327172989700,1.16098974609375,-0.0009888900676742196,-0.002451722975820303,-0.0011905658757314086
1783696327182952700,1.17095263671875,-0.00039743707748129964,0.001333610387519002,-0.0007213931530714035
1783696327192915700,1.180915771484375,-0.0018070482183247805,0.0002174796536564827,-0.0006787825841456652
1783696327202879700,1.190879638671875,0.0012049220968037844,-0.00033928791526705027,0.0003451345837675035
1783696327212842800,1.2008427734375,-0.0015077737625688314,0.0014650037046521902,-0.0014431781601160765
1783696327222805800,1.2108056640625,-0.00039851953624747694,-0.0002321799984201789,-0.001136069418862462
1783696327232769800,1.220769775390625,-0.0010254275985062122,-0.001136056729592383,-0.0009616324678063393
1783696327242732800,1.23073291015625,0.0007317045237869024,0.0018145176582038403,-0.00046801078133285046
1783696327252695800,1.24069580078125,0.0006238464266061783,0.00011408934369683266,0.00004118564538657665
1783696327262658600,1.250658447265625,0.0005167698254808784,-0.00043865572661161423,-0.0006449648644775152
1783696327272622600,1.26062255859375,0.0010083894012495875,0.0015986624639481306,-0.000020187348127365112
1783696327282585600,1.270585693359375,-0.00007982927490957081,-0.0021773665212094784,0.0010380815947428346
1783696327292548600,1.280548583984375,-0.0008199217263609171,-0.0007602984551340342,-0.0008445068961009383
1783696327302512600,1.2905126953125,0.000025876768631860614,0.001956182299181819,0.0006377948448061943
1783696327312475600,1.3004755859375,0.0007260218262672424,-0.0018324306001886725,0.00024231546558439732
1783696327322438700,1.310438720703125,-0.0005775142344646156,0.00026673940010368824,0.0003415706451050937
1783696327332402700,1.320402587890625,0.0002648436347953975,0.0014441229868680239,-0.0004983904073014855
1783696327342365700,1.33036572265625,0.00022379690199159086,-0.0016381196910515428,0.0003785899025388062
1783696327352328700,1.34032861328125,-0.0009663697564974427,-0.0012295908527448773,-0.001342344912700355
1783696327362291500,1.35029150390625,-0.0003951577527914196,0.0003142296336591244,0.0005403131362982094
1783696327372255700,1.360255859375,-0.00010221003321930766,-0.0023886128328740597,-0.0005459903040900826
1783696327382218500,1.370218505859375,-0.0014144991291686893,0.00001100124791264534,-0.0006167303072288632
1783696327392181800,1.380181640625,-0.0014754855073988438,-0.0000800788402557373,0.00027835811488330364
1783696327402145500,1.3901455078125,0.0006918100407347083,-0.002223673975095153,-0.00038904452230781317
1783696327412108500,1.400108642578125,0.0012425517197698355,0.0003071280661970377,-0.000442307791672647
1783696327422071800,1.41007177734375,0.0011862805113196373,0.0021654486190527678,0.00085219438187778
1783696327432035600,1.42003564453125,0.00040064798668026924,-0.002269779797643423,-0.000055144657380878925
1783696327441998800,1.429998779296875,-0.0006002451991662383,0.0026944933924824,0.00017990183550864458
1783696327451961900,1.4399619140625,-0.00020316787413321435,-0.0006661496590822935,-0.0003569914260879159
1783696327461924900,1.4499248046875,0.0007461277418769896,-0.0009885758627206087,-0.0008827446727082133
1783696327471889000,1.459888916015625,0.00002414479968138039,0.0021923037711530924,-0.00038499990478157997
1783696327481851600,1.4698515625,-0.00012021423026453704,0.0008449511951766908,0.0018782044062390924
1783696327491814700,1.479814697265625,0.0008292027050629258,-0.00006558361928910017,0.0002145277103409171
1783696327501778700,1.48977880859375,0.00016881246119737625,0.0017975509399548173,0.0002849064185284078
1783696327511741700,1.49974169921875,-0.0008698203600943089,0.001823383616283536,-0.0007414758438244462
1783696327521704700,1.50970458984375,0.0001193125790450722,-0.0008202556055039167,-0.0003530350513756275
1783696327531667700,1.519667724609375,-0.0017520906403660774,0.0027680876664817333,-0.001886483165435493
1783696327541630700,1.529630615234375,-0.0003172101569361985,-0.0020781857892870903,0.0008267647353932261
1783696327551593700,1.53959375,-0.00013877837045583874,-0.0020582121796905994,-0.0003229219000786543
1783696327561556700,1.549556640625,0.0004682325816247612,0.00011359190102666616,-0.00028121634386479855
1783696327571520800,1.559520751953125,-0.0012068956857547164,-0.002179922303184867,0.001574208028614521
1783696327581483800,1.56948388671875,-0.001820548321120441,-0.0016321701696142554,0.0002272791462019086
1783696327591446800,1.57944677734375,-0.000743832322768867,0.0016019727336242795,0.0011639128206297755
1783696327601410800,1.589410888671875,-0.00018179304606746882,-0.0012659269850701094,0.0013234911020845175
1783696327611373800,1.599373779296875,-0.00048406183486804366,-0.000416378490626812,-0.0017500630347058177
1783696327621336600,1.609336669921875,0.0004318419669289142,0.0019613797776401043,-0.0008346255635842681
1783696327631300900,1.61930078125,-0.00026643890305422246,-0.002768394537270069,-0.00018934160470962524
1783696327641263600,1.629263671875,0.001304197357967496,0.0019286382012069225,-0.00039165839552879333
1783696327651227000,1.639226806640625,0.00003253802424296737,0.000995732843875885,0.000275463389698416
1783696327661190000,1.64918994140625,0.0009931332897394896,-0.0006368393078446388,0.00029629317577928305
1783696327671153700,1.659153564453125,0.001051190192811191,0.0015565401408821344,-0.0010102535597980022
1783696327681117000,1.669116943359375,-0.0002671869588084519,0.0018729951698333025,0.0009887710912153125
1783696327691080000,1.679079833984375,-0.0006964885396882892,-0.001071129459887743,0.0016471045091748238
1783696327701044000,1.6890439453125,0.0015409135958179832,0.0009013920207507908,-0.0015161721967160702
1783696327711007000,1.699007080078125,-0.0008269029203802347,-0.0006461709272116423,0.0013794827973470092
1783696327720970000,1.708969970703125,-0.00023999133554752916,-0.0015268664574250579,0.0003323252312839031
1783696327730934000,1.71893408203125,0.0015989213716238737,0.00020498712547123432,-0.0010088427225127816
1783696327740896800,1.728896728515625,0.0015512631507590413,-0.0003221608931198716,0.00015046633780002594
1783696327750859800,1.73885986328125,-0.0006024352042004466,-0.0016864981735125184,0.0016460976330563426
1783696327760822800,1.74882275390625,0.0009959887247532606,0.0018831302877515554,-0.0012894112151116133
1783696327770786800,1.758786865234375,-0.0014131066855043173,-0.0005733695579692721,0.0006722731050103903
1783696327780749800,1.768749755859375,-0.0007414416177198291,-0.0007326154736801982,0.0006730252644047141
1783696327790712800,1.778712890625,0.00034139968920499086,0.0016043083742260933,0.0008474623318761587
1783696327800676900,1.7886767578125,-0.0009533838019706309,-0.0014932763297110796,0.0007411039550788701
1783696327810640000,1.798639892578125,0.0007742088055238128,-0.0005025803111493587,0.0013461741618812084
1783696327820603000,1.808602783203125,-0.001258733682334423,0.0023021125234663486,-0.0018409647746011615
1783696327830567000,1.81856689453125,-0.0010326312622055411,0.0002629301743581891,0.0011409767903387547
1783696327840530000,1.828530029296875,0.0007254048250615597,-0.001224956358782947,-0.0001685888273641467
1783696327850492700,1.83849267578125,0.0008891891920939088,0.003416134510189295,-0.002423753496259451
1783696327860455700,1.84845556640625,-0.0018358796369284391,-0.0011703643249347806,-0.000007602502591907978
1783696327870419700,1.858419677734375,0.0015244970563799143,-0.0020912853069603443,0.0005348834092728794
1783696327880382700,1.8683828125,0.00022287416504696012,0.0011670129606500268,-0.00016581034287810326
1783696327890345700,1.878345703125,-0.0015348121523857117,-0.0019795119296759367,0.000423813471570611
1783696327900309800,1.888309814453125,-0.001253671944141388,0.0006128407549113035,-0.0016059632180258632
1783696327910272800,1.898272705078125,-0.000016100966604426503,-0.00006599898915737867,0.0006273636245168746
1783696327920235800,1.90823583984375,0.0008520735427737236,-0.002141491509974003,-0.000044254702515900135
1783696327930199800,1.91819970703125,0.00035113294143229723,-0.00006768805906176567,-0.0009819538099691272
1783696327940162800,1.928162841796875,-0.000718811119440943,0.0014146107714623213,-0.001105551142245531
1783696327950125600,1.93812548828125,-0.0006511668325401843,-0.0019018237944692373,-0.0003177882172167301
1783696327960088800,1.9480888671875,0.0008187593193724751,-0.0021562641486525536,0.001312687760218978
1783696327970052600,1.958052490234375,-0.0009495795238763094,0.0012041125446557999,0.0007590166060253978
1783696327980015900,1.968015869140625,0.0008945585577748716,-0.002454928122460842,-0.0015300365630537271
1783696327989979000,1.977978759765625,-0.0009486152557656169,0.0009267539717257023,-0.00050898059271276
1783696327999942700,1.987942626953125,0.000568182033021003,0.00032897491473704576,-0.0005229620728641748
1783696328009906000,1.997906005859375,-0.0006933573167771101,-0.0006369536276906729,-0.0002478575333952904
1783696328019869000,2.007868896484375,0.0000444189936388284,0.0001933195162564516,-0.0003212197916582227
1783696328029833000,2.0178330078125,0.00014908122830092907,0.000831146608106792,0.001551781315356493
1783696328039796000,2.0277958984375,-0.00026506607537157834,-0.0000551177654415369,0.000147960614413023
1783696328049759000,2.037759033203125,-0.00012152170529589057,-0.00004553038161247969,-0.00023233878891915083
1783696328059721700,2.0477216796875,-0.0010420982725918293,-0.0009341988479718566,0.0012573724379763007
1783696328069685800,2.057685791015625,-0.00008016455103643239,-0.002310254145413637,-0.00003639119677245617
1783696328079648800,2.067648681640625,-0.0007372612017206848,0.0021072595845907927,0.0009879546705633402
1783696328089611800,2.07761181640625,-0.001228880719281733,-0.0020278305746614933,0.001427642535418272
1783696328099575800,2.087575927734375,-0.0008372211013920605,-0.0010800036834552884,-0.0006454107351601124
1783696328109538800,2.097538818359375,0.00029275816632434726,0.0016971406294032931,-0.0007263708394020796
1783696328119501800,2.107501708984375,0.00004554344923235476,-0.0004753685789182782,-0.00004236423410475254
1783696328129465900,2.1174658203125,-0.00015818836982361972,0.0005598020507022738,0.0014119880506768823
1783696328139428900,2.127428955078125,-0.0012377083767205477,0.0008979730773717165,-0.0006401598220691085
1783696328149392000,2.137391845703125,-0.0003958831075578928,-0.00045491266064345837,-0.0012660027714446187
1783696328159356000,2.14735595703125,-0.0007235750090330839,0.0007629652391187847,-0.0015854501398280263
1783696328169319000,2.15731884765625,-0.0005139842396602035,0.002106530126184225,-0.0006104668136686087
1783696328179281700,2.16728173828125,-0.001463322201743722,-0.0012631783029064536,0.0010531815933063626
1783696328189244700,2.17724462890625,0.0009532301337458193,0.000723007193300873,0.00051282619824633
1783696328199208700,2.187208740234375,-0.0004128282598685473,0.0007138325599953532,0.0010996354976668954
1783696328209171700,2.197171630859375,-0.0014402758097276092,-0.00220472551882267,0.0005518232937902212
1783696328219134700,2.207134765625,-0.0008304920047521591,-0.0001636516535654664,-0.00181638787034899
1783696328229098800,2.2170986328125,-0.001906941644847393,-0.00016232009511440992,0.00038418214535340667
1783696328239061800,2.227061767578125,-0.00029481510864570737,-0.001996736042201519,0.00016275595407932997
1783696328249024800,2.237024658203125,-0.0009968243539333344,0.0008597704581916332,0.0002538360422477126
1783696328258987800,2.24698779296875,0.0007910047424957156,-0.0008190321968868375,-0.00011508341412991285
1783696328268951800,2.256951904296875,-0.0012079640291631222,-0.0024544792249798775,0.00007906102109700441
1783696328278914800,2.266914794921875,-0.00034918071469292045,0.002589009702205658,0.00024949730141088367
1783696328288877800,2.2768779296875,0.0019448661478236318,0.0018071054946631193,-0.0006288131698966026
1783696328298841600,2.286841552734375,0.00020103171118535101,-0.002163499593734741,-0.0015738870715722442
1783696328308804900,2.296804931640625,-0.0004535733023658395,0.0009870199719443917,0.0005193575052544475
1783696328318767900,2.306767822265625,0.00026607158361002803,0.0005487424787133932,0.0007075324538163841
1783696328328731600,2.316731689453125,-0.0013621849939227104,-0.0018819246906787157,-0.00024721084628254175
1783696328338695000,2.32669482421875,-0.0005907689919695258,0.00017256150022149086,0.0002226385404355824
1783696328348658000,2.336657958984375,0.0012886237818747759,-0.0008184007601812482,-0.0004175853682681918
1783696328358621000,2.346620849609375,-0.0005650739185512066,-0.0005472296616062522,-0.001761317951604724
1783696328368585000,2.3565849609375,0.000015495199477300048,0.00047169579192996025,-0.00148195237852633
1783696328378548000,2.3665478515625,0.0003040861338376999,-0.0010940533829852939,-0.000550978584215045
1783696328388510700,2.3765107421875,0.00044390204129740596,-0.0019252259517088532,-0.0015818882966414094
1783696328398474800,2.386474853515625,0.000036273704608902335,0.0014431815361604095,0.0005460996180772781
1783696328408437800,2.396437744140625,-0.0000052716059144586325,-0.0006966684013605118,0.0007117482018657029
1783696328418400800,2.40640087890625,-0.0007953637978062034,-0.0008356716716662049,0.0009511603275313973
1783696328428364800,2.41636474609375,0.00008534357766620815,0.001724957604892552,-0.000670970999635756
1783696328438327800,2.426327880859375,0.00036654845462180674,-0.0026725400239229202,-0.000038308557122945786
1783696328448290800,2.436290771484375,-0.00010456470772624016,-0.0005225701024755836,0.0004362667095847428
1783696328458253800,2.44625390625,0.0018817735835909843,0.002131562912836671,-0.00020694185514003038
1783696328468217900,2.4562177734375,0.001809601904824376,-0.0010591703467071056,0.0025568867567926645
1783696328478180900,2.466180908203125,0.00026302432524971664,-0.00008673977572470903,-0.0012042517773807049
1783696328488144000,2.476143798828125,0.0006840700516477227,0.0014709430979564786,0.0006642219959758222
1783696328498108000,2.48610791015625,0.0010965289548039436,-0.003442221786826849,-0.000848794006742537
1783696328508070700,2.496070556640625,-0.0014127014437690377,0.001855072216130793,-0.001357457716949284
1783696328518033700,2.50603369140625,0.00021939806174486876,0.0005155756371095777,-0.00011692359112203121
1783696328527997700,2.515997802734375,0.0005656090215779841,-0.0007693995721638203,-0.000568595714867115
1783696328537960700,2.525960693359375,-0.0007975694024935365,0.0008521174313500524,-0.00029379758052527905
1783696328547923700,2.535923828125,-0.0008777305483818054,0.0007261498831212521,0.00034775794483721256
1783696328557886700,2.54588671875,-0.00027425825828686357,-0.002805201569572091,-0.0004658377729356289
1783696328567850800,2.555850830078125,0.0009866367327049375,0.0018145680660381913,-0.0006403113948181272
1783696328577813800,2.565813720703125,-0.0005316928145475686,0.001489540678448975,-0.00001728686038404703
1783696328587777000,2.575777099609375,-0.00031597676570527256,-0.0018636455060914159,-0.0010197005467489362
1783696328597740800,2.58574072265625,0.00008615539991296828,0.0009700973751023412,0.0017038860823959112
1783696328607703800,2.595703857421875,-0.0006848297198303044,-0.00039264222141355276,0.0009432872175239027
1783696328617666800,2.605666748046875,0.00016929057892411947,-0.00158250005915761,-0.0014015964698046446
1783696328627629800,2.6156298828125,0.0002763496886473149,0.0018346018623560667,0.0003843192826025188
1783696328637593900,2.62559375,-0.0008547349716536701,-0.00038988504093140364,-0.0003151001874357462
1783696328647556900,2.635556884765625,0.000522918242495507,-0.00037763442378491163,0.00013044668594375253
1783696328657519900,2.645519775390625,0.00008479281677864492,0.0009973527630791068,0.00011364009696990252
1783696328667484000,2.65548388671875,0.0012208973057568073,-0.0009875011164695024,0.0017549463082104921
1783696328677447000,2.665447021484375,-0.0003743236302398145,-0.0001080601941794157,0.00091113883536309
1783696328687410000,2.675409912109375,-0.0005149384960532188,0.002466950099915266,-0.000023897038772702217
1783696328697374000,2.6853740234375,-0.0014584906166419387,-0.001692464342340827,0.0007276572287082672
1783696328707337000,2.6953369140625,-0.00003982463385909796,-0.0013694227673113346,0.0002086071763187647
1783696328717299700,2.7052998046875,-0.00038501532981172204,0.0008016795618459582,-0.0006102351471781731
1783696328727262700,2.7152626953125,-0.0021573491394519806,-0.0014827800914645195,-0.0007212889613583684
1783696328737226800,2.725226806640625,-0.00009709093137644231,-0.0005628969520330429,-0.001764958375133574
1783696328747189800,2.735189697265625,-0.00040362076833844185,-0.000055032200179994106,0.0007759635336697102
1783696328757152800,2.74515283203125,0.00011570716742426157,-0.0007029322441667318,-0.00019504292868077755
1783696328767116800,2.75511669921875,0.0001167724549304694,-0.0004778951406478882,-0.0013071788707748055
1783696328777079800,2.765079833984375,-0.0005060631665401161,0.0000961825717240572,0.0002158178249374032
1783696328787042800,2.775042724609375,0.0007386983488686383,-0.001377344480715692,-0.0005807336419820786
1783696328797005800,2.785005859375,-0.00020825545652769506,0.001300753210671246,0.0002606709022074938
1783696328806969900,2.794969970703125,-0.0006018707063049078,0.0014770544366911054,0.0005845112609677017
1783696328816932900,2.804932861328125,0.00026554346550256014,-0.0015289107104763389,-0.0008371310541406274
1783696328826895600,2.8148955078125,0.001731613650918007,0.0017704794881865382,-0.00016388390213251114
1783696328836859600,2.824859619140625,-0.0003680842346511781,0.00013215304352343082,0.0004890394047833979
1783696328846822700,2.83482275390625,-0.00018379351240582764,-0.001789317699149251,-0.0009155117440968752
1783696328856785700,2.84478564453125,0.001039566588588059,0.0007245483575388789,-0.000256621977314353
1783696328866749700,2.854749755859375,-0.0009050735970959067,-0.00043552450370043516,-0.0007676825625821948
1783696328876712700,2.864712646484375,-0.00038023415254428983,-0.000998547999188304,0.00034504971699789166
1783696328886675700,2.87467578125,0.000008321047062054276,0.001598833012394607,0.0004638266982510686
1783696328896639000,2.884638916015625,-0.0005599703872576356,0.00004855345468968153,-0.0007118622306734324
1783696328906602800,2.894602783203125,-0.0012020585127174854,-0.001981307752430439,0.000008789240382611752
1783696328916566000,2.90456591796875,0.0015239811036735773,0.0010656698141247034,-0.0017756118904799223
1783696328926528800,2.91452880859375,0.0014978821855038404,0.0017474389169365168,0.002069193636998534
1783696328936492800,2.924492919921875,-0.001207523513585329,-0.0003760289400815964,0.0012321665417402983
1783696328946455800,2.934455810546875,0.0004122110258322209,0.0021430552005767822,0.00009233364835381508
1783696328956418800,2.944418701171875,0.0003624517994467169,0.0010102661326527596,0.0000828856136649847
1783696328966381800,2.9543818359375,-0.00015553299454040825,-0.0018489034846425056,0.0005731735727749765
1783696328976345900,2.964345947265625,-0.0009373704669997096,0.0009704421390779316,0.0009270009468309581
1783696328986308900,2.974308837890625,-0.0008452251204289496,-0.0008202674798667431,0.000795707106590271
1783696328996271900,2.98427197265625,-0.001128108473494649,0.001657304004766047,-0.0007382165640592575
1783696329006236000,2.99423583984375,0.0002969490014947951,0.0006855165120214224,0.0002178582362830639
1783696329016199000,3.004198974609375,0.0014137321850284934,-0.0009396164678037167,-0.0010385109344497323
1783696329026162000,3.014161865234375,0.00014020848902873695,0.0010830543469637632,-0.0008148053893819451
1783696329036126000,3.0241259765625,-0.0007515518227592111,0.0012758108787238598,0.0017672264948487282
1783696329046088700,3.034088623046875,-0.00034861554740928113,-0.0017801664071157575,0.0014167544431984425
1783696329056051700,3.0440517578125,-0.0014092909405007958,0.0004311761585995555,-0.00008593709208071232
1783696329066014700,3.0540146484375,0.00021204151562415063,0.0000977484742179513,0.0023793510627001524
1783696329075978800,3.063978759765625,0.0006427749758586287,-0.001972246915102005,-0.00023105705622583628
1783696329085941800,3.073941650390625,0.00115783023647964,0.00031940301414579153,-0.0002646128414198756
1783696329095904800,3.08390478515625,0.0008948987815529108,0.0014067115262150764,-0.00025992572773247957
1783696329105868800,3.093868896484375,0.000429910869570449,-0.0030088096391409636,0.000541952031198889
1783696329115831800,3.103831787109375,0.0012030520010739565,0.0005015920614823699,-0.0018756187055259943
1783696329125794800,3.113794921875,-0.0004438468022271991,0.000016630510799586773,0.00182084902189672
1783696329135757800,3.1237578125,-0.0016263934085145593,-0.0021144605707377195,0.000722581404261291
1783696329145721900,3.133721923828125,-0.0013499573105946183,0.001879215706139803,-0.0007589351153001189
1783696329155684600,3.1436845703125,-0.0010638191597536206,-0.00067038310226053,0.0005766125395894051
1783696329165648000,3.15364794921875,0.0006342122796922922,-0.001253881840966642,-0.0011704210191965103
1783696329175611600,3.163611572265625,-0.000019840372260659933,0.0018878671107813716,-0.0008170062210410833
1783696329185574700,3.17357470703125,0.0011058778036385775,0.0006827866891399026,0.001156928832642734
1783696329195538000,3.183537841796875,-0.0007185387657955289,-0.00006270408630371094,-0.0018856126116588712
1783696329205501000,3.1935009765625,-0.0004021552740596235,0.0017796708270907402,0.00010643189307302237
1783696329215464700,3.203464599609375,-0.0002342590451007709,-0.0011352079454809427,0.0004473671433515847
1783696329225428000,3.213427978515625,0.0003407174372114241,-0.0016385454218834639,0.0003040891024284065
1783696329235391000,3.223390869140625,0.0010325437178835273,0.0018210485577583313,0.0009105356875807047
1783696329245355000,3.23335498046875,0.001087937387637794,-0.0014945869334042072,0.00009214633610099554
1783696329255318000,3.243318115234375,0.0003759524552151561,0.00029186171013861895,-0.0006518962327390909
1783696329265280800,3.25328076171875,0.0008633109973743558,0.0027952331583946943,-0.00023963896092027426
1783696329275243800,3.263243896484375,-0.0005624354816973209,-0.0017606839537620544,0.0007143764523789287
1783696329285207800,3.273207763671875,-0.0007041156641207635,-0.000013117794878780842,-0.0013985754922032356
1783696329295170800,3.2831708984375,0.00022269433247856796,0.0027667596004903316,0.0004679196863435209
1783696329305133800,3.2931337890625,0.0007457392057403922,-0.0005813664756715298,-0.0008849662262946367
1783696329315097900,3.303097900390625,0.0006122873746789992,-0.00012666964903473854,-0.001025971956551075
1783696329325060900,3.313060791015625,-0.000816498592030257,0.002649941947311163,0.002047049580141902
1783696329335023900,3.32302392578125,0.0005720886401832104,-0.0018984334310516715,0.0013322449522092938
1783696329344988000,3.33298779296875,-0.0002745302626863122,0.0005580662982538342,-0.0005950847407802939
1783696329354951000,3.342950927734375,-0.00019916851306334138,0.0018691481091082096,0.00032829400151968
1783696329364913700,3.35291357421875,0.0008056421065703034,-0.0013708535116165876,0.000631894392427057
1783696329374876700,3.362876708984375,-0.0010623333510011435,0.0013267239555716515,-0.0017771157436072826
1783696329384840700,3.3728408203125,0.0001587259757798165,-0.0011369662825018167,0.001256491057574749
1783696329394803700,3.3828037109375,-0.0001116191124310717,0.0005018019583076239,0.00013950816355645657
1783696329404766700,3.3927666015625,-0.00022640134557150304,0.0014232556568458676,0.001027672435157001
1783696329414730800,3.402730712890625,0.000166366808116436,-0.0008016036590561271,-0.00005680148024111986
1783696329424693800,3.41269384765625,0.00042922081775031984,-0.0011693862034007907,-0.00147972849663347
1783696329434656800,3.42265673828125,0.0006409872439689934,0.003178526647388935,-0.0014329071855172515
1783696329444619800,3.432619873046875,0.0008726821979507804,0.0002948557958006859,0.00012184627121314406
1783696329454583800,3.442583740234375,0.00024009353364817798,-0.0011639152653515339,-0.0020875174086540937
1783696329464546800,3.452546875,0.00025820304290391505,0.0016491817077621818,-0.0013005533255636692
1783696329474509800,3.462509765625,-0.0013234394136816263,0.0015649551060050726,-0.000718640279956162
1783696329484473600,3.4724736328125,-0.0009436726104468107,-0.0026686720084398985,0.0005104085430502892
1783696329494436900,3.482436767578125,0.00008448335574939847,0.002079977188259363,-0.0018654443556442857
1783696329504400000,3.49239990234375,-0.0002412212488707155,-0.000485179596580565,0.0013628395972773433
1783696329514363000,3.50236279296875,0.0011038891971111298,-0.0016199203673750162,0.001006391947157681
1783696329524327000,3.512326904296875,0.00016139645595103502,0.0010150112211704254,-0.0007688712794333696
1783696329534290200,3.522290283203125,-0.0015299660153687,-0.0013422677293419838,0.00005049537867307663
1783696329544253000,3.5322529296875,0.00012758548837155104,-0.000741192139685154,-0.001162574510090053
1783696329554217000,3.542217041015625,0.00037645187694579363,0.0035440027713775635,-0.0002723640063777566
1783696329564180000,3.552179931640625,-0.0006611156859435141,-0.0012033481616526842,-0.0009517364669591188
1783696329574143000,3.56214306640625,0.0012434129603207111,0.0009450281504541636,-0.0013559117214754224
1783696329584106000,3.57210595703125,0.0013347594067454338,0.0019485072698444128,0.00006595009472221136
1783696329594070000,3.582070068359375,0.0007431742851622403,-0.0024651363492012024,-0.001174891833215952
1783696329604033000,3.592032958984375,-0.00022168892610352486,0.0001239889534190297,-0.0006057742284610868
1783696329613996000,3.60199609375,0.00023615517420694232,0.0005892489571124315,-0.001028451370075345
1783696329623960000,3.6119599609375,-0.00011937684030272067,-0.0003740163519978523,0.0007880908087827265
1783696329633923000,3.621923095703125,-0.0003920207964256406,0.00015100580640137196,-0.0011579463025555015
1783696329643886000,3.631885986328125,-0.00028256489895284176,0.0014002947136759758,0.0025973771698772907
1783696329653848800,3.641848876953125,-0.001196898054331541,-0.0023686911445111036,0.000635229516774416
1783696329663812900,3.651812744140625,0.00017462993855588138,0.0006132503040134907,0.00010392884723842144
1783696329673775900,3.66177587890625,-0.0024814524222165346,-0.0000019423896446824074,-0.0004929167916998267
1783696329683739000,3.67173876953125,-0.0008934094221331179,-0.0027066487818956375,0.00048606126802042127
1783696329693703000,3.681702880859375,0.0007579147350043058,0.0021291866432875395,0.0016963689122349024
1783696329703666000,3.691666015625,-0.00003277779615018517,0.0008402166422456503,0.00011844595428556204
1783696329713629000,3.70162890625,0.0005020223325118423,-0.0011449342127889395,-0.000033506774343550205
1783696329723592000,3.711592041015625,0.0007928394479677081,0.002086545340716839,-0.00027665344532579184
1783696329733556000,3.721555908203125,0.0006736762588843703,-0.00048270414117723703,-0.0015139139723032713
1783696329743519000,3.73151904296875,0.002159453695639968,-0.001803632010705769,-0.00003000069409608841
1783696329753482000,3.74148193359375,0.000027076428523287177,0.0012898632558062673,-0.0007467834511771798
1783696329763446000,3.751446044921875,-0.00019955859170295298,-0.0007290792418643832,0.0021099895238876343
1783696329773408800,3.76140869140625,0.0004774862027261406,-0.0010514904279261827,-0.0007054505404084921
1783696329783372000,3.7713720703125,-0.0013989771250635386,0.001857480499893427,-0.0012037280248478055
1783696329793335000,3.7813349609375,0.0009030923247337341,-0.0024233332369476557,0.0014227766077965498
1783696329803299000,3.791299072265625,0.0002615367993712425,-0.0008637860883027315,0.0009513969998806715
1783696329813262000,3.801261962890625,-0.0003155552549287677,0.0026719807647168636,0.0006774433422833681
1783696329823225000,3.81122509765625,0.0002746012178249657,-0.0018178427126258612,-0.0003286988940089941
1783696329833189000,3.821189208984375,-0.00020161968132015318,0.00021414225921034813,-0.0012640663189813495
1783696329843152100,3.831152099609375,0.00034166514524258673,0.0020597127731889486,-0.0004020009655505419
1783696329853115100,3.841115234375,0.00045947430771775544,-0.00039915076922625303,-0.0004339022561907768
1783696329863078000,3.851077880859375,-0.0009104557102546096,-0.0013293930096551776,-0.0005497498204931617
1783696329873042000,3.8610419921875,-0.00023035738558974117,0.0003468362847343087,0.002124270424246788
1783696329883005000,3.8710048828125,-0.00021064998873043805,-0.002059063408523798,0.0013021527556702495
1783696329892968000,3.880968017578125,-0.00013215761282481253,0.0008667244692333043,-0.0016728201881051064
1783696329902932000,3.890931884765625,0.0010494869202375412,0.0017903087427839637,-0.0008059613173827529
1783696329912895000,3.90089501953125,-0.0012206328101456165,-0.003751637414097786,0.000998234492726624
1783696329922858000,3.91085791015625,-0.0006528468802571297,0.0009754735510796309,-0.0002193627879023552
1783696329932822000,3.920822021484375,-0.00008269591489806771,0.000031817005947232246,-0.0006242189556360245
1783696329942785000,3.930784912109375,0.0009450179641135037,-0.0023189554922282696,0.0013015128206461668
1783696329952748000,3.940748046875,0.0007098732749000192,0.0021948188077658415,0.00017055385978892446
1783696329962711000,3.9507109375,-0.0003117153246421367,0.0008722930797375739,-0.0009048306383192539
1783696329972675000,3.960675048828125,0.0002787323319353163,-0.0014869284350425005,-0.0014037985820323229
1783696329982637800,3.970637939453125,-0.00030955998227000237,-0.00017532159108668566,0.0018553780391812325
1783696329992600800,3.980600830078125,0.0010815301211550832,0.0004019465995952487,0.0005142216105014086
1783696330002564900,3.99056494140625,-0.0011986683821305633,-0.0011301698395982385,0.001211170805618167
1783696330012527900,4.00052783203125,-0.000021564352209679782,0.0016505657695233822,0.00016326666809618473
1783696330022491000,4.010490966796875,-0.0026474411133676767,-0.0022147460840642452,0.0010988351423293352
1783696330032454000,4.020453857421875,-0.0007290457142516971,-0.001209380803629756,-0.00041555275674909353
1783696330042418000,4.03041796875,-0.000609469716437161,0.000926207983866334,-0.0005484444554895163
1783696330052381000,4.040380859375,-0.0005714363069273531,-0.0001174015924334526,0.00015889678616076708
1783696330062344200,4.05034423828125,-0.00011869894660776481,0.00011828809510916471,-0.0010081003420054913
1783696330072308000,4.060307861328125,0.0009498854633420706,0.003477060003206134,-0.0009977660374715924
1783696330082271000,4.07027099609375,-0.0012043454917147756,-0.0015837448881939054,0.001112522673793137
1783696330092234000,4.08023388671875,-0.002126422245055437,-0.000473016407340765,-0.004028254188597202
1783696330102197000,4.090197021484375,-0.0006041594315320253,0.0010417895391583443,-0.00011154334060847759
1783696330112161000,4.1001611328125,-0.0011695862049236894,-0.0018985194619745016,0.00007809593807905912
1783696330122124000,4.1101240234375,-0.00003561223275028169,-0.002059640595689416,0.00037104368675500154
1783696330132087000,4.120087158203125,-0.00022857089061290026,0.0012173030991107225,0.0011484837159514427
1783696330142051000,4.130051025390625,0.001178909675218165,-0.0029063355177640915,0.0005833609611727297
1783696330152014000,4.14001416015625,0.0010014916770160198,0.000906118075363338,0.00017863180255517364
1783696330161977000,4.14997705078125,-0.0013463511131703854,0.002057402627542615,0.0007307050982490182
1783696330171941000,4.159941162109375,-0.0002658151788637042,-0.0010453184368088841,-0.00009959517046809196
1783696330181904100,4.169904052734375,-0.00018352348706685007,0.0016607195138931274,-0.0014450240414589643
1783696330191867000,4.179866943359375,-0.00035386180388741195,0.002881142543628812,-0.0005516348173841834
1783696330201830000,4.189829833984375,0.0006187246181070805,-0.0015325142303481698,0.0016297603724524379
1783696330211794000,4.1997939453125,-0.00014446041313931346,-0.00022640405222773552,-0.00041768362279981375
1783696330221757000,4.2097568359375,-0.0006081167375668883,0.0007280728896148503,0.001420163782313466
1783696330231720000,4.219719970703125,0.0002537184045650065,-0.0025318595580756664,0.000458418857306242
1783696330241684000,4.22968408203125,0.00015837721002753824,0.00019255420193076134,-0.001799675403162837
1783696330251647000,4.23964697265625,0.0005794264143332839,0.00044652249198406935,0.001605513971298933
1783696330261610000,4.24960986328125,0.00045345889520831406,-0.002419837983325124,-0.000986008089967072
1783696330271574000,4.259573974609375,0.0018463344313204288,0.00022449169773608446,0.00002217222936451435
1783696330281537000,4.269537109375,-0.00006581521301995963,-0.000374453142285347,0.0004996770294383168
1783696330291500000,4.2795,-0.0001353562402073294,-0.003046186175197363,0.00028350536013022065
1783696330301462800,4.289462890625,-0.0011721248738467693,0.0022172853350639343,-0.00009040243458002806
1783696330311426800,4.2994267578125,0.00040121027268469334,0.00023555837105959654,-0.00037523044738918543
1783696330321389800,4.309389892578125,-0.0006406183820217848,0.00024328159634023905,0.000004802597686648369
1783696330331352800,4.319352783203125,-0.00018094404367730021,0.001646429649554193,-0.0006650785217061639
1783696330341316900,4.32931689453125,0.0005431694444268942,-0.00048170238733291626,-0.0008214061381295323
1783696330351279900,4.33927978515625,0.00022154103498905897,-0.0016679392429068685,-0.0005791820585727692
1783696330361243100,4.3492431640625,-0.002226702868938446,0.0024466444738209248,-0.0010058204643428326
1783696330371206100,4.3592060546875,0.0015460525173693895,-0.0018102499889209867,0.000055835582315921783
1783696330381170000,4.369169921875,0.0005486987065523863,0.00009737221989780664,0.0001431872369721532
1783696330391133200,4.37913330078125,-0.0009959907038137317,0.0019018237944692373,-0.0002851272001862526
1783696330401096000,4.389095947265625,0.0009827379835769534,-0.002085727173835039,0.0007835993310436606
1783696330411060000,4.39906005859375,0.00007177915540523827,0.0004706167383119464,-0.00039138016290962696
1783696330421023000,4.40902294921875,0.0004107995773665607,0.000234127976000309,0.0012153048301115632
1783696330430986000,4.418986083984375,0.000532056437805295,-0.0015285291010513902,-0.0006241373484954238
1783696330440949000,4.428948974609375,0.0005179416621103883,0.0005316922906786203,-0.0004872508579865098
1783696330450913000,4.4389130859375,-0.00040268077282235026,0.001284274971112609,-0.001096900668926537
1783696330460876000,4.4488759765625,-0.0017630234360694885,-0.0008324055233970284,-0.0007237917743623257
1783696330470839000,4.458839111328125,0.00029624643502756953,0.0006926975911483169,0.0015466088661924005
1783696330480803000,4.468802978515625,-0.0006462462479248643,0.003034681547433138,0.0007524541579186916
1783696330490766000,4.47876611328125,-0.00015972905384842306,-0.002538001397624612,-0.0004180573159828782
1783696330500729000,4.48872900390625,-0.0005347020924091339,0.0010775062255561352,-0.0009227263508364558
1783696330510693000,4.498693115234375,0.0006234619650058448,0.0008897235384210944,0.001466776942834258
1783696330520656000,4.50865576171875,-0.0011001358507201076,-0.002119382144883275,-0.0008736089803278446
1783696330530619600,4.51861962890625,0.000626911991275847,0.0015872485237196088,-0.00033069460187107325
1783696330540582700,4.528582763671875,0.0002447483711875975,0.000653810566291213,0.0005521433195099235
1783696330550546700,4.538546630859375,0.0006768121966160834,-0.0022329874336719513,-0.0005806143162772059
1783696330560509700,4.548509765625,0.0010251536732539535,0.0022664230782538652,0.0003150067641399801
1783696330570472700,4.55847265625,-0.0024438798427581787,-0.0007539930520579219,0.0005348025588318706
1783696330580436700,4.568436767578125,-0.0013104386162012815,-0.00008021341636776924,-0.001085198251530528
1783696330590399500,4.5783994140625,-0.0006949463859200478,0.0012048175558447838,-0.00044174480717629194
1783696330600362500,4.588362548828125,-0.00023262166359927505,-0.001196022261865437,0.0006943597691133618
1783696330610326500,4.598326416015625,0.001405830611474812,-0.0005033343331888318,-0.0017052408074960113
1783696330620289500,4.60828955078125,0.0003560124896466732,0.0015733985928818583,-0.0014833995373919606
1783696330630252500,4.61825244140625,-0.00021361293329391629,-0.0004197683883830905,0.0002447745646350086
1783696330640215600,4.628215576171875,0.000012755743227899075,0.0001932913437485695,-0.0008870689198374748
1783696330650179600,4.6381796875,-0.00207614921964705,0.0010282061994075775,0.0005403534742072225
1783696330660142600,4.648142578125,-0.000009003677405416965,-0.00138594931922853,-0.0002623233012855053
1783696330670105600,4.658105712890625,0.000009514275006949902,-0.0017051426693797112,-0.0012150206603109837
1783696330680069600,4.668069580078125,0.0010524081299081445,0.0025418002624064684,-0.0006315220380201936
1783696330690032600,4.67803271484375,0.0010063671506941319,-0.0015726761193946004,0.0008294560248032212
1783696330699995400,4.687995361328125,-0.00039685238152742386,-0.0011939745163545012,-0.001971124205738306
1783696330709958700,4.697958740234375,-0.000026754423743113875,0.003988505806773901,-0.0006364553701132536
1783696330719922400,4.70792236328125,0.0014555610250681639,-0.0017751073464751244,0.001641346258111298
1783696330729885700,4.7178857421875,-0.00018845978775061667,0.0007446756935678422,-0.0009633202571421862
1783696330739848700,4.7278486328125,0.0005838569486513734,0.0010362918255850673,0.0006244564428925514
1783696330749812500,4.7378125,0.0006795567460358143,-0.0015645555686205626,-0.0001029008999466896
1783696330759775700,4.747775634765625,-0.0007063522934913635,-0.00029422773513942957,0.0000014950055629014969
1783696330769738800,4.75773876953125,0.0009966535726562142,0.0013238087994977832,0.001848876941949129
1783696330779701800,4.76770166015625,-0.0006561041809618473,-0.0014509386382997036,0.0013806931674480438
1783696330789665800,4.777665771484375,0.00024957722052931786,0.0009969992097467184,0.0010479865595698357
1783696330799628500,4.787628662109375,-0.0002689402608666569,-0.0005020941607654095,0.0021044625900685787
1783696330809591600,4.797591552734375,-0.0009823793079704046,-0.0005052350461483002,0.0007466573733836412
1783696330819555600,4.8075556640625,0.002241377020254731,0.0020607206970453262,-0.0004104861291125417
1783696330829518600,4.8175185546875,-0.00022846696083433926,-0.00010204012505710125,0.0010097712511196733
1783696330839481600,4.827481689453125,-0.0011587091721594334,-0.002461601048707962,0.0029658630955964327
1783696330849445600,4.837445556640625,-0.0009764969581738114,0.0010919939959421754,-0.0006913607940077782
1783696330859408600,4.84740869140625,0.00019342967425473034,0.0009018442942760885,-0.0016682082787156105
1783696330869371600,4.85737158203125,0.00028109928825870156,-0.000558340921998024,-0.0011242093751206994
1783696330879334700,4.867334716796875,-0.0005247732624411583,0.001815867144614458,-0.0006238014902919531
1783696330889298700,4.877298583984375,-0.0014336310559883714,-0.00130524265114218,0.0021977501455694437
1783696330899261700,4.88726171875,0.0005126071046106517,-0.0013739523710682988,0.0012097173603251576
1783696330909224400,4.897224365234375,-0.0004148209118284285,0.0007658768445253372,-0.00119606195949018
1783696330919188500,4.9071884765625,-0.0004659536061808467,-0.0015100606251507998,0.00043698842637240887
1783696330929151500,4.9171513671875,-0.00025701342383399606,0.0007231080089695752,-0.000033378018997609615
1783696330939114500,4.927114501953125,0.0020428926218301058,0.0014133993536233902,-0.0014139607083052397
1783696330949077500,4.937077392578125,0.00036157917929813266,-0.00039349147118628025,0.002708889776840806
1783696330959041500,4.94704150390625,0.00043002242455258965,-0.0005655316635966301,0.0012918218271806836
1783696330969004500,4.957004638671875,0.0010398426093161106,0.0027146246284246445,0.001385497977025807
1783696330978967600,4.966967529296875,-0.0008925469592213631,-0.001468668575398624,0.0014672570396214724
1783696330988931600,4.976931640625,0.0004214116488583386,0.00021512270905077457,-0.0008563259616494179
1783696330998894600,4.98689453125,-0.000035853125154972076,0.002126473467797041,0.000040360260754823685
1783696331008857600,4.996857666015625,0.0006323917768895626,-0.0004079811042174697,0.0004591615288518369
1783696331018821600,5.006821533203125,0.001739734085276723,0.00011293310672044754,-0.0001967750722542405
1783696331028784600,5.01678466796875,-0.001204672735184431,0.0018970933742821217,-0.001155288890004158
1783696331038747600,5.02674755859375,0.0006126684020273387,-0.0007008203538134694,-0.0007643369026482105
1783696331048710700,5.036710693359375,-0.0007678379770368338,0.0032275603152811527,-0.0017640170408412814
1783696331058674700,5.0466748046875,0.00003403984010219574,0.001515147858299315,0.00014946423470973969
1783696331068637700,5.0566376953125,-0.00009588032844476402,-0.0013941955985501409,0.0007183751440607011
1783696331078600700,5.0666005859375,-0.00001199074904434383,0.0017363502411171794,0.0005149096250534058
1783696331088564700,5.076564697265625,0.000885389163158834,-0.00018021499272435904,0.0005785759421996772
1783696331098527700,5.08652783203125,-0.0003934607666451484,-0.001924319309182465,0.000040617422200739384
1783696331108490800,5.09649072265625,0.0014276087749749422,0.0037375614047050476,-0.0007559340447187424
1783696331118453500,5.10645361328125,0.0005101909046061337,0.0009684846736490726,-0.0013772334204986691
1783696331128417500,5.11641748046875,0.0005237566074356437,-0.0028039186727255583,-0.0025612185709178448
1783696331138380500,5.126380615234375,0.00001882124342955649,0.0007245035376399755,-0.0007100553484633565
1783696331148343600,5.136343505859375,0.0015168220270425081,-0.00032753509003669024,0.0010328348726034164
1783696331158307600,5.1463076171875,0.0009232034208253026,-0.0011762845097109675,0.0007462786743417382
1783696331168270600,5.1562705078125,-0.0012186606181785464,0.001300601288676262,0.0004928039270453155
1783696331178233600,5.166233642578125,-0.00023142686404753476,9.78587195277214e-7,-0.000010000891052186489
1783696331188196600,5.176196533203125,-0.0015812094788998365,-0.001328455749899149,-0.000016116071492433548
1783696331198160600,5.18616064453125,-0.0012507110368460417,0.0014987561153247952,-0.0005303724901750684
1783696331208123600,5.19612353515625,-0.0009294881019741297,-0.0004171620821580291,0.0016197164077311754
1783696331218086700,5.206086669921875,-0.0004645002190954983,-0.0014387505361810327,0.0007161058019846678
1783696331228050700,5.21605078125,-0.00009904229955282062,0.0009047634666785598,-0.00037563208024948835
1783696331238013400,5.226013427734375,-0.0007142325048334897,-0.0026707963552325964,0.0012933709658682346
1783696331247976400,5.2359765625,-0.0007307995110750198,-0.0011970004998147488,-0.00038456323090940714
1783696331257939500,5.245939453125,-0.0007824648637324572,0.001925555756315589,0.00026285124476999044
1783696331267903500,5.255903564453125,0.0018167987000197172,-0.0014103006105870008,-0.0001732069067656994
1783696331277866500,5.265866455078125,0.0015864352462813258,0.0007809483795426786,-0.0008728192187845707
1783696331287829800,5.275829833984375,0.0001221908605657518,0.0024384832940995693,-0.0010022346395999193
1783696331297793500,5.28579345703125,0.00014589299098588526,-0.0005011139437556267,0.0005868735606782138
1783696331307756500,5.295756591796875,-0.00015898566925898194,0.0001295199617743492,0.0007304617902263999
1783696331317719800,5.3057197265625,-0.0014066766016185284,0.0012376613449305296,0.0008638861472718418
1783696331327682600,5.3156826171875,-0.0006753581110388041,-0.003102096263319254,-0.001073744730092585
1783696331345741600,5.333741455078125,-0.0011494008358567953,0.0013981134397909045,-0.00019676564261317253
1783696331355705600,5.34370556640625,-0.0002533894148655236,-0.0009519513696432114,-0.0004560451488941908
1783696331365668600,5.353668701171875,-0.00025951466523110867,0.0011692564003169537,-0.0015093254623934627
1783696331375631600,5.363631591796875,-0.0005362670635804534,-0.00006769329775124788,0.0009957141010090709
1783696331385594600,5.3735947265625,-0.000011091717169620097,-0.0024315149057656527,0.0012332680635154247
1783696331395558700,5.38355859375,0.00012403636355884373,0.0011837357887998223,-0.0014559169067069888
1783696331405521700,5.393521728515625,0.0006926212809048593,0.0013323401799425483,0.0005465138237923384
1783696331415484700,5.403484619140625,0.0005084833828732371,-0.0006796440575271845,0.00006736395880579948
1783696331425448700,5.41344873046875,0.0005787908448837698,0.0002652454422786832,-0.0001347699435427785
1783696331435411700,5.42341162109375,0.0016624891432002187,0.0014337800676003098,-0.0004834240535274148
1783696331445374500,5.43337451171875,-0.0002898742677643895,-0.003316233865916729,-0.00009060779120773077
1783696331455337500,5.44333740234375,0.0010107239941135049,0.0010768331121653318,-0.0006038153078407049
1783696331465301500,5.453301513671875,-0.000037762540159747005,-0.0003034832188859582,0.0010169845772907138
1783696331475264500,5.463264404296875,0.0014372235164046288,-0.001019817078486085,-0.0004706323379650712
1783696331485227500,5.4732275390625,-0.0010291299549862742,0.0018033998785540462,-0.00005065184086561203
1783696331495191600,5.483191650390625,-0.0001330626109847799,0.00034861720632761717,0.000994357978925109
1783696331505154600,5.493154541015625,-0.00036209446261636913,-0.0006306271534413099,-0.0014128732727840543
1783696331515117600,5.50311767578125,0.00042535466491244733,0.0023309600073844194,0.00169041205663234
1783696331525080600,5.51308056640625,0.000005640453309752047,-0.0006619004998356104,0.0007431256235577166
1783696331535043000,5.52304296875,0.0010846361983567476,-0.0014467337168753147,-0.00123435421846807
1783696331545006000,5.533006103515625,0.00010565815318841487,0.00036528101190924644,-0.0008889422751963139
1783696331554969000,5.542968994140625,-0.0006526542128995061,-0.0016944985836744308,-0.0001438637264072895
1783696331564933000,5.55293310546875,0.0011420499067753553,-0.0009860978461802006,0.000178645015694201
1783696331574896000,5.562896240234375,0.000602223037276417,0.003657235763967037,-2.270098775625229e-8
1783696331584859100,5.572859130859375,0.0021892008371651173,-0.002100252080708742,0.00012434693053364754
1783696331594822100,5.582822265625,0.0007359862793236971,-0.000027851085178554058,-0.00122176599688828
1783696331604786200,5.5927861328125,0.000631590373814106,0.0005513865035027266,-0.000320019549690187
1783696331614749200,5.602749267578125,-0.00043471643584780395,-0.0022896749433130026,-0.00003399886190891266
1783696331624712000,5.6127119140625,0.00031736024538986385,-0.0006209383718669415,-0.0017245735507458448
1783696331634676200,5.62267626953125,0.0005303428042680025,0.0017391340807080269,0.0007789194351062179
1783696331644639000,5.632638916015625,-0.00002492623752914369,-0.0024047442711889744,-0.0002999270800501108
1783696331655225000,5.64322509765625,0.0010478415060788393,0.0004388462984934449,0.00006388803012669086
1783696331665188000,5.65318798828125,-0.0004445939848665148,0.0000367090106010437,0.0006226192344911397
1783696331675151000,5.663151123046875,0.0003286513965576887,-0.002899796236306429,0.0006797375390306115
1783696331685115100,5.673115234375,-0.0003328778257127851,0.0008576578693464398,0.00008212414104491472
1783696331695078100,5.683078125,-0.0008148988708853722,0.0001628516474738717,-0.00013422255869954824
1783696331705041200,5.693041259765625,0.0010844676289707422,-0.0017735327128320932,-0.000535028288140893
1783696331715005200,5.703005126953125,-0.0018429134506732225,0.00001786195207387209,0.0007298578275367618
1783696331724968200,5.71296826171875,0.0007193139172159135,0.001243448699824512,0.0023613101802766323
1783696331734931000,5.722930908203125,0.000684924831148237,-0.0013017755700275302,-0.000684861559420824
1783696331744894000,5.73289404296875,0.00015548837836831808,0.0008846796699799597,-0.00008937867823988199
1783696331754858000,5.74285791015625,-0.00044424168299883604,-0.0003252580063417554,0.0006080339080654085
1783696331764821000,5.752821044921875,-0.0010711498325690627,-0.0012544349301606417,-0.00048199796583503485
1783696331774784000,5.762783935546875,-0.000456853216746822,0.002621173392981291,-0.0011209282092750072
1783696331784748000,5.772748046875,-0.0009530001552775502,-0.001328560640104115,-0.00010093743912875652
1783696331794711000,5.7827109375,0.0013228703755885363,-0.0002024322748184204,0.0006370613700710237
1783696331804674000,5.792674072265625,-0.0000409343047067523,0.0026088005397468805,0.00026688200887292624
1783696331814637300,5.80263720703125,-0.00016338928253389895,-0.002306855982169509,0.0017153812805190682
1783696331824601000,5.81260107421875,0.0009940204909071326,0.00016935134772211313,-0.0012380643747746944
1783696331834564000,5.822564208984375,0.00041673777741380036,0.0028173825703561306,0.000013155513443052769
1783696331844527000,5.832527099609375,0.0007906456012278795,-0.0009485933696851134,0.0004672244540415704
1783696331854491000,5.842490966796875,-0.001914135878905654,0.000022805179469287395,0.0002743572695180774
1783696331864454100,5.8524541015625,-0.0007276975666172802,0.0017011293675750494,0.0008583884919062257
1783696331874417200,5.862417236328125,0.0007038775947876275,-0.0021529870573431253,0.00042410282185301185
1783696331884380200,5.872380126953125,-0.0005408839206211269,0.00043027917854487896,-0.00034528435207903385
1783696331894344200,5.88234423828125,0.0002316798927495256,0.0016330552753061056,0.0013865495566278696
1783696331904307200,5.89230712890625,-0.0007590160239487886,-0.0029257438145577908,-0.00010375538840889931
1783696331914270200,5.902270263671875,0.0009768230374902487,0.0007965114200487733,-0.00032138952519744635
1783696331924234200,5.912234130859375,-0.0002458342642057687,-0.000510035315528512,0.001482635736465454
1783696331934197200,5.922197265625,-0.0013976884074509144,-0.003309586551040411,0.00005212647374719381
1783696331944160000,5.932159912109375,0.0005650612292811275,0.0014609338250011206,-0.00008183054160326719
1783696331954123000,5.942123046875,0.0010577073553577065,0.001131890807300806,0.0018339429516345263
1783696331964087000,5.952087158203125,0.001079278881661594,-0.001311293221078813,0.00009143678471446037
1783696331974050000,5.962050048828125,0.000028376933187246323,0.00020979775581508875,0.0005563395679928362
1783696331984013000,5.972012939453125,0.00037458789302036166,0.0011006251443177462,0.0017704747151583433
1783696331993977000,5.98197705078125,-0.0010569961741566658,-0.001907222787849605,-0.0007685915334150195
1783696332003940000,5.991940185546875,0.00045887514716014266,0.0013394368579611182,-0.00009348010644316673
1783696332013903000,6.001903076171875,-0.0008574043167755008,-0.0007676825625821948,0.00037887709913775325
1783696332023866000,6.0118662109375,0.0011104054283350706,-0.0014891329919919372,0.0001897925976663828
1783696332033830100,6.021830078125,0.0009213985176756978,0.0016050501726567745,-0.0023144371807575226
1783696332043793200,6.031793212890625,0.0005882370169274509,0.0011307410895824432,0.0005031873588450253
1783696332053756000,6.041755859375,0.001234751776792109,-0.0016949712298810482,-0.0008951090276241302
1783696332063720000,6.051719970703125,0.00046882659080438316,0.002036383841186762,-0.0015710191801190376
1783696332073683000,6.061682861328125,0.0005570526700466871,-0.00008762686047703028,0.00023470574524253607
1783696332083646000,6.07164599609375,-0.0007015572628006339,-0.0012580861803144217,-0.0005895425565540791
1783696332093609200,6.081609130859375,0.0005296232411637902,0.0020843662787228823,0.00015789736062288284
1783696332103573000,6.091572998046875,0.0007293603848665953,-0.0010981111554428935,-0.0006256046472117305
1783696332113536000,6.101535888671875,0.0010098436614498496,0.00016706471797078848,0.00024652527645230293
1783696332123499300,6.111499267578125,-0.000550502329133451,0.001061087939888239,0.001291017048060894
1783696332133463000,6.121463134765625,-0.0005382391391322017,-0.002128835301846266,0.0018088279757648706
1783696332143426300,6.13142626953125,0.0008735025185160339,-0.000272878329269588,-0.00007882062345743179
1783696332153389300,6.141389404296875,0.0002483015996403992,0.002790745347738266,0.00025714223738759756
1783696332163352000,6.15135205078125,-0.00020070736354682595,-0.0012716404162347317,-0.00039879430551081896
1783696332173316000,6.161316162109375,0.0010124804684892297,-0.0005369693972170353,-0.001531819929368794
1783696332183279000,6.171279052734375,0.0007911717984825373,0.0017432289896532893,0.00026022130623459816
1783696332193242000,6.1812421875,-0.00019983144011348486,-0.001548816915601492,0.00031985691748559475
1783696332203206100,6.1912060546875,0.0006478527211584151,0.001542047830298543,-0.00009346567094326019
1783696332213169200,6.201169189453125,0.0027665954548865557,0.0023490283638238907,0.0016187779838219285
1783696332223132200,6.211132080078125,-0.00027420182595960796,-0.0025413341354578733,-0.00012745673302561045
1783696332233095200,6.22109521484375,0.0005743938963860273,0.0010068882256746292,0.00018095143605023623
1783696332243059200,6.23105908203125,0.0003842441947199404,0.0009094165870919824,0.0008070606272667646
1783696332253022200,6.241022216796875,0.00028564551030285656,-0.0022763852030038834,-0.0020216251723468304
1783696332262985000,6.25098486328125,-0.0014864217955619097,0.0005646750796586275,-0.0005070854676887393
1783696332272949200,6.26094921875,0.001189501490443945,-0.00003959692548960447,-0.0011528304312378168
1783696332282912000,6.270912109375,0.0003689815348479897,-0.002991710789501667,-0.000038563855923712254
1783696332292875000,6.280875,0.0002530421770643443,0.0014199346769601107,-0.001042908988893032
1783696332302838000,6.290838134765625,-0.0019126404076814651,-0.0009846333414316177,0.0007936068577691913
1783696332312802000,6.300802001953125,-0.0012443484738469124,-0.002291616518050432,-0.00017478072550147772
1783696332322765000,6.31076513671875,-0.002240637084469199,0.002091147704049945,-0.001196102937683463
1783696332332728000,6.32072802734375,-0.00047088388237170875,-0.001101209782063961,0.0024928762577474117
1783696332342692000,6.330692138671875,0.00007479783380404115,0.000546754221431911,-0.0007324779871851206
1783696332352655000,6.340655029296875,0.0007171647739596665,0.0012106833746656775,0.0006061875028535724
1783696332362618000,6.3506181640625,-0.0007294642855413258,-0.000311313197016716,-0.00046999589540064335
1783696332372581000,6.3605810546875,-0.0016010650433599949,-0.0015949909575283527,-0.0000862624729052186
1783696332382545000,6.370544921875,0.0009997780434787273,0.0026538162492215633,0.00046687613939866424
1783696332392508000,6.3805078125,0.0016577135538682342,-0.0010607901494950056,0.0005577452830038965
1783696332402471200,6.39047119140625,-0.00020543389837257564,0.00035068532451987267,0.0005881053511984646
1783696332412435000,6.40043505859375,0.000758224749006331,0.0015884574968367815,-0.0010216874070465565
1783696332422398200,6.410398193359375,0.0013225486036390066,-0.0013721786672249436,0.0010864707874134183
1783696332432361200,6.420361328125,-0.00019762954616453499,-0.0009749769233167171,1.6577541828155518e-7
1783696332442324200,6.43032421875,0.00032834475859999657,0.0029451963491737843,0.0008885962888598442
1783696332452288300,6.440288330078125,0.000896280282177031,-0.0020518475212156773,0.0010589529993012547
1783696332462251300,6.450251220703125,0.00031943959766067564,0.0010949434945359826,-0.0006377468816936016
1783696332472214000,6.460214111328125,0.0002492445637471974,0.002499563619494438,-0.000879815430380404
1783696332482178300,6.47017822265625,-0.00031587822013534606,-0.002112232381477952,0.00013724586460739374
1783696332492141000,6.48014111328125,0.001683070557191968,-0.0003921450115740299,0.00026817305479198694
1783696332502104000,6.49010400390625,-0.0008581177098676562,0.0011535536032170057,0.0001960013760253787
1783696332512067000,6.500067138671875,-0.00017497516819275916,-0.002331302035599947,0.000158752896822989
1783696332522031000,6.510031005859375,0.00023967900779098272,0.00045729405246675014,-0.0005722848000004888
1783696332531994600,6.51999462890625,-0.00071765948086977,-0.000009521027095615864,0.0009836811805143952
1783696332541957600,6.52995751953125,0.00027836274239234626,-0.0007498798659071326,-0.0006040954031050205
1783696332551921700,6.539921630859375,0.00023049642913974822,0.000994538888335228,0.00005711603444069624
1783696332561884700,6.549884765625,0.00003315618960186839,-0.00028084893710911274,0.0005388818681240082
1783696332571847700,6.55984765625,-0.0008988208719529212,-0.0033896020613610744,-0.0008508904138579965
1783696332581810700,6.569810791015625,0.0007001410704106092,0.0018730707233771682,-0.0003326393198221922
1783696332591774700,6.579774658203125,-0.0007318768184632063,0.0007725493051111698,0.0014001282397657633
1783696332601737700,6.58973779296875,-0.00010150655725738034,-0.001502855564467609,-0.0007173510966822505
1783696332611700700,6.59970068359375,-0.000023257831344380975,0.00022375117987394333,0.0016096120234578848
1783696332621663500,6.60966357421875,0.0007226935704238713,-0.0013480465859174728,0.0003824274172075093
1783696332631627800,6.619627685546875,0.0005924837896600366,-0.001614267472177744,0.0004949696594849229
1783696332641590500,6.629590576171875,-0.0008448242442682385,0.0006856383406557143,-0.0010312878293916583
1783696332651553500,6.639553466796875,-0.0008471262408420444,-0.0014249696396291256,0.00038790894905105233
1783696332661517600,6.649517578125,-0.0006588406977243721,0.00012019625864923,-0.0019942885264754295
1783696332671480600,6.65948046875,-0.0008303659269586205,0.0021332264877855778,-0.0010165851563215256
1783696332681443600,6.669443603515625,-0.0010000092443078756,-0.001826095045544207,-0.0002181695308536291
1783696332691406800,6.67940673828125,0.0006565598887391388,-0.0009519873419776559,-0.002051686402410269
1783696332701370600,6.68937060546875,-0.0007155006751418114,0.0025988053530454636,0.0013784653274342418
1783696332711333600,6.699333740234375,-0.0006371964700520039,-0.0013973392779007554,-0.000525670824572444
1783696332721297000,6.709296875,0.000918355886824429,-0.0016269037732854486,-0.0016556500922888517
1783696332731260700,6.7192607421875,-0.00010379301238572225,-0.0005867331055924296,0.0008520169649273157
1783696332741223700,6.7292236328125,0.0005137940170243382,-0.0023558707907795906,0.0009636033792048693
1783696332751186700,6.739186767578125,-0.000467134261270985,-0.0011965528829023242,-0.0008345287060365081
1783696332761149700,6.749149658203125,0.00036057617398910224,0.0007946926634758711,0.0019106576219201088
1783696332771113700,6.75911376953125,0.00019437439914327115,-0.002407329622656107,0.0013376696733757854
1783696332781076700,6.76907666015625,-0.0004370610695332289,0.0006699530058540404,-0.0010858067544177175
1783696332791039700,6.779039794921875,0.00019088329281657934,0.0013519783969968557,-0.00024710968136787415
1783696332801003800,6.789003662109375,0.0010774496477097273,-0.0006081080064177513,0.0006889915093779564
1783696332810966800,6.798966796875,0.001743687316775322,0.0010884918738156557,-0.00012201059143990278
1783696332820929800,6.8089296875,0.002306147012859583,0.0016110040014609694,0.00019384024199098349
1783696332830892800,6.818892822265625,0.00042520021088421345,-0.0023627332411706448,-0.0006230124272406101
1783696332840856800,6.82885693359375,0.001987144351005554,0.0018724917899817228,-0.0000991687411442399
1783696332850819600,6.838819580078125,0.0016240846598520875,0.0010724724270403385,0.0006427112384699285
1783696332860782600,6.848782470703125,-0.00030404399149119854,-0.0005592464003711939,-0.00015650340355932713
1783696332870745600,6.85874560546875,-0.0015732331667095423,0.0010516444453969598,-0.000682212645187974
1783696332880709600,6.868709716796875,-0.0008802786469459534,0.0001206033630296588,0.0011026379652321339
1783696332890672600,6.878672607421875,0.00032166921300813556,-0.0012720522936433554,0.000681665726006031
1783696332900635600,6.8886357421875,-0.0010714302770793438,0.0029575801454484463,0.0014385360991582274
1783696332910599700,6.898599609375,-0.0004087384731974453,-0.0007579332450404763,0.0012176040327176452
1783696332920562700,6.908562744140625,0.0008804977405816317,-0.00021491467487066984,0.00014781218487769365
1783696332930525700,6.918525634765625,-0.0007408764795400202,0.0005321071948856115,-0.00026923627592623234
1783696332940488700,6.92848876953125,-0.000132610512082465,-0.0007131870370358229,0.0013393129920586944
1783696332950452700,6.93845263671875,0.0013583319960162044,-0.000046593486331403255,-0.000504970783367753
1783696332960415500,6.94841552734375,-0.0012648816918954253,0.0011267953086644411,0.0003323269775137305
1783696332970378800,6.958378662109375,0.00012382242130115628,-0.002116925548762083,0.0013401152100414038
1783696332980342500,6.968342529296875,0.0017989508341997862,-0.0003738866653293371,-0.0006330207688733935
1783696332990305500,6.978305419921875,0.00113472540397197,0.0012026067124679685,0.0006809073965996504
1783696333000268800,6.988268798828125,-0.000318827893352136,-0.002562037669122219,-0.0003851560177281499
1783696333010231800,6.998231689453125,0.0004777178983204067,-0.00014573801308870316,-0.00012202211655676365
1783696333020195800,7.00819580078125,-0.00032176304375752807,0.0000574612058699131,0.0033736431505531073
1783696333030158800,7.018158935546875,-0.0006840701680630445,-0.0018649216508492827,0.001458553597331047
1783696333040121900,7.028121826171875,0.0009188863914459944,-0.000458506285212934,-0.0005207076901569963
1783696333050084600,7.038084716796875,0.0003622606454882771,-0.0005462742410600185,-0.00034436630085110664
1783696333060048600,7.048048583984375,-0.0006279026856645942,-0.0005750362761318684,0.0011158448178321123
1783696333070011600,7.05801171875,-0.001776012941263616,0.000048579415306448936,0.000522403686773032
1783696333079974700,7.067974609375,0.00036809814628213644,-0.0004081527004018426,0.00100177270360291
1783696333089938700,7.077938720703125,0.0019784693140536547,0.000296706915833056,0.0010053805308416486
1783696333099901700,7.087901611328125,0.00030920017161406577,0.0004029669798910618,-0.0002713388530537486
1783696333109864700,7.09786474609375,-0.0005886078579351306,-0.0011679406743496656,0.001734588062390685
1783696333119827700,7.10782763671875,-0.0018549410160630941,-0.0019064352381974459,0.0020922506228089333
1783696333129791700,7.117791748046875,-0.0006725247367285192,0.0018354880157858133,-0.00005425221752375364
1783696333139754800,7.127754638671875,0.000437747105024755,-0.000349369365721941,0.0009960986208170652
1783696333149717500,7.137717529296875,0.0016475223237648606,-0.002757775131613016,-0.001778873847797513
1783696333159680500,7.147680419921875,0.0004341860767453909,0.0015576109290122986,0.0007537924684584141
1783696333169644500,7.15764453125,-0.0010313187958672643,0.00023198151029646397,0.00044658774277195334
1783696333179607600,7.167607666015625,-0.0006014845566824079,-0.0017656554700806737,-0.0012724827975034714
1783696333189570600,7.177570556640625,0.000684055034071207,0.0007762064342387021,-0.0007924723904579878
1783696333199534600,7.18753466796875,0.00023531244369223714,-0.001589213265106082,0.003424376714974642
1783696333209497600,7.19749755859375,-0.00058916793204844,-0.0005133552476763725,0.0016654381761327386
1783696333219460600,7.207460693359375,-0.0002778443740680814,0.00044884486123919487,0.00022546702530235052
1783696333229423900,7.217423828125,-0.0017313254065811634,-0.0018403988797217607,-0.0005835909396409988
1783696333239387600,7.2273876953125,0.001524655381217599,-0.00040948251262307167,-0.0006072930991649628
1783696333249351000,7.237350830078125,-0.00014941865811124444,0.0021305426489561796,0.00022350851213559508
1783696333259313700,7.247313720703125,0.0017667257925495505,-0.0024215984158217907,0.0006538753514178097
1783696333269277700,7.257277587890625,0.0009386505698785186,0.00006858713459223509,-0.00007524807006120682
1783696333279240700,7.26724072265625,-0.0007258251425810158,0.0023040445521473885,0.00004459416959434748
1783696333289203700,7.27720361328125,-0.00026705427444539964,-0.003329678438603878,0.000876915524713695
1783696333299166700,7.287166748046875,0.0006123214843682945,0.0017657477874308825,0.0015150088584050536
1783696333309130800,7.297130859375,-0.0014467305736616254,0.0024712439626455307,0.0006729495944455266
1783696333319093800,7.30709375,0.00024490931537002325,-0.0014068509917706251,-0.0014455950586125255
1783696333329056800,7.317056884765625,0.001673040445894003,-0.00017686537466943264,-0.00041698163840919733
1783696333339019800,7.327019775390625,0.001247999956831336,0.0007576378411613405,-0.00027716567274183035
1783696333348983800,7.33698388671875,-0.0015893977833911777,-0.003238098230212927,0.00019188167061656713
1783696333358946800,7.34694677734375,-0.0003475657431408763,0.0005696894368156791,-0.00029521051328629255
1783696333368909600,7.35690966796875,0.0006524073542095721,0.00047802587505429983,-0.0004058127524331212
1783696333378873600,7.36687353515625,-0.00035266962368041277,-0.0019449180690571666,0.0000503867631778121
1783696333388836600,7.376836669921875,-0.00006596221646759659,0.00041235750541090965,0.0002925586304627359
1783696333398799600,7.386799560546875,0.0006344491266645491,0.0007391273393295705,0.000878986669704318
1783696333408762600,7.3967626953125,0.001022812444716692,-0.001873139524832368,-0.0004979706136509776
1783696333418726700,7.4067265625,0.0005205402849242091,0.00008747971151024103,-0.0023190402425825596
1783696333428689700,7.416689697265625,0.0008264771895483136,0.0002693183487281203,0.000981106422841549
1783696333438652700,7.426652587890625,-0.0008814079337753356,-0.0011884960113093257,-0.0018069568322971463
1783696333448615700,7.43661572265625,0.0005155104445293546,0.0034706122241914272,-0.0008629224030300975
1783696333458579700,7.446579833984375,0.0007266991306096315,0.0008383439271710813,-0.00018221850041300058
1783696333468542500,7.45654248046875,0.001621725270524621,-0.000005383393727242947,-0.0006326513830572367
1783696333478505700,7.466505615234375,0.0019452993292361498,0.0013291266513988376,-0.0008110831258818507
1783696333488469500,7.476469482421875,0.0008248047670349479,-0.0019481334602460265,0.0017359094927087426
1783696333498432500,7.4864326171875,-0.0010633764322847128,-0.0024131215177476406,-0.0008462914265692234
1783696333508395800,7.496395751953125,-0.0007186828879639506,0.0005206476198509336,0.00052918482106179
1783696333518358800,7.50635888671875,-0.0021943405736237764,-0.0017299898900091648,0.0014738080790266395
1783696333528322800,7.51632275390625,-0.00029046868439763784,-0.00013657507952302694,-0.0011797735933214426
1783696333538286000,7.5262861328125,0.00028424145421013236,0.001749209244735539,-0.000051126000471413136
1783696333548249000,7.5362490234375,-0.00012408444308675826,-0.0018955133855342865,0.0014403224922716618
1783696333558212000,7.546212158203125,-0.0004292827215977013,0.0006496695568785071,-0.00025983958039432764
1783696333568176000,7.556176025390625,-0.0013831229880452156,0.0014856386696919799,0.0005578611162491143
1783696333578139000,7.566138916015625,-0.00008669613453093916,-0.0019277349347248673,-0.00014494708739221096
1783696333588102000,7.576101806640625,0.00021936628036201,0.0005353814922273159,-0.000285774702206254
1783696333598066000,7.58606591796875,-0.0008259244496002793,0.0024536564014852047,-0.0001177291851490736
1783696333608029000,7.59602880859375,0.0009226087131537497,-0.001942482078447938,0.0005344526143744588
1783696333617992000,7.605991943359375,0.0003652090672403574,0.0004652818897739053,-0.0022315066307783127
1783696333627955000,7.615954833984375,-0.0013888431712985039,-0.0008076780941337347,-0.0001546019921079278
1783696333637919000,7.6259189453125,-0.0010594101622700691,-0.003064174670726061,-0.00011065986473113298
1783696333647882000,7.635882080078125,-0.000005209280061535537,0.0007594246999360621,-0.0002862541005015373
1783696333657845000,7.645844970703125,-0.0010582231916487217,-0.0002339343773201108,-0.000010883319191634655
1783696333667809000,7.65580908203125,-0.0005717282183468342,-0.0009189381962642074,0.00006637396290898323
1783696333677772000,7.66577197265625,-0.0011949078179895878,0.0015479479916393757,-0.0006356353405863047
1783696333687734800,7.67573486328125,0.0011744438670575619,0.0004735476104542613,0.00021943094907328486
1783696333697697800,7.68569775390625,0.00007722149894107133,-0.0023137168027460575,-0.0008048207964748144
1783696333707661800,7.695661865234375,-0.0003522466286085546,0.002620227634906769,-0.00003110850229859352
1783696333717624800,7.705624755859375,-0.0002558401902206242,-0.0000011220108717679977,0.0001374695566482842
1783696333727587800,7.715587890625,0.001828433945775032,-0.0015908817294985056,-0.0012039266293868423
1783696333737550800,7.72555078125,-0.0006373869255185127,0.00300120678730309,0.00016973185120150447
1783696333747515000,7.735514892578125,0.0002816506603267044,-0.0016818939475342631,0.0004058724734932184
1783696333757478000,7.745477783203125,0.00022465901565738022,-0.0033205365762114525,-0.0008772385772317648
1783696333767441200,7.755441162109375,-0.0006251860177144408,0.0026614381931722164,-0.0009302409598603845
1783696333777405000,7.765405029296875,0.0004547257849480957,-0.0009293020702898502,-0.00024500966537743807
1783696333787368000,7.775367919921875,-0.00028839855804108083,-0.0018130395328626037,-0.0010949668940156698
1783696333797331000,7.7853310546875,0.0007877848111093044,0.0012493294198065996,0.0014342371141538024
1783696333807294000,7.7952939453125,-0.0007569931913167238,-0.00032235158141702414,0.0008750199340283871
1783696333817258000,7.805258056640625,-0.000440876028733328,0.00046834093518555164,-0.002451268257573247
1783696333827221000,7.815220947265625,-0.0018924478208646178,-0.0004341626772657037,-0.00014283251948654652
1783696333837184000,7.82518408203125,-0.000750484352465719,-0.0011633360991254449,-0.00012126087676733732
1783696333847147000,7.83514697265625,-0.00008252942643593997,-0.00016579078510403633,-0.0015909138601273298
1783696333857111000,7.845111083984375,-0.00030010967748239636,0.0011916224611923099,-0.0007027495885267854
1783696333867074000,7.855073974609375,0.000754861393943429,-0.0010747761698439717,-0.0003990193363279104
1783696333877037000,7.865037109375,0.0008083909633569419,0.0018866588361561298,-0.00008449994493275881
1783696333886999800,7.874999755859375,-0.0004014909209217876,0.00029226276092231274,0.0011537001701071858
1783696333896963800,7.8849638671875,-0.0004883099463768303,-0.0008451732574030757,0.00012039369903504848
1783696333906926800,7.8949267578125,0.0008587797055952251,0.0010445807129144669,0.000272817793302238
1783696333916889900,7.904889892578125,0.0007581121753901243,0.002330621238797903,-0.0012811367632821202
1783696333926854000,7.91485400390625,-0.00036281178472563624,-0.0017614113166928291,-0.0009626472601667047
1783696333936817000,7.92481689453125,-0.0000016871490515768528,0.00029987527523189783,0.0006802566931582987
1783696333946780000,7.93477978515625,0.0006344040739350021,0.000020276871509850025,-0.0010664184810593724
1783696333956743000,7.944742919921875,-0.00003564725921023637,-0.001154709723778069,0.0005863391561433673
1783696333966707000,7.95470703125,0.0008998761768452823,0.0005897468654438853,-0.0017544471193104982
1783696333976670000,7.964669921875,0.0009579331963323057,-0.00019908149261027575,0.002830983605235815
1783696333986632700,7.9746328125,-0.0008046767907217145,-0.0009115341817960143,0.0009857873665168881
1783696333996596000,7.984595947265625,-0.000339156249538064,0.00217107473872602,0.00025554862804710865
1783696334006559700,7.994559814453125,-0.0005661806208081543,-0.0004888144321739674,0.0019921371713280678
1783696334016523000,8.00452294921875,0.00018429815827403218,-0.0016728558111935854,0.000054421136155724525
1783696334026486000,8.014486083984375,0.000039822960388846695,0.001366927637718618,0.0011461133835837245
1783696334036449800,8.02444970703125,0.00018682944937609136,-0.0009665340185165405,0.00018577749142423272
1783696334046413000,8.0344130859375,-0.0001526558044133708,-0.00046248268336057663,-0.0021262618247419596
1783696334056376000,8.0443759765625,0.00027957523707300425,0.001368706813082099,-0.000357656623236835
1783696334066339000,8.054339111328124,0.0012841832358390093,0.0017305237706750631,0.0007045867387205362
1783696334076303000,8.06430322265625,-0.0021395767107605934,-0.00023915013298392296,-0.0008943752618506551
1783696334086266000,8.07426611328125,0.0003688011784106493,0.002837296575307846,-0.0013938900083303452
1783696334096228900,8.084228759765624,-0.0001547763095004484,-0.0001891197171062231,0.000623188097961247
1783696334106192000,8.09419189453125,-0.00045341436634771526,0.0009198230691254139,-0.00039818091318011284
1783696334116156000,8.104156005859375,-0.00002198226866312325,0.0007168902084231377,0.0022151791490614414
1783696334126119000,8.114118896484374,0.0012503864709287882,-0.0015150635736063123,0.0023282873444259167
1783696334136082000,8.12408203125,-0.0003059648151975125,0.00011452462058514357,0.0004523567040450871
1783696334146045000,8.134044921875,-0.0004372236435301602,0.000923690153285861,0.0006186481914483011
1783696334156009000,8.144009033203124,-0.00021032233780715615,-0.0020555881783366203,0.0006615250604227185
1783696334165972000,8.153971923828125,-0.0000645943364361301,0.0008511334890499711,0.0014000823721289635
1783696334175935000,8.16393505859375,0.0006576549494639039,-0.00024928466882556677,-0.00029581855051219463
1783696334185899000,8.17389892578125,0.000008176735718734562,-0.0009271812159568071,-0.0001795426942408085
1783696334195862000,8.183862060546875,0.00041643931763246655,-0.0002233076374977827,0.00011180713772773743
1783696334205824800,8.19382470703125,0.0011002449318766594,0.0015531792305409908,-0.0008517300011590123
1783696334215787800,8.203787841796874,-0.0007322761812247336,-0.0018814995419234037,-0.0004589138552546501
1783696334225751800,8.213751708984375,0.0008233055123127997,0.0012138489400967956,-0.0005318663315847516
1783696334235714800,8.22371484375,0.00042383134132251143,0.00031716260127723217,-0.0009430584032088518
1783696334245677800,8.233677734375,-0.0003939896705560386,-0.0004923671949654818,-0.0011378965573385358
1783696334255641000,8.24364111328125,-0.0007631038315594196,0.0009606535313650966,-0.001611939282156527
1783696334265604900,8.25360498046875,-0.000058510755479801446,0.000546803348697722,-0.001130692078731954
1783696334275568000,8.263568115234374,-0.0017030127346515656,-0.001687056035734713,-0.00017701403703540564
1783696334285531100,8.27353125,0.0001980887318495661,0.002300627063959837,0.0006544903735630214
1783696334295495000,8.283494873046875,-0.0000868694914970547,-0.00008769589476287365,0.0019165624398738146
1783696334305458000,8.2934580078125,0.0008629246149212122,-0.00023437594063580036,-0.00027100963052362204
1783696334315421000,8.3034208984375,0.00007356368587352335,0.0025345126632601023,-0.001943741226568818
1783696334325384000,8.313384033203125,-0.00044156628428027034,-0.0005307018291205168,0.0003176035825163126
1783696334335348000,8.323347900390624,-0.0013960432261228561,0.00007090624421834946,-0.002106672152876854
1783696334345311000,8.33331103515625,-0.0007277480908669531,0.0021237486507743597,-0.0011858036741614342
1783696334355274000,8.34327392578125,0.00004110652662348002,-0.001790565438568592,0.0012187645770609379
1783696334365237000,8.353237060546874,0.0006587611278519034,-0.0016120050568133593,-0.0005996570689603686
1783696334375201000,8.363200927734376,-0.0016062573995441198,0.002402177546173334,0.0009519005543552339
1783696334385164000,8.3731640625,-0.0022101234644651413,-0.0023080059327185154,0.001355484826490283
1783696334395126800,8.383126708984374,-0.0002516347449272871,0.0006382493302226067,-0.0014131374191492796
1783696334405091000,8.393091064453126,-0.0007949910359457135,0.0013367608189582825,0.0011436459608376026
1783696334415053800,8.4030537109375,-0.0009539817692711949,-0.000759679707698524,-0.0007077836198732257
1783696334425016800,8.413016845703124,-0.0002815182087942958,-0.001563130528666079,-0.0006950286915525794
1783696334434979800,8.422979736328125,0.0008540536509826779,-0.0007447412936016917,-0.0005160643486306071
1783696334444944000,8.43294384765625,0.0003742921689990908,-0.0035184514708817005,0.00041437946492806077
1783696334454907000,8.442906982421874,0.00019985513063147664,-0.000011334544979035854,0.0003326204023323953
1783696334464870000,8.452869873046875,-0.0003585524973459542,0.0007137106149457395,0.0021509905345737934
1783696334474833000,8.4628330078125,0.00023453346511814743,-0.00015714310575276613,-0.001652802457101643
1783696334484797000,8.472796875,0.00034904672065749764,0.00117701874114573,0.0015923494938760996
1783696334494760000,8.482760009765625,0.0024074038956314325,0.0001162816770374775,0.0022139311768114567
1783696334504723000,8.492722900390625,-0.0008641665917821229,-0.0022942922078073025,-0.0005893358029425144
1783696334514686700,8.502686767578124,-0.0016250315820798278,0.002809656085446477,-0.0003552439156919718
1783696334524650000,8.51264990234375,-0.0010606959694996476,0.00053099833894521,-0.00018437160179018974
1783696334534612500,8.522612548828125,-0.001502248109318316,-0.0021534678526222706,-0.0008213997352868319
1783696334544575500,8.532575439453124,-0.00004051633732160553,0.0021993210539221764,-0.00006930693052709103
1783696334554539500,8.54253955078125,0.0005211443058215082,0.0015023717423900962,0.00010672805365175009
1783696334564502500,8.55250244140625,0.0014573578955605626,-0.0000668717548251152,-0.0011367162223905325
1783696334574465500,8.562465576171874,-0.0007986058481037617,0.0033986996859312057,0.0015291080344468355
1783696334584428500,8.572428466796875,0.00042844496783800423,-0.0005260292673483491,-0.001918146968819201
1783696334594392600,8.582392578125,0.0002870311145670712,-0.0015004799934104085,-0.0011982946889474988
1783696334604355300,8.592355224609374,0.0013777829008176923,0.0033164783380925655,-0.000006438698619604111
1783696334614318300,8.602318359375,-0.0007418269524350762,-0.000012739328667521477,0.0013323323801159859
1783696334624282400,8.612282470703125,0.0003853388479910791,-0.0015713837929069996,-0.0006004686001688242
1783696334634245400,8.622245361328124,0.0016032024286687374,0.0014156175311654806,0.00012311222963035107
1783696334644208400,8.63220849609375,-0.00003335536894155666,-0.0006117221200838685,0.00094969681231305
1783696334654171400,8.64217138671875,-0.0006368276663124561,0.00003089860547333956,-0.0007451389683410525
1783696334664135400,8.652135498046874,0.0021503609605133533,0.001922847586683929,0.0006595250451937318
1783696334674098400,8.662098388671875,-0.000007331997039727867,-0.0016875998117029667,0.0006395513191819191
1783696334684061400,8.6720615234375,0.00011162650480400771,0.000961310463026166,-0.0006973661947995424
1783696334694024400,8.6820244140625,0.00009165279334411025,0.0017330945702269673,0.0013290330534800887
1783696334703988500,8.691988525390625,-0.000001551888999529183,-0.002496592001989484,0.0002206572680734098
1783696334713951200,8.701951171875,0.0007260236889123917,0.0008070594631135464,-0.00262093567289412
1783696334723914500,8.71191455078125,-0.0016195705393329263,0.001456264522857964,-0.00010384386405348778
1783696334733878300,8.721878173828125,0.00006461253360612318,-0.002221028320491314,-0.00035577884409576654
1783696334743841500,8.731841552734375,0.0011795464670285583,-0.0007505459943786263,-0.0011565182358026505
1783696334753804500,8.741804443359374,-0.0005512419156730175,0.001392233301885426,0.0020312853157520294
1783696334763767600,8.751767578125,0.000831309356726706,-0.0017565422458574176,-0.001487047178670764
1783696334773731600,8.761731689453125,0.00033702660584822297,-0.00017409189604222775,0.0006493406253866851
1783696334783694600,8.771694580078124,0.0013724127784371376,-0.00018971064127981663,0.00116793776396662
1783696334793657600,8.78165771484375,0.0010293975938111544,0.00028965831734240055,0.00023982609855011106
1783696334803621600,8.79162158203125,0.0013995723566040397,0.000190461752936244,-0.00025499146431684494
1783696334813584400,8.80158447265625,-0.00004199671093374491,0.0008778236224316061,-0.000585223431698978
1783696334823547400,8.81154736328125,0.0003047942591365427,-0.0009436430409550667,0.0003899752045981586
1783696334833510400,8.821510498046875,0.0005793661694042385,0.0013109891442582011,-0.0002174917608499527
1783696334843474400,8.831474365234374,0.0005254804855212569,-0.0025091557763516903,0.0013540833024308085
1783696334853437400,8.8414375,-0.00031900784233585,-0.0014819747302681208,0.0006648572161793709
1783696334863400400,8.851400390625,-0.00022395033738575876,0.0024686141405254602,0.0006195544265210629
1783696334873363500,8.861363525390624,-0.00042049161856994033,-0.0010291815269738436,0.0003061003517359495
1783696334883327500,8.871327392578126,0.001393208745867014,-0.0015570970717817545,0.0002729946281760931
1783696334893290500,8.88129052734375,-0.00023105319996830076,0.002365472726523876,-0.00011103320866823196
1783696334903253200,8.891253173828124,0.00023462256649509072,-0.0008278363384306431,0.0009261060040444136
1783696334913217500,8.901217529296876,0.0002165130863431841,0.00046006834600120783,-0.0017389191780239344
1783696334923180300,8.91118017578125,0.0010023278882727027,0.0006500225863419473,-0.000993923400528729
1783696334933143300,8.921143310546874,-0.0008754669688642025,-0.0010661183623597026,-0.0013057795586064458
1783696334943106300,8.931106201171875,-0.00043986126547679305,0.0004887401591986418,-0.0011968165636062622
1783696334953070300,8.9410703125,0.00017772580031305552,0.0008719690376892686,0.00026818824699148536
1783696334963033300,8.951033447265624,0.0010741782607510686,-0.002386245643720031,-0.0014634232502430677
1783696334972996400,8.960996337890625,0.00016151292948052287,0.0015802665147930384,-0.00010840699542313814
1783696334982960400,8.97096044921875,0.0008465710561722517,0.0013302108272910118,0.0008455927018076181
1783696334992923400,8.98092333984375,-0.0006194991292431951,-0.0011603774037212133,-0.0008495093788951635
1783696335002886700,8.99088671875,-0.0007510939612984657,0.0005211521638557315,-0.0002940830308943987
1783696335012849400,9.000849365234375,0.0010073913726955652,0.0006082375184632838,0.0006337623344734311
1783696335022813400,9.0108134765625,-0.00010665117588359863,-0.0014272095868363976,-0.0012763175182044506
1783696335032776400,9.0207763671875,0.0006339739193208516,0.00029905152041465044,-0.00024141324684023857
1783696335042739500,9.030739501953125,0.0006442216690629721,-0.00042552698869258165,0.0001570228487253189
1783696335052702500,9.040702392578124,0.0003880255972035229,-0.0019390013767406344,0.00016687659081071615
1783696335062666500,9.05066650390625,-0.00017381412908434868,0.0017898173537105322,0.0010533551685512066
1783696335072629500,9.06062939453125,0.0010815999703481793,0.0005056411027908325,-0.00040152971632778645
1783696335082592500,9.070592529296874,-0.0010249981423839927,-0.001996374921873212,-0.00015467859338968992
1783696335092556500,9.080556640625,0.0013026046799495816,0.0016353778773918748,-0.00034829031210392714
1783696335102519600,9.09051953125,-0.00010253696382278576,0.0004040052881464362,0.00015977409202605486
1783696335112482600,9.100482666015624,-0.00041971943574026227,-0.0009920238517224789,0.0007704369490966201
1783696335122445300,9.1104453125,-0.0006357073434628546,0.0026977420784533024,0.0015011896612122655
1783696335132409300,9.120409423828125,0.00023115158546715975,-0.0008133696392178535,0.0006955834105610847
1783696335142372400,9.130372314453124,0.00016656157094985247,-0.002022174885496497,0.0007696937536820769
1783696335152335400,9.14033544921875,0.0001380657486151904,0.0022460732143372297,-0.00008198514115065336
1783696335162299400,9.15029931640625,0.0013894714647904038,-0.0017684783088043332,-0.001207771711051464
1783696335172262400,9.160262451171874,-0.0004853939753957093,-0.0008140014251694083,-0.002401134232059121
1783696335182225400,9.170225341796876,0.0013733855448663235,0.0013336939737200737,0.00022123393137007952
1783696335192188400,9.1801884765625,0.0015121361939236522,-0.0013292006915435195,0.0013128636637702584
1783696335202152400,9.19015234375,0.0003296186914667487,0.00009036634583026171,-0.001921644201502204
1783696335212115500,9.200115478515626,0.00016636692453175783,0.0028001326136291027,-0.0005021794931963086
1783696335222078200,9.210078125,0.0009294090559706092,-0.0007934876484796405,-0.0005667563527822495
1783696335232041500,9.22004150390625,0.00039997263229452074,0.0004520728252828121,-0.0008674272103235126
1783696335242005200,9.230005126953126,-0.0017728327075019479,-0.0007172827608883381,0.001194276730529964
1783696335251968300,9.23996826171875,-0.00005589279317064211,-0.001791069284081459,0.00009172805584967136
1783696335261931500,9.249931640625,0.0001720668951747939,0.0011193352984264493,-0.0007152489852160215
1783696335271895300,9.259895263671876,0.0003816576790995896,0.00035980180837213993,0.000642696802970022
1783696335281858600,9.269858642578125,0.001063634641468525,-0.002612067386507988,0.0017557278042659163
1783696335291821600,9.279821533203124,-0.000521478708833456,0.00000795035157352686,0.0003285397542640567
1783696335301784600,9.28978466796875,-0.0006850482895970345,0.0008030126919038594,0.00010066409595310688
1783696335311748600,9.29974853515625,0.0010193747002631426,-0.0025312649086117744,0.0008309028344228864
1783696335321711600,9.309711669921874,0.0016565639525651932,0.0007189471507444978,-0.0017477718647569418
1783696335336033300,9.324033203125,-0.0007533305324614048,-0.0009673663880676031,0.0009236450423486531
1783696335345997300,9.333997314453125,0.0002459477982483804,-0.0005798066267743707,-0.0005369511200115085
1783696335355960300,9.343960205078124,-0.0011111991479992867,0.00316033698618412,-0.000716980779543519
1783696335365923300,9.35392333984375,-0.0006915742997080088,-0.0014377371408045292,0.001290086773224175
1783696335375886300,9.36388623046875,0.0004914018791168928,-0.0005972436629235744,0.0010418802266940475
1783696335385850400,9.373850341796874,-0.0012034277897328138,-0.0004032701253890991,0.0011730220867320895
1783696335395813400,9.3838134765625,-0.0015805313596501946,-0.0012024847092106938,0.0007575689232908189
1783696335405776400,9.3937763671875,-0.00017626142653170973,0.0016415913123637438,-0.00031426933128386736
1783696335415739600,9.40373974609375,-0.0008212790708057582,0.0006623470108024776,-0.00009189534466713667
1783696335425703400,9.413703369140626,0.0017692844849079847,-0.0017805799143388867,0.001816443633288145
1783696335435666400,9.42366650390625,-0.0006842858856543899,0.0003552751149982214,0.00005636049900203943
1783696335445629400,9.43362939453125,-0.0012289122678339481,-0.0001731179654598236,0.00033835560316219926
1783696335455593500,9.443593505859376,-0.0009125287760980427,-0.0009781916160136461,0.0013327798806130886
1783696335465556500,9.453556396484375,-0.0010537529597058892,0.0012029714416712523,-0.00020616594702005386
1783696335475519500,9.46351953125,-0.0003618636983446777,0.00013424491044133902,0.00032673258101567626
1783696335485482500,9.473482421875,-0.000442421151092276,-0.0026381085626780987,-0.00012381002306938171
1783696335495446500,9.483446533203125,0.00018342171097174287,0.0008359852945432067,-0.000573884230107069
1783696335505409500,9.493409423828124,-0.0011409883154556155,0.00097609095973894,-0.0006867136107757688
1783696335515372500,9.50337255859375,0.0002430564200039953,-0.0016636343207210302,0.00020890741143375635
1783696335525335600,9.51333544921875,-0.0005732686258852482,0.0004094445612281561,-0.0021069920621812344
1783696335535300000,9.523300048828125,0.0006786833982914686,-0.0007503620581701398,0.0019013313576579094
1783696335545263000,9.53326318359375,0.0010496398899704218,-0.0009914430556818843,0.000013221055269241333
1783696335555226000,9.54322607421875,0.0006235340842977166,0.00144961045589298,-0.0011673582484945655
1783696335565190100,9.553190185546875,0.0003313073830213398,-0.0008499970426782966,-0.0007160453824326396
1783696335575153000,9.56315283203125,-0.0011773733422160149,-0.002231911290436983,-0.00036663864739239216
1783696335585116000,9.573115966796875,0.0016562013188377023,0.003410463687032461,0.00010484806261956692
1783696335595079000,9.583078857421874,0.0010556584456935525,-0.002443696605041623,0.000004713190719485283
1783696335605043000,9.59304296875,0.0013508934061974287,-0.0003371693892404437,-0.0017767554381862283
1783696335615006000,9.603005859375,0.00038416593451984227,0.0018183932406827807,-0.0012579715112224221
1783696335624969000,9.612968994140624,-0.0011184386676177382,-0.00028389785438776016,0.0024281134828925133
1783696335634932000,9.622931884765626,0.0003385767340660095,-0.001869277679361403,0.0008177001145668328
1783696335644896000,9.63289599609375,-0.0010165674611926079,0.001494120224379003,-0.000024183886125683784
1783696335655482000,9.643482177734375,0.0002268624521093443,-0.0024505541659891605,0.000436276663094759
1783696335665445000,9.653445068359375,-0.00022631676984019578,-0.002390009118244052,0.00010491407010704279
1783696335675408000,9.663407958984376,-0.00013337245036382228,-0.0005447047296911478,0.000557651394046843
1783696335685372000,9.673371826171875,-0.0002112765796482563,-0.001996691571548581,-0.0004833397688344121
1783696335695335000,9.6833349609375,0.00015517437714152038,-0.0006925414782017469,-0.00008732767309993505
1783696335705298000,9.6932978515625,0.0005801229272037745,0.0015756066422909498,0.0005350238643586636
1783696335715262000,9.703261962890625,-0.00015837157843634486,-0.001871855347417295,-0.00016778428107500076
1783696335725225000,9.713224853515625,-0.0003934704582206905,0.001692228834144771,-0.0010905812960118055
1783696335735188000,9.72318798828125,-0.00041104733827523887,0.0014458864461630583,0.00037442368920892477
1783696335745151000,9.73315087890625,-0.000003903856850229204,-0.0013828410301357508,0.002090190537273884
1783696335755115000,9.743114990234375,0.0009897215059027076,-0.00034740392584353685,0.0010755262337625027
1783696335765078000,9.753078125,0.00047074578469619155,0.0004159320378676057,0.00005983386654406786
1783696335775040800,9.763040771484375,-0.0009401969145983458,0.00005507376044988632,-0.000552426790818572
1783696335785003800,9.773003662109375,0.00033205485669896007,0.003275049850344658,0.000531911791767925
1783696335794967800,9.7829677734375,0.0016721575520932674,0.0007423836505040526,0.000010731164366006851
1783696335804930800,9.792930908203125,0.0010880783665925264,-0.0017335719894617796,0.00011896854266524315
1783696335814894000,9.80289404296875,-0.0007745364564470947,0.0009223985834978521,-0.0008224588818848133
1783696335824857900,9.81285791015625,0.0000712920882506296,0.0010138191282749176,0.0001968973083421588
1783696335834820900,9.82282080078125,0.001796754077076912,-0.002009401097893715,-0.000879552448168397
1783696335844784000,9.8327841796875,0.0008128222543746233,0.0030675153248012066,0.000571133045013994
1783696335854748000,9.842747802734374,0.0001539562363177538,-0.0010734339011833072,0.0006145425140857697
1783696335864711200,9.852711181640625,0.0012273559113964438,-0.0009470332879573107,0.000008535338565707207
1783696335874674200,9.862674072265625,-0.0009026402258314192,0.0007715044193901122,0.0004301137523725629
1783696335884637000,9.872636962890626,-0.0006134234135970473,-0.0013623228296637535,0.000016161357052624226
1783696335894601000,9.88260107421875,0.0009921964956447482,-0.0006933365948498249,0.0014830305008217692
1783696335904564000,9.89256396484375,0.00014186296903062612,0.0020294189453125,0.00033814297057688236
1783696335914527000,9.90252685546875,0.0008553238585591316,-0.0003314731875434518,-0.0009284564293920994
1783696335924490000,9.912489990234375,-0.0002682437770999968,0.0007496756734326482,-0.002140096155926585
1783696335934454000,9.9224541015625,0.0017110175685957074,0.0012380994157865644,-0.0006556501612067223
1783696335944417000,9.9324169921875,-0.0003475618432275951,-0.00044607766903936863,-0.0005454026395455003
1783696335954380000,9.942380126953125,0.001577370916493237,0.0016905764350667596,-0.00015258637722581625
1783696335964344000,9.952343994140625,0.0001543247199151665,0.0022622584365308285,-0.0015584026696160436
1783696335974307000,9.96230712890625,-0.0003527411608956754,-0.0024147850926965475,-0.000699533149600029
1783696335984270000,9.97227001953125,0.0022749053314328194,0.0006319636013358831,-0.0012471642112359405
1783696335994232800,9.98223291015625,-0.0008979848935268819,-0.0005334357265383005,0.0006748390733264387
1783696336004196900,9.99219677734375,-0.00016483644139952958,-0.003644393291324377,-0.0001961729722097516
1783696336014160000,10.002159912109375,0.0007896405295468867,0.0016398507868871093,0.0006104985368438065
1783696336024123000,10.012122802734375,-0.0009058709256350994,0.0017602408770471811,0.0009651805157773197
1783696336034087000,10.0220869140625,-0.00002835941268131137,-0.0006150325061753392,-0.0002348398556932807
1783696336044050000,10.0320498046875,0.0012309531448408961,0.003031924134120345,-0.0001638694666326046
1783696336054013000,10.042012939453125,0.0013726333854719996,0.0008784921374171972,-0.0011060958495363593
1783696336063976000,10.051975830078124,-0.00020304952340666205,-0.0023664189502596855,-0.0021465385798364878
1783696336073940000,10.06193994140625,-0.0016126607079058886,0.002463223645463586,-0.0002889838069677353
1783696336083903000,10.071903076171875,0.0006346561713144183,0.00005346664693206549,0.002003189641982317
1783696336093866000,10.081865966796874,0.0010666209273040295,-0.0023748036473989487,-0.0015135144349187613
1783696336103829800,10.091829833984375,-0.0009090999374166131,0.0017429351573809981,-0.0005014005582779646
1783696336113793000,10.10179296875,0.0007785452180542052,-0.0006941234460100532,0.0007707914337515831
1783696336123756000,10.111756103515624,-0.00007580540113849565,-0.0010481621138751507,-0.0006221091607585549
1783696336133719000,10.121718994140625,0.000025927351089194417,0.0011039383243769407,0.0009925654157996178
1783696336143683000,10.13168310546875,-0.008558717556297779,0.09790056198835373,0.11230190098285675
1783696336153646000,10.14164599609375,-0.00268325163051486,0.11935924738645554,0.18328766524791718
1783696336163609000,10.151609130859375,-0.0018915145192295313,0.04790988564491272,0.0923829898238182
1783696336173573000,10.161572998046875,0.0008989456109702587,-0.03362945094704628,-0.02696523815393448
1783696336183536000,10.1715361328125,0.004295199178159237,-0.020997678861021996,-0.07161256670951843
1783696336193499100,10.1814990234375,0.005562864243984222,-0.008067233487963676,-0.06907883286476135
1783696336203462000,10.1914619140625,0.006526811048388481,-0.031184567138552666,-0.08336357772350311
1783696336213426000,10.201426025390624,-0.000533228856511414,-0.06964913010597229,-0.08770692348480225
1783696336223389000,10.211388916015625,-0.002275106031447649,-0.09755232185125351,-0.052564628422260284
1783696336233352000,10.22135205078125,0.0004445139493327588,-0.04580311104655266,0.004393461626023054
