time,seconds_elapsed,z,y,x
1783696368808791000,0.061791015625,0.00018748370348475873,0.008891093544661999,-0.011536521837115288
1783696368818754000,0.071754150390625,0.001124117523431778,0.02066492848098278,-0.010226246900856495
1783696368828717800,0.0817177734375,0.0007048856932669878,-0.00658015813678503,0.004260387737303972
1783696368838681000,0.09168115234375,0.0006196645554155111,-0.01635608822107315,0.007763775996863842
1783696368848644000,0.10164404296875,0.00003857610863633454,0.005224250257015228,-0.00035403016954660416
1783696368858607000,0.111607177734375,0.0005104882875457406,0.00734039768576622,-0.005272355861961842
1783696368868571100,0.121571044921875,-0.0008515444351360202,-0.0032672749366611242,-0.002571677090600133
1783696368878534000,0.131533935546875,-0.0012398331891745329,-0.000703450059518218,-0.0009064024779945612
1783696368888497000,0.141496826171875,0.0004349884111434221,0.0008811936131678522,0.004252818413078785
1783696368898460000,0.1514599609375,0.0008853289182297885,-0.0015952797839418054,0.004715409595519304
1783696368908424000,0.161423828125,0.0013467264361679554,-0.00021791935432702303,-0.0026012053713202477
1783696368918387000,0.171386962890625,0.0009986513759940863,0.0017027524299919605,-0.005471294280141592
1783696368928350000,0.181349853515625,-0.0008330708369612694,0.0006153837312012911,-0.0009037067648023367
1783696368938313000,0.19131298828125,-0.0002684806822799146,-0.0008693286217749119,0.0048375362530350685
1783696368948277000,0.201277099609375,-0.0014664531918242574,-0.0018635764718055725,0.0027909057680517435
1783696368958240000,0.211239990234375,0.0019152286695316434,0.0028611375018954277,-0.006060110405087471
1783696368968202800,0.22120263671875,-0.0016879936447367072,0.001755066798068583,-0.00047723075840622187
1783696368978165800,0.231165771484375,-0.00019262867863290012,-0.004374731332063675,0.005981201305985451
1783696368988129800,0.2411298828125,-0.0004419618926476687,-0.0006166243692860007,0.0019995856564491987
1783696368998092800,0.2510927734375,-0.0008014886407181621,0.0036034206859767437,-0.0023123384453356266
1783696369008055800,0.261055908203125,-0.0005039999959990382,-0.002412131056189537,0.0006861414876766503
1783696369018019000,0.27101904296875,0.00022650507162325084,-0.0001764075132086873,0.00021236506290733814
1783696369027982000,0.280982177734375,0.0001399755710735917,0.0014890769962221384,0.0015440137358382344
1783696369037946000,0.290946044921875,0.0002994989336002618,-0.002329363254830241,0.0017520065885037184
1783696369047909000,0.3009091796875,0.001055391039699316,-0.000027236994355916977,0.00001428497489541769
1783696369057872100,0.3108720703125,-0.000720937387086451,0.0009626600076444447,-0.00043605559039860964
1783696369067835000,0.3208349609375,0.0007675480446778238,-0.00008109631016850471,-0.0005704235518351197
1783696369077799000,0.330798828125,-0.001022628857754171,0.0017098794924095273,0.0003592859720811248
1783696369087762000,0.340761962890625,-0.0008331914432346821,-0.0012258993228897452,0.0037172569427639246
1783696369097725000,0.350724853515625,0.0011018613586202264,-0.0009601159254088998,-0.001473244046792388
1783696369107688000,0.36068798828125,0.000025882021873258054,0.0037918821908533573,-0.0017099222168326378
1783696369117652000,0.37065185546875,-0.0016103640664368868,-0.0018127401126548648,0.0014509836910292506
1783696369127615000,0.380614990234375,-0.0005085912998765707,-0.0019323721062391996,0.0000741968397051096
1783696369137578000,0.390577880859375,-0.00023082364350557327,0.0006359805120155215,-0.00015643297228962183
1783696369147541000,0.400541015625,0.00004805474600289017,-0.0009574528085067868,-0.0016447515226900578
1783696369157505000,0.410505126953125,-0.001025731791742146,-0.000749459839425981,-0.00035684695467352867
1783696369167467800,0.4204677734375,0.0013319877907633781,0.003504883497953415,0.000004345318302512169
1783696369177430800,0.4304306640625,0.001024925266392529,-0.000005429028533399105,0.00012072548270225525
1783696369187393800,0.440393798828125,-0.0004071599105373025,-0.0024819360114634037,0.00033851328771561384
1783696369197357800,0.45035791015625,0.0014384107198566198,-0.0001569964224472642,0.00008471403270959854
1783696369207320800,0.46032080078125,-0.0008206290658563375,0.00032453308813273907,0.000634476135019213
1783696369217283800,0.470283935546875,-0.00009784710709936917,0.0002939067780971527,0.00014259025920182467
1783696369227247000,0.4802470703125,-0.00041274697287008166,0.0006307666189968586,0.00011906877625733614
1783696369237211000,0.4902109375,0.0005883352714590728,-0.001016132184304297,-0.00019731477368623018
1783696369247174100,0.500174072265625,0.0004116204218007624,0.0017191831720992923,-0.0011234642006456852
1783696369257137200,0.51013720703125,-0.000214488769415766,0.0021623331122100353,-0.0007977597415447235
1783696369267100000,0.520099853515625,-0.00018275152251590043,-0.0031118059996515512,-0.000823483569547534
1783696369277064000,0.53006396484375,-0.00014733147691003978,0.0003742716507986188,-0.0005108285695314407
1783696369287027000,0.54002685546875,0.0004887387622147799,0.0018722846871241927,0.00027061509899795055
1783696369296990000,0.549989990234375,-0.000763745978474617,-0.0028769304044544697,-0.0001648117322474718
1783696369306953000,0.559952880859375,0.000036719124182127416,0.0009235762991011143,-0.0014516417868435383
1783696369316917000,0.5699169921875,-0.0004610256874002516,0.001437832717783749,0.0010131136514246464
1783696369326880000,0.5798798828125,0.0011984193697571754,-0.0005912382621318102,0.0006240810034796596
1783696369336843000,0.589843017578125,0.0009446200565434992,0.0008103834697976708,-0.0016997933853417635
1783696369346806000,0.599805908203125,0.0008022731053642929,0.0016319522401317954,-0.0007611983455717564
1783696369356770000,0.60977001953125,0.0003990705590695143,-0.0012093742843717337,-0.0019154124893248081
1783696369366732800,0.61973291015625,0.0006005787872709334,0.00006762787234038115,-0.0014529183972626925
1783696369376695800,0.62969580078125,-0.00041701504960656166,-0.00002718064934015274,0.0006296736537478864
1783696369386658800,0.639658935546875,0.0000928002264117822,-0.0009556784061715007,-0.002128900960087776
1783696369396621800,0.649621826171875,-0.00006539154856000096,0.0016156035708263516,0.0009933889377862215
1783696369406585900,0.6595859375,-0.0018492996459826827,-0.0006314871134236455,0.001759686623699963
1783696369416548900,0.669548828125,-0.0000314258795697242,-0.0015066018095239997,0.0010329099604859948
1783696369426512100,0.67951220703125,-0.0010627630399540067,0.000736828485969454,0.0003549427492544055
1783696369436475100,0.68947509765625,-0.000929871283005923,-0.0005553372902795672,0.00022391520906239748
1783696369446439000,0.69943896484375,-0.0002824183029588312,-0.0007547917775809765,0.001634044572710991
1783696369456402200,0.709402099609375,-0.0023732660338282585,0.001793853472918272,-0.000004065805114805698
1783696369466365000,0.719364990234375,-0.00037230266025289893,-0.0005539727862924337,0.0023313837591558695
1783696369476328000,0.729327880859375,0.0007653997745364904,0.0003536323783919215,-0.0015307323774322867
1783696369486292000,0.7392919921875,0.00084751594113186,0.0016464977525174618,0.00171426753513515
1783696369496255000,0.7492548828125,0.00017267085786443204,-0.0018318569054827094,0.0004239660338498652
1783696369506218000,0.759218017578125,0.0003554506110958755,0.0010712475050240755,-0.0003806783352047205
1783696369516181000,0.769180908203125,-0.00029169756453484297,0.0018867073813453317,-0.0001548422733321786
1783696369526145000,0.77914501953125,0.00030976292327977717,-0.0011062808334827423,0.0009176285238936543
1783696369536108000,0.78910791015625,-0.00021434716472867876,0.0017057509394362569,-0.0009953200351446867
1783696369546071000,0.799071044921875,0.0005259857280179858,0.0005603313911706209,0.0004560248926281929
1783696369556033800,0.80903369140625,0.00006765571015421301,-0.002099633915349841,-0.0012473328970372677
1783696369565997800,0.818997802734375,-0.0013699410483241081,0.0007148995064198971,-0.0005150098586454988
1783696369575961900,0.8289619140625,-0.0007286518812179565,0.002231569727882743,-0.0002170021180063486
1783696369585924900,0.8389248046875,-0.0004007886745966971,-0.002745620207861066,0.00011645408812910318
1783696369595887900,0.848887939453125,0.0004615428624674678,0.0024768386501818895,-0.0005224382039159536
1783696369605851000,0.858850830078125,0.0007002227357588708,0.00018996675498783588,0.0001341890310868621
1783696369615815000,0.86881494140625,-0.0006577230524271727,-0.0018952882383018732,0.0006865286268293858
1783696369625777700,0.878777587890625,-0.00023506433353759348,0.0009887272026389837,-0.0006170417182147503
1783696369635740700,0.88874072265625,0.0018254233291372657,0.001055306289345026,-0.0003853467060253024
1783696369645703700,0.89870361328125,-0.00008460416574962437,-0.0019324711756780744,0.00034640380181372166
1783696369655667700,0.908667724609375,-0.0007192354532890022,-0.0007260591955855489,-0.0011178022250533104
1783696369665630700,0.918630615234375,-0.00027623295318335295,0.0007263633888214827,0.0015546245267614722
1783696369675593700,0.92859375,0.0009600064367987216,-0.0025653038173913956,-0.0009823027066886425
1783696369685557000,0.938556884765625,0.0006282671238295734,-0.0003299626987427473,-0.0003668696153908968
1783696369695520800,0.948520751953125,0.0006783345597796142,-0.00018881529103964567,0.0012912144884467125
1783696369705484000,0.958484130859375,0.00038710772059857845,-0.0019961148500442505,0.00010732968803495169
1783696369715446800,0.96844677734375,-0.001092810882255435,0.0024785283021628857,-0.0001086527481675148
1783696369725409800,0.978409912109375,-0.0007083019008859992,-0.0012410550843924284,0.0014368747361004353
1783696369735373800,0.988373779296875,-0.00044411636190488935,-0.0012503762263804674,-0.0010390660027042031
1783696369745336800,0.9983369140625,-0.00040853634709492326,0.000979338539764285,0.0005392338498495519
1783696369755299800,1.0082998046875,-0.0010162696707993746,-0.002815399318933487,-0.0009225752437487245
1783696369765262800,1.018262939453125,0.00014646098134107888,-0.0010292716324329376,0.0004157859948463738
1783696369775227000,1.028226806640625,-0.0011481016408652067,0.0028919668402522802,0.0010195246431976557
1783696369785190000,1.03818994140625,0.00004001468187198043,-0.0010111673036590219,0.0001508902059867978
1783696369795153000,1.04815283203125,-0.0008971517090685666,-0.000705436454154551,0.000007345806807279587
1783696369805116000,1.058115966796875,0.0001862880017142743,0.0017786804819479585,0.0004072337760590017
1783696369815078700,1.06807861328125,-0.0015783224953338504,-0.0015625214437022805,0.0018344218842685223
1783696369825042700,1.078042724609375,-0.00022976375475991517,0.000047135865315794945,-0.0008758766343817115
1783696369835005700,1.088005615234375,-0.000033755102776922286,0.001755553763359785,-0.00041115505155175924
1783696369844968700,1.09796875,-0.0016336935805156827,-0.003247670130804181,-0.00020231539383530617
1783696369854931700,1.107931640625,0.0006603533402085304,0.0009263022802770138,-0.0003554470604285598
1783696369864895700,1.117895751953125,0.0003376393869984895,0.0032303761690855026,0.0004253088845871389
1783696369874858800,1.127858642578125,0.00045055741793476045,-0.0011606438783928752,0.0012658025370910764
1783696369884822000,1.137822021484375,-0.0028662006370723248,0.0007355273119173944,-0.00011053914204239845
1783696369894785000,1.147784912109375,0.0006209425046108663,0.0014135681558400393,0.00032142549753189087
1783696369904748800,1.157748779296875,-0.0009585354709997773,-0.0011314116418361664,-0.0002393149770796299
1783696369914711800,1.1677119140625,0.0002753070439212024,0.0004600933752954006,-0.0019666412845253944
1783696369924674800,1.1776748046875,0.001396401901729405,0.0013412466505542397,0.0020768186077475548
1783696369934637800,1.187637939453125,-0.0005290635162964463,-0.0013903577346354723,0.0002837121719494462
1783696369944600800,1.197600830078125,-0.00015632729628123343,0.0007960647926665843,-0.000875354977324605
1783696369954564900,1.20756494140625,-0.001685514347627759,-0.0011933165369555354,-0.00031981966458261013
1783696369964527900,1.21752783203125,0.0004002194036729634,-0.0013104294193908572,-0.00031996751204133034
1783696369974491000,1.227490966796875,0.0005544164450839162,0.0025913678109645844,-0.002308549825102091
1783696369984454000,1.237453857421875,0.0008003544644452631,-0.0005375538021326065,-0.00026233040262013674
1783696369994418000,1.24741796875,0.0008280512993223965,-0.0016334445681422949,-0.0020442516542971134
1783696370004380700,1.257380615234375,0.0008955252123996615,0.0017038494115695357,0.0004450228880159557
1783696370014343700,1.26734375,0.0010646359296515584,-0.0009569149697199464,0.0013606176944449544
1783696370024306700,1.277306640625,-0.0007672574138268828,-0.001970742829144001,-0.002323833992704749
1783696370034270700,1.287270751953125,-0.000200270427740179,0.0015052149537950754,0.0008719592588022351
1783696370044233700,1.297233642578125,-0.0005305014783516526,-0.00029423332307487726,0.0003363832365721464
1783696370054196700,1.30719677734375,0.000008256043656729162,0.0004927307600155473,0.00023571576457470655
1783696370064159700,1.31715966796875,0.00022227808949537575,0.0014969217590987682,0.0002628626534715295
1783696370074123000,1.327123046875,0.000279536034213379,-0.00024238880723714828,0.0003723185509443283
1783696370084086800,1.337086669921875,-0.0007520014187321067,0.001283568679355085,-0.0008210790110751987
1783696370094050000,1.347050048828125,0.0009654710884205997,0.0014004814438521862,-0.0007497061742469668
1783696370104012800,1.3570126953125,0.00008392187010031193,-0.002161701675504446,0.0009141173213720322
1783696370113975800,1.366975830078125,-0.000036985642509534955,0.0016982841771095991,-0.0011767303803935647
1783696370123939800,1.37693994140625,0.0003285064594820142,0.0014668878866359591,0.00030085130129009485
1783696370133902800,1.38690283203125,0.00015140620234888047,-0.0022277156822383404,-0.00048531393986195326
1783696370143865900,1.396865966796875,-0.000053262978326529264,0.00043653801549226046,0.0007750059012323618
1783696370153828900,1.406828857421875,0.0013060144847258925,0.001425636000931263,0.001323350821621716
1783696370163793000,1.41679296875,-0.000006678703357465565,-0.00131523166783154,-0.000030669267289340496
1783696370173756000,1.426755859375,0.00008440139936283231,0.001094662700779736,-0.00040164764504879713
1783696370183719000,1.436718994140625,-0.001377941225655377,0.0011710443068295717,-0.0006924489280208945
1783696370193681700,1.446681640625,-0.0027923460584133863,-0.0017573676304891706,-0.0003054917324334383
1783696370203644700,1.456644775390625,0.0006062741158530116,0.0009683441021479666,-0.0009835913078859448
1783696370213608700,1.466608642578125,-0.00026298165903426707,-0.000037531834095716476,0.0009860825957730412
1783696370223571700,1.47657177734375,0.00006680276419501752,-0.0014289437094703317,0.0001301337033510208
1783696370233534700,1.48653466796875,-0.0004447904648259282,0.0024550105445086956,-0.0009047708008438349
1783696370243497700,1.496497802734375,-0.00115689798258245,-0.000553034944459796,0.0007504358072765172
1783696370253461800,1.506461669921875,-0.0006503647309727967,-0.001463569700717926,-0.0003726192517206073
1783696370263424800,1.5164248046875,0.00004307366907596588,0.0035053722094744444,-0.0003186422400176525
1783696370273388000,1.526387939453125,0.0005267037195153534,-0.0001599363749846816,0.0017170780338346958
1783696370283350800,1.536350830078125,-0.0005180543521419168,-0.0020049745216965675,0.0005825714906677604
1783696370293314800,1.546314697265625,-0.0002575972175691277,0.001486962428316474,0.0004885618691332638
1783696370303277800,1.55627783203125,0.0008770155254751444,-0.0017032058676704764,-0.00014494394417852163
1783696370313240800,1.56624072265625,0.00031189274159260094,-0.0009042575256898999,-0.0015276572667062283
1783696370323203800,1.576203857421875,0.000989299500361085,-0.0006217104382812977,-0.0004972955211997032
1783696370333166800,1.586166748046875,-0.0003382862196303904,-0.0010518108028918505,0.000187935889698565
1783696370343131000,1.596130859375,0.00007398793241009116,-0.0006991132395341992,-0.0017580308485776186
1783696370353094000,1.606093994140625,-0.00024532509269192815,0.003168595489114523,0.0005189718795008957
1783696370363057000,1.616056884765625,0.0011843129759654403,-0.0010720730060711503,-0.00015304656699299812
1783696370373020000,1.62602001953125,0.0008551461505703628,-0.0012409173650667071,-0.00016875925939530134
1783696370382984000,1.63598388671875,0.0012475359253585339,0.0009687329875305295,0.00003572122659534216
1783696370392946700,1.64594677734375,-0.0005226671928539872,-0.0019325147150084376,-0.00034138234332203865
1783696370402909700,1.65590966796875,0.000013266268069855869,-0.0005884343991056085,0.0006864294991828501
1783696370412872700,1.665872802734375,0.0009525632485747337,0.0010752422967925668,0.0024499748833477497
1783696370422835700,1.675835693359375,0.0005908592138439417,-0.0006677677156403661,-0.00007151102181524038
1783696370432799700,1.6857998046875,0.0006209529237821698,-0.00022568285930901766,-0.000507736811414361
1783696370442762800,1.6957626953125,0.0005342968506738544,0.0014472343027591705,0.0008040410466492176
1783696370452725800,1.705725830078125,-0.0008774448651820421,-0.0017205957556143403,0.0003696794738061726
1783696370462689000,1.71568896484375,-0.0010422576451674104,0.0005921563133597374,0.00037898565642535686
1783696370472652800,1.72565283203125,0.0007657624082639813,0.000670985784381628,0.0014421194791793823
1783696370482615800,1.73561572265625,-0.00011062898556701839,0.00016142474487423897,-0.000554392347112298
1783696370492578800,1.745578857421875,-0.00016096272156573832,0.002113521797582507,-0.00033255096059292555
1783696370502541800,1.755541748046875,-0.0006496857386082411,0.0011079831747338176,0.0020624161697924137
1783696370512504800,1.7655048828125,0.0014968221075832844,-0.0013029766269028187,-0.00025346875190734863
1783696370522468900,1.77546875,-0.0013053622096776962,0.0019264939473941922,0.0003708032891154289
1783696370532432000,1.785431884765625,-0.00010960287181660533,0.0007104945834726095,0.0006861215806566179
1783696370542395000,1.795394775390625,-0.00018666071991901845,-0.002436698181554675,-0.0005997838452458382
1783696370552358000,1.80535791015625,0.00021574291167780757,0.0015729571459814906,0.0004931775038130581
1783696370562322000,1.815322021484375,-0.00021609358373098075,0.0002641826868057251,0.001179272192530334
1783696370572284400,1.825284423828125,0.0007857875898480415,-0.001408282434567809,-0.000969366286881268
1783696370582247400,1.835247314453125,-0.00007004078361205757,0.0027885418385267258,0.0002629781956784427
1783696370592210400,1.84521044921875,0.0012399682309478521,-0.0018600057810544968,0.0009074631379917264
1783696370602173400,1.85517333984375,0.001127375173382461,-0.0006858673878014088,-0.0011633385438472033
1783696370612137500,1.865137451171875,-0.00023136955860536546,0.0019211010076105595,0.00022683164570480585
1783696370622100500,1.8751005859375,0.0002482958952896297,-0.0006266600685194135,-0.0005780570209026337
1783696370632063500,1.8850634765625,0.00017878739163279533,0.0005400707013905048,0.00025844183983281255
1783696370642026500,1.895026611328125,0.0001600085524842143,0.0034718639217317104,-0.0007038672920316458
1783696370651990500,1.904990478515625,0.0011837277561426163,-0.0003870563814416528,-0.0007555326446890831
1783696370661953500,1.91495361328125,0.0008875293424353004,-0.00003452470991760492,-0.0015801471890881658
1783696370671916500,1.92491650390625,0.0006888575153425336,0.0024238391779363155,-0.0019537885673344135
1783696370681879600,1.934879638671875,0.0004263962619006634,-0.0018746599089354277,0.0015513645485043526
1783696370691842600,1.944842529296875,0.001058897003531456,0.00048490078188478947,-0.00029101024847477674
1783696370701806600,1.954806640625,0.0009308030130341649,0.0004510285798460245,0.0016514610033482313
1783696370711769300,1.964769287109375,-0.0014010608429089189,-0.0005007851868867874,0.0009443918243050575
1783696370721732400,1.974732421875,0.0006166929379105568,0.00012295099440962076,0.0005179853178560734
1783696370731695400,1.9846953125,-0.0005574948154389858,0.0012707734713330865,-0.00031398620922118425
1783696370741659400,1.994659423828125,0.00002251715341117233,-0.00039309985004365444,0.0007221809355542064
1783696370751622400,2.004622314453125,-0.00018574204295873642,0.0020511492621153593,0.00021538138389587402
1783696370761585400,2.01458544921875,0.0008320798515342176,0.001416564453393221,0.0011559075210243464
1783696370771548400,2.02454833984375,-0.0012808721512556076,-0.0016303581651300192,0.00012366636656224728
1783696370781511400,2.034511474609375,0.0003255277988500893,0.0018723831744864583,-0.0005282226484268904
1783696370791475500,2.044475341796875,-0.00034425719059072435,-0.0008874507620930672,-0.0008810913423076272
1783696370801438200,2.054438232421875,0.0013478357577696443,-0.0031431596726179123,-0.0005184285109862685
1783696370811401500,2.0644013671875,0.0008040183456614614,0.0023418867494910955,-0.0006257540080696344
1783696370821364500,2.074364501953125,0.0011161642614752054,-0.00012635369785130024,0.0010159802623093128
1783696370831328500,2.08432861328125,-0.00107162247877568,-0.00006430200301110744,-0.00003144086804240942
1783696370841291500,2.09429150390625,0.0011606381740421057,0.0008338142652064562,0.0004905472160317004
1783696370851254500,2.104254638671875,-0.0006316693034023046,0.000407442101277411,-0.00019228726159781218
1783696370861217500,2.114217529296875,0.00014060143439564854,-0.0004385873908177018,0.001034341286867857
1783696370871180500,2.1241806640625,0.0002881405525840819,0.0013896726304665208,-0.001330812112428248
1783696370881144600,2.13414453125,-0.0007341754389926791,0.000011350028216838837,0.0007958069909363985
1783696370891107600,2.144107666015625,-0.00022418011212721467,-0.0017599185230210423,-0.0005160660948604345
1783696370901070300,2.1540703125,-0.0009527085348963737,0.0006566399242728949,0.0005996502586640418
1783696370911033300,2.164033447265625,0.00024757819483056664,-0.0013503183145076036,0.000963171711191535
1783696370920996400,2.173996337890625,-0.0008398395730182528,-0.0005853036418557167,-0.00093686836771667
1783696370930960400,2.18396044921875,-0.0006941646570339799,0.00127944175619632,-0.0007539093494415283
1783696370940923400,2.19392333984375,-0.00013720805873163044,-0.0017894036136567593,0.00012582400813698769
1783696370950886400,2.203886474609375,0.0005488222232088447,-0.000247166957706213,-0.00048297469038516283
1783696370960849400,2.213849365234375,0.0006847029435448349,0.0011837630299851298,0.0003535501891747117
1783696370970813400,2.2238134765625,0.0008583409944549203,-0.0022274800576269627,0.0012837923131883144
1783696370980776400,2.2337763671875,-0.0015360877150669694,-0.0009703749092295766,-0.0010108245769515634
1783696370990739500,2.243739501953125,0.000696440227329731,0.0012629518751055002,-0.00047659443225711584
1783696371000702500,2.253702392578125,0.00109186046756804,-0.002221333561465144,0.00005080422852188349
1783696371010665500,2.26366552734375,-0.0009166956879198551,0.0003054736880585551,-0.00019154336769133806
1783696371020629500,2.27362939453125,0.00006316124927252531,0.0016151944873854518,-0.00019237142987549305
1783696371030592500,2.283592529296875,-0.0010287347249686718,-0.0021699564531445503,-0.00021740514785051346
1783696371040555500,2.293555419921875,0.00010824878700077534,0.0009229153511114419,-0.0012926810886710882
1783696371050518500,2.3035185546875,-0.00138312135823071,-0.00083530368283391,-0.00021995988208800554
1783696371060482600,2.313482666015625,0.00004257338878232986,-0.0010148488217964768,-0.0004802632611244917
1783696371070445600,2.323445556640625,-0.0003068333608098328,0.0029436738695949316,-0.0008238110458478332
1783696371080408300,2.333408203125,-0.000545061775483191,0.0012031132355332375,0.0018813974456861615
1783696371090371300,2.343371337890625,-0.0009099148446694016,-0.002755409572273493,0.0007442276692017913
1783696371100334300,2.353334228515625,0.002264292910695076,0.0015409308252856135,-0.00020201748702675104
1783696371110298400,2.36329833984375,0.0004221844719722867,0.0007683477597311139,0.0019165270496159792
1783696371120261400,2.373261474609375,0.000265379436314106,-0.0027485950849950314,-0.002536511281505227
1783696371130224400,2.383224365234375,0.0002462046395521611,0.0014890270540490746,-0.0001905325334519148
1783696371140187400,2.3931875,-0.001367071527056396,-0.0009580408222973347,0.0004235225496813655
1783696371150150700,2.403150634765625,0.0007171183242462575,-0.001759119564667344,0.0009897105628624558
1783696371160114400,2.413114501953125,0.00024220801424235106,0.0023313802666962147,-0.00023603287991136312
1783696371170077400,2.423077392578125,0.0007508717244490981,-0.00014269654639065266,0.0013365637278184295
1783696371180040400,2.43304052734375,0.001332654501311481,-0.0014787692343816161,-0.0002531958743929863
1783696371190003500,2.44300341796875,-0.0006186435930430889,0.0024046520702540874,-0.0007131238235160708
1783696371199967500,2.452967529296875,0.0012540487805381417,-0.0007298546843230724,0.000010706018656492233
1783696371209930500,2.462930419921875,-0.0009193569421768188,-0.0009154770523309708,0.000013102893717586994
1783696371219893500,2.4728935546875,-0.00006107254012022167,0.002509563695639372,-0.0003061626339331269
1783696371229856500,2.4828564453125,0.00034159739152528346,-0.002130195265635848,0.0007987827993929386
1783696371239819500,2.492819580078125,-0.000018266873667016625,0.00006391271017491817,-0.0009797823149710894
1783696371249783600,2.502783447265625,0.0004304757749196142,0.0030154939740896225,-0.0007552779279649258
1783696371259746600,2.51274658203125,-0.0004937405465170741,-0.0026488343719393015,0.000022146268747746944
1783696371269709300,2.522709228515625,-0.00043674896005541086,0.0020210188813507557,0.0009214958408847451
1783696371279672300,2.53267236328125,-0.0005505641456693411,0.001381089212372899,-0.0012352599296718836
1783696371289636400,2.54263623046875,0.001538685755804181,-0.0015164301730692387,0.00024758814834058285
1783696371299599400,2.552599365234375,-0.0005443954141810536,0.001215781201608479,-0.0006650566356256604
1783696371309562400,2.562562255859375,-0.0007750251679681242,0.0005209625232964754,-0.0009385632583871484
1783696371319525400,2.572525390625,-0.000068083027144894,-0.0012210498098284006,-0.00021893414668738842
1783696371329488600,2.582488525390625,0.002834496321156621,0.0013904458610340953,-0.00011294032447040081
1783696371339452400,2.592452392578125,-0.0006350334733724594,0.0005626817001029849,-0.0008436812786385417
1783696371349415400,2.60241552734375,0.00006191572174429893,-0.002145220525562763,0.0009757903171703219
1783696371359378400,2.61237841796875,0.0003127132367808372,-0.000004980829544365406,0.0010075420141220093
1783696371369341400,2.622341552734375,-0.00043749925680458546,-0.0005117802647873759,0.000768656434956938
1783696371379304400,2.632304443359375,-0.0007352505926974118,-0.0014155034441500902,-0.0005103581352159381
1783696371389268500,2.6422685546875,0.0013582604005932808,0.00038719025906175375,0.0012374744983389974
1783696371399231500,2.6522314453125,0.0004530806327238679,-0.00035493250470608473,-0.00033279007766395807
1783696371409194500,2.662194580078125,-0.0018833104986697435,-0.0010763828177005053,0.00017667270731180906
1783696371419157500,2.672157470703125,0.0006477516726590693,0.003619974944740534,-0.00020265905186533928
1783696371429121500,2.68212158203125,-0.0011549420887604356,-0.0019151390297338367,0.001065538264811039
1783696371439084500,2.69208447265625,-0.0007330897497013211,0.0002563773887231946,-0.0015858032274991274
1783696371449047300,2.70204736328125,0.00027385144494473934,0.0020795774180442095,-0.00013997312635183334
1783696371459010300,2.71201025390625,0.000479724578326568,-0.0011502783745527267,0.0008529203478246927
1783696371468973300,2.721973388671875,-0.0011722341878339648,-0.0010607962030917406,0.0009554520365782082
1783696371478937300,2.731937255859375,0.0006038715364411473,0.0014464166015386581,0.00023181189317256212
1783696371488900400,2.741900390625,-0.0006286394200287759,-0.000916073564440012,0.0010632508201524615
1783696371498863400,2.75186328125,0.0013887439854443073,-0.00012722262181341648,-0.0015804425347596407
1783696371508826400,2.761826416015625,-0.0005489720497280359,0.0008307163952849805,0.000653150724247098
1783696371518789600,2.77178955078125,-0.00005443872942123562,-0.0017082456033676863,-0.00020304892677813768
1783696371528753400,2.78175341796875,0.0014252136461436749,0.0014409424038603902,-0.0009854856180027127
1783696371538716700,2.791716552734375,0.001131214783526957,-0.0006045046029612422,0.000443739554611966
1783696371548679400,2.801679443359375,0.0005197529681026936,-0.001609048922546208,0.0006269650184549391
1783696371558642400,2.811642333984375,0.00037194014294072986,0.0004993496695533395,-0.0004751960514113307
1783696371568606500,2.8216064453125,-0.000636066310107708,0.0018623555079102516,-0.000910356524400413
1783696371578569500,2.831569580078125,0.0001515914045739919,-0.0014148341724649072,-0.00008195312693715096
1783696371588532200,2.8415322265625,-0.000849224510602653,0.00046802067663520575,-0.0021219344343990088
1783696371598495200,2.8514951171875,0.0007856402080506086,0.0020763308275491,0.0001324926270172
1783696371608458200,2.861458251953125,-0.0003691064193844795,-0.003817511023953557,-0.00022170779993757606
1783696371618422300,2.87142236328125,-0.00022958368936087936,0.001093782251700759,-0.0011444981209933758
1783696371628385300,2.88138525390625,-0.0006993652787059546,-0.0001879972405731678,0.0004009342519566417
1783696371638348300,2.891348388671875,0.0005904919235035777,-0.001979346852749586,-0.000569869123864919
1783696371648311300,2.901311279296875,-0.00016451426199637353,0.0006942005711607635,-0.0010369876399636269
1783696371658274300,2.9112744140625,0.00003599407500587404,0.00011026463471353054,0.0011755062732845545
1783696371668238300,2.92123828125,0.000638134777545929,-0.002697506221011281,-0.00005221099127084017
1783696371678201300,2.931201416015625,-0.00045079426490701735,0.0029248837381601334,-0.0002889316529035568
1783696371688164400,2.941164306640625,0.001393711194396019,-0.000664791208691895,-0.0014609888894483447
1783696371698127400,2.95112744140625,-0.00045385974226519465,-0.000482786912471056,-0.00018872448708862066
1783696371708091100,2.961091064453125,0.00018423364963382483,0.0013577236095443368,-0.0011623762547969818
1783696371718054400,2.971054443359375,0.0015854283701628447,0.0003892366075888276,-0.00038485194090753794
1783696371728017400,2.981017333984375,0.0008293569553643465,-0.0018696566112339497,-0.0000386409810744226
1783696371737980400,2.99098046875,0.0017010788433253765,0.0014857975766062737,0.0003081498434767127
1783696371747943400,3.000943359375,0.00015990741667337716,-0.0002694919239729643,0.00013664225116372108
1783696371757907500,3.010907470703125,-0.001186807407066226,-0.00037357956171035767,-0.0017090197652578354
1783696371767870500,3.020870361328125,0.0002568922354839742,0.00206587603315711,0.0006846292526461184
1783696371777833200,3.030833251953125,0.0012071351520717144,-0.0017613843083381653,0.00041465304093435407
1783696371787796200,3.040796142578125,-0.0001026075187837705,-0.0017938748933374882,-0.000341152073815465
1783696371797759200,3.05075927734375,0.0010960267391055822,0.0008781948126852512,-0.00008514622459188104
1783696371807723300,3.06072314453125,0.00044568278826773167,-0.001389753189869225,-0.000894747267011553
1783696371817686300,3.070686279296875,0.0008785431273281574,0.0010474070440977812,-0.0012591052800416946
1783696371827649300,3.080649169921875,0.0009128979872912169,0.003028532490134239,-0.0009107639198191464
1783696371837612300,3.0906123046875,-0.0008514374494552612,-0.0017116216477006674,-0.0003875362453982234
1783696371847576300,3.100576416015625,-0.00010335553088225424,0.001026906888000667,0.000059075828175991774
1783696371857539300,3.110539306640625,0.0007301349542103708,-0.0006460654549300671,-0.000020697712898254395
1783696371867502300,3.12050244140625,0.0012161617632955313,-0.0035214805975556374,0.002003038302063942
1783696371877465300,3.13046533203125,-0.00022754525707568973,0.00032594986259937286,0.0001079996582120657
1783696371887428400,3.140428466796875,0.0010656857630237937,0.00024126132484525442,-0.0004448725376278162
1783696371897392400,3.150392333984375,0.0016736797988414764,-0.002811838872730732,0.00032985099824145436
1783696371907355400,3.16035546875,0.0016379933804273605,0.00014027534052729607,-0.0017127934843301773
1783696371917318400,3.170318359375,0.0002865637943614274,0.00008591229561716318,-0.0007214054930955172
1783696371927281400,3.180281494140625,-0.0017044154228642583,-0.0016238370444625616,0.0005875382339581847
1783696371937245400,3.190245361328125,0.0009751410689204931,0.00115305301733315,-0.0013549982104450464
1783696371947208400,3.20020849609375,-0.000989206600934267,0.0013024562504142523,0.0013395880814641714
1783696371957171200,3.210171142578125,0.000014543533325195312,-0.0025626979768276215,-0.00041267345659434795
1783696371967134200,3.22013427734375,0.00008272044942714274,0.001881585456430912,0.00048587704077363014
1783696371977097200,3.23009716796875,-0.0005900197429582477,-0.0003314100904390216,-0.0002637301804497838
1783696371987061200,3.240061279296875,-0.0009298390941694379,-0.001698677078820765,-0.001088244840502739
1783696371997024300,3.250024169921875,0.0003164658846799284,0.0019558733329176903,-0.0002538281260058284
1783696372006987300,3.2599873046875,0.0011950427433475852,-0.0002614745171740651,0.0002425850834697485
1783696372016950300,3.2699501953125,-0.0005493672797456384,-0.0005634813569486141,-0.001977791078388691
1783696372026914300,3.279914306640625,0.0016429469687864184,0.0022421586327254772,-0.0016329116187989712
1783696372036877300,3.289877197265625,-0.0005359975039027631,-0.00027463817968964577,-0.0005911857588216662
1783696372046840300,3.29984033203125,-0.0002779371861834079,-0.001001414842903614,-0.000378931756131351
1783696372056803300,3.30980322265625,-0.0019277401734143496,0.001864035613834858,-0.0012021178845316172
1783696372066766300,3.319766357421875,0.000603061867877841,-0.001666783238761127,0.000056758406572043896
1783696372076730400,3.32973046875,-0.0004714419483207166,0.0010458180913701653,-0.0008889284217730165
1783696372086693400,3.339693359375,0.0010960946092382073,0.0024093566462397575,-0.00010649173054844141
1783696372096656400,3.349656494140625,0.0022638977970927954,-0.0027550077065825462,-0.00015652342699468136
1783696372106619400,3.359619384765625,-0.0002493271604180336,-0.0011403328971937299,0.0013454994186758995
1783696372116583400,3.36958349609375,-0.00022912015265319496,0.000915632292162627,-0.0005113957449793816
1783696372126546400,3.37954638671875,-0.0007481703069061041,-0.0015645695384591818,0.001022318727336824
1783696372136509400,3.389509521484375,0.001712477533146739,0.000642431783489883,-0.00037412589881569147
1783696372146472200,3.39947216796875,-0.0003104597271885723,0.0014648159267380834,-0.0007304567843675613
1783696372156435200,3.409435302734375,0.0003351983614265919,-0.003062752541154623,-0.0017623333260416985
1783696372166399200,3.419399169921875,-0.0006094248383305967,0.0018004460725933313,-0.00048588018398731947
1783696372176362200,3.4293623046875,-0.00044120047823525965,0.0000368728069588542,-0.001187648973427713
1783696372186325200,3.4393251953125,0.00027652140124700963,-0.0017269387608394027,-0.0020166910253465176
1783696372196288300,3.449288330078125,-0.00027157962904311717,0.0017730200197547674,0.0011115750530734658
1783696372206252300,3.459252197265625,0.0003686443087644875,0.001346381613984704,0.0017137157265096903
1783696372216215300,3.46921533203125,0.0005711109843105078,-0.0020167941693216562,-0.00024388288147747517
1783696372226178300,3.47917822265625,0.0008262417977675796,0.001809902023524046,0.0004187115700915456
1783696372236141300,3.489141357421875,0.0012840358540415764,0.0006512345280498266,0.0017997631803154945
1783696372246104300,3.499104248046875,-0.0005607357015833259,-0.0013858173042535782,-0.002601376734673977
1783696372256068400,3.509068359375,0.0021109299268573523,0.0027066648472100496,0.0000036106212064623833
1783696372266031400,3.51903125,-0.0006899165455251932,-0.0008132351795211434,0.0005149375647306442
1783696372275994400,3.528994384765625,0.0011061867699027061,-0.0005778227932751179,0.0009309481829404831
1783696372285957400,3.538957275390625,0.0006385357119143009,0.001082125585526228,0.0006004498573020101
1783696372295921400,3.54892138671875,-0.00035492749884724617,-0.0004982467507943511,0.0008594685350544751
1783696372305884400,3.558884521484375,-0.001199682243168354,-0.0016487323446199298,0.0007167230942286551
1783696372315847400,3.568847412109375,-0.0005930619081482291,0.002298650797456503,0.0006049205549061298
1783696372325810400,3.578810546875,0.000462082534795627,0.0002725179074332118,0.0009018630371429026
1783696372335773200,3.588773193359375,-0.0023485433775931597,0.0005567281041294336,-0.0014330081176012754
1783696372345737200,3.5987373046875,0.0012746871216222644,0.002993253991007805,0.0005598352872766554
1783696372355700200,3.6087001953125,0.00047377683222293854,-0.00031975924503058195,-0.00019418657757341862
1783696372365663200,3.618663330078125,-0.0005241096368990839,-0.0024271183647215366,-0.0008493242785334587
1783696372375626200,3.628626220703125,0.0009523158660158515,0.0021061489824205637,-0.0003868984058499336
1783696372385590300,3.63859033203125,-0.0011632993118837476,-0.000847030314616859,0.0011550717754289508
1783696372395553300,3.64855322265625,0.0003420049324631691,0.0006538876332342625,-0.0017948700115084648
1783696372405516300,3.658516357421875,-0.0004532149760052562,0.00118811777792871,0.0007423236384056509
1783696372415479300,3.668479248046875,-0.0012684534303843975,-0.0020938641391694546,0.0009749399032443762
1783696372425442300,3.6784423828125,0.00015633771545253694,0.0015903529711067677,-0.0016445453511551023
1783696372435406300,3.68840625,-0.00133877107873559,0.00033509579952806234,0.0008917218074202538
1783696372445369300,3.698369384765625,0.0009262474486604333,-0.0024550980888307095,0.00041208649054169655
1783696372455332400,3.708332275390625,-0.0008440734818577766,0.0007947037811391056,0.000038144877180457115
1783696372465295400,3.71829541015625,-0.000413706642575562,0.0009041596786119044,0.0012117999140173197
1783696372475259400,3.72825927734375,-0.00045178038999438286,-0.0014094047946855426,-0.001004416262730956
1783696372485222400,3.738222412109375,0.0011596983531489968,0.0010561496019363403,0.0012267801212146878
1783696372495185400,3.748185302734375,0.0020238375291228294,-0.0004671699134632945,-0.00037524441722780466
1783696372505148400,3.7581484375,-0.000339451537001878,-0.0018373661441728473,0.0005896188667975366
1783696372515111200,3.768111083984375,-0.0009077821741811931,-0.0002597456332296133,-0.00028667482547461987
1783696372525075500,3.778075439453125,-0.000634009251371026,-0.001457102713175118,0.000020920298993587494
1783696372535038200,3.7880380859375,-0.0006807729369029403,-0.0014384005917236209,-0.001509855967015028
1783696372545001200,3.798001220703125,-0.0003976789303123951,0.001453259726986289,-0.001486153807491064
1783696372554964200,3.807964111328125,-0.0005694469437003136,0.000759443617425859,-0.0002107657492160797
1783696372564928300,3.81792822265625,0.0008779811323620379,-0.0004861167399212718,-0.0003495163982734084
1783696372574891000,3.82789111328125,0.001776723307557404,0.0030021185521036386,0.0005304222577251494
1783696372584854000,3.83785400390625,0.0000384780578315258,-0.0013060769997537136,0.0012657210463657975
1783696372594817300,3.8478173828125,0.0005136391846463084,-0.000518781365826726,-0.0008467272855341434
1783696372604780000,3.857780029296875,-0.00026240592706017196,0.0035007274709641933,-0.0009985275100916624
1783696372614744000,3.867744140625,0.00016109761781990528,-0.0014121870044618845,0.002211129292845726
1783696372624707000,3.87770703125,-0.0006711402093060315,-0.0014734396245330572,-0.0004672118229791522
1783696372634670000,3.887670166015625,0.0007228167960420251,0.0025906465016305447,0.00015742797404527664
1783696372644633000,3.897633056640625,-0.0014774869196116924,0.0003573194844648242,0.002086089225485921
1783696372654597000,3.90759716796875,-0.000039646896766498685,0.0003363912692293525,-0.0015513262478634715
1783696372664560000,3.91756005859375,0.00017047650180757046,-0.00009184505324810743,-0.001002981443889439
1783696372674523100,3.927523193359375,0.00028040254255756736,-0.0033431178890168667,0.0006678646896034479
1783696372684486100,3.937486083984375,0.0012769573368132114,-0.0006722337566316128,-0.0006903473986312747
1783696372694449200,3.94744921875,-0.00027994808624498546,0.000510346726514399,-0.0004133855691179633
1783696372704413200,3.9574130859375,0.0016601646784693003,-0.002553619910031557,0.0011831795563921332
1783696372714376000,3.9673759765625,-0.0009276163764297962,0.00013580173254013062,-0.0003040187293663621
1783696372724339000,3.9773388671875,-0.0010767533676698804,0.002293761121109128,0.000963645929004997
1783696372734302000,3.987302001953125,-0.000494868669193238,-0.001246273866854608,-0.0003413392696529627
1783696372744265000,3.997264892578125,0.0004489556304179132,0.002220362890511751,-0.000342670944519341
1783696372754229000,4.00722900390625,0.0004311879747547209,-0.0001991637982428074,0.0006287031574174762
1783696372764192000,4.01719189453125,0.00023491302272304893,-0.0018298173090443015,-0.00010153558105230331
1783696372774155300,4.0271552734375,0.00025914565776474774,0.0023728222586214542,-0.000602500163950026
1783696372784118300,4.0371181640625,-0.001136350678279996,0.00013496808242052794,0.00044678535778075457
1783696372794082000,4.04708203125,-0.0007684265146963298,-0.0009845788590610027,0.0018025956815108657
1783696372804045000,4.057045166015625,0.000008950228220783174,0.0034075062721967697,-0.0007143578259274364
1783696372814008000,4.067008056640625,0.00025536760222166777,0.0006830607308074832,0.0012473769020289183
1783696372823971000,4.07697119140625,-0.0007025714730843902,-0.0018962108297273517,0.0009389828192070127
1783696372833934000,4.08693408203125,0.0009244154207408428,0.0010694951051846147,0.0018045974429696798
1783696372843898000,4.096898193359375,-0.0007131623569875956,-0.0011001823004335165,-0.00006121327169239521
1783696372853861000,4.106861083984375,0.0002726120874285698,-0.0014387123519554734,-0.0008884073467925191
1783696372863824100,4.11682421875,0.0002393225731793791,0.002484390279278159,0.0003925731871277094
1783696372873787100,4.126787109375,-0.0005833267932757735,-0.0015238410560414195,0.00039129145443439484
1783696372883751200,4.136751220703125,0.0008513181237503886,0.00034836120903491974,0.00010633317288011312
1783696372893714000,4.1467138671875,-0.00002205258351750672,0.00155360484495759,-0.0004573500482365489
1783696372903677000,4.156677001953125,-0.0003522845800034702,-0.0017764117801561952,0.0004041825304739177
1783696372913640000,4.166639892578125,0.0011656699934974313,-0.0012508588843047619,0.000002086278982460499
1783696372923603000,4.17660302734375,-0.0005211762036196887,0.0035084763076156378,-0.00007408007513731718
1783696372933567000,4.18656689453125,0.0006558371242135763,-0.001363373827189207,0.000664299470372498
1783696372943530000,4.196530029296875,0.0008606342016719282,0.0001357195433229208,-0.0023053912445902824
1783696372953493000,4.206492919921875,-0.00042293453589081764,0.001298690214753151,-0.0013002402847632766
1783696372963456300,4.216456298828125,-0.002609922317788005,-0.0007223826833069324,-0.0007934408495202661
1783696372973420000,4.226419921875,0.003255091840401292,0.00008311995770782232,-0.0006577385356649756
1783696372983383300,4.23638330078125,-0.0008115550735965371,0.002511922735720873,0.00008368550334125757
1783696372993346000,4.246345947265625,-0.00015359460667241365,-0.0013867502566426992,-0.00003074121195822954
1783696373003309000,4.25630908203125,0.0005289735272526741,0.0006910480442456901,-0.0010193065972998738
1783696373013272000,4.26627197265625,-0.0004721294972114265,0.0018568504601716995,-0.0004603806883096695
1783696373023236000,4.276236083984375,0.0006541212787851691,-0.002540560904890299,-0.0011235078563913703
1783696373033199000,4.28619921875,0.00019540355424396694,0.0009446389158256352,-0.0005763533990830183
1783696373043162000,4.296162109375,0.0005232386756688356,0.0018165578367188573,0.0004713341477327049
1783696373053125000,4.306125,0.00003231303708162159,-0.001684471732005477,-0.0006143820937722921
1783696373063089200,4.316089111328125,0.00023311538097914308,0.00009718304499983788,-0.0012564703356474638
1783696373073052200,4.32605224609375,0.0003616873873397708,0.0021071038208901882,-0.001015269779600203
1783696373083015000,4.336014892578125,0.0011518471874296665,-0.0010966788977384567,0.0006787670427002013
1783696373092978000,4.34597802734375,-0.00032581499544903636,0.0012084217742085457,-0.0011187925701960921
1783696373102941000,4.35594091796875,-0.0008648388320580125,0.000024380278773605824,0.0007390286773443222
1783696373112905000,4.365905029296875,0.0007226839079521596,-0.0027549979276955128,-0.0010379865998402238
1783696373122868000,4.375867919921875,0.00007100839866325259,0.001377162872813642,0.0006469954969361424
1783696373132831000,4.3858310546875,0.00018111904500983655,0.00029225985053926706,0.0004582063411362469
1783696373142794200,4.395794189453125,0.0005888490122742951,-0.0009533006232231855,-0.0003143766662105918
1783696373152757200,4.40575732421875,-0.00019438531307969242,0.0024648504331707954,0.000702204299159348
1783696373162721300,4.41572119140625,0.00018032145453616977,0.00002140016295015812,-0.001199026359245181
1783696373172684000,4.42568408203125,-0.00027619360480457544,-0.0005855570780113339,-0.0005952209467068315
1783696373182647000,4.43564697265625,-0.00040402531158179045,0.0032946686260402203,0.0005121214198879898
1783696373192610000,4.445610107421875,0.0010704139713197947,-0.0018253328744322062,0.0005596810369752347
1783696373202574000,4.455573974609375,-0.0016433472046628594,-0.0005837671924382448,-0.00024858838878571987
1783696373212537000,4.465537109375,-0.0006232709856703877,0.0015007371548563242,-0.00015093362890183926
1783696373222500000,4.4755,0.0002079016121570021,-0.0026005306281149387,-0.000281162210740149
1783696373232463000,4.485463134765625,-0.0013214496430009604,-0.00014834036119282246,-0.0014832810265943408
1783696373242426000,4.495426025390625,0.0007193307392299175,0.0034197629429399967,0.0012227569241076708
1783696373252390100,4.50539013671875,-0.00024397295783273876,-0.0026712161488831043,0.0019623523112386465
1783696373262353200,4.515353271484375,0.000295317149721086,-0.0002067270688712597,-0.0005324969533830881
1783696373272316000,4.52531591796875,0.0011833547614514828,0.0013394850539043546,0.0012512014945968986
1783696373282279000,4.53527880859375,0.0019913578871637583,-0.0032078628428280354,0.002086102496832609
1783696373292242200,4.5452421875,-0.00008535763481631875,0.0007423734641633928,-0.0008993770461529493
1783696373302206000,4.5552060546875,0.0009215836180374026,0.0008603514870628715,-0.0005893850466236472
1783696373312169000,4.5651689453125,-0.000011659562005661428,-0.000550289754755795,-0.0010930609423667192
1783696373322132200,4.57513232421875,-0.0010369765805080533,0.0005298883188515902,0.0005450494354590774
1783696373332095200,4.58509521484375,0.000005892929038964212,0.00026354158762842417,0.002308253664523363
1783696373342059000,4.59505908203125,0.0003638217749539763,-0.0008728293469175696,-0.00019165559206157923
1783696373352022300,4.605022216796875,0.0004964100662618876,7.066410034894943e-8,0.001103701302781701
1783696373361985000,4.614985107421875,-0.000215452877455391,-0.00020712334662675858,0.0023806870449334383
1783696373371948000,4.624947998046875,0.00026680310838855803,-0.001102520851418376,0.0009285544510930777
1783696373381911000,4.6349111328125,-0.0006426663603633642,0.001700189895927906,-0.001488796784542501
1783696373391875000,4.644875,0.0007436989690177143,-0.0016967190895229578,0.0013821165775880218
1783696373401838000,4.654838134765625,0.00043184281093999743,-0.00014169944915920496,-0.0006080636521801353
1783696373411801000,4.664801025390625,-0.00048278766917064786,0.002443911274895072,0.0008590312791056931
1783696373421764000,4.67476416015625,0.000903121312148869,-0.0009327105944976211,-0.0014922735281288624
1783696373431728000,4.68472802734375,-0.0015402697026729584,-0.0012802252313122153,0.0004915589815936983
1783696373441691100,4.694691162109375,0.00004830591205973178,0.0020375410094857216,-0.0011657262220978737
1783696373451654000,4.70465380859375,-0.00021188563550822437,-0.0005393533501774073,-0.0010899238986894488
1783696373461617000,4.714616943359375,0.0007622987031936646,-0.0016381738241761923,-0.0017285499488934875
1783696373471580000,4.724579833984375,0.0015177656896412373,0.0027072906959801912,0.00007340451702475548
1783696373481544000,4.7345439453125,-0.0009741540998220444,-0.0019338001729920506,0.002859070897102356
1783696373491507000,4.7445068359375,0.000006114350981079042,0.00023489585146307945,-0.0008284378563985229
1783696373501470200,4.75447021484375,0.001810405869036913,0.002146512735635042,0.0006506817298941314
1783696373511433200,4.76443310546875,0.00024405241128988564,-0.0021597726736217737,0.0003453432582318783
1783696373521396200,4.774396240234375,0.00033619775786064565,-0.0009720027446746826,0.001040428294800222
1783696373531360300,4.7843603515625,0.0014108497416600585,0.000928482913877815,0.0008605539333075285
1783696373541323300,4.7943232421875,0.00013173342449590564,-0.0010028415126726031,-0.0007698333356529474
1783696373551286000,4.8042861328125,0.0008905967115424573,0.00010434817522764206,-0.002072547096759081
1783696373561249000,4.8142490234375,-0.0006670862785540521,0.0020061114337295294,0.00004945939872413874
1783696373571212500,4.824212646484375,0.0006186485406942666,-0.0010239406256005168,0.00030106824124231935
1783696373581176600,4.834176513671875,0.00022716386592946947,-0.00038611365016549826,-0.00033116620033979416
1783696373591139600,4.8441396484375,0.00018877239199355245,0.0001688939519226551,-0.0004104240797460079
1783696373601102300,4.854102294921875,-0.0007976624183356762,-0.0021264846436679363,-0.00014623848255723715
1783696373611065300,4.8640654296875,0.001567080500535667,0.001717870240099728,0.0014046436408534646
1783696373621029400,4.874029296875,-0.0003932723484467715,0.0007053363951854408,0.0006594911101274192
1783696373630992400,4.883992431640625,-0.00024014446535147727,-0.0005179236177355051,-0.0007798349251970649
1783696373640955400,4.893955322265625,-0.00007609374006278813,0.0003428100608289242,-0.0008336306782439351
1783696373650918400,4.90391845703125,-0.0005555106909014285,-0.000010572955943644047,0.0018074486870318651
1783696373660881400,4.91388134765625,-0.0007957278285175562,-0.0007261643186211586,-0.0002059011021628976
1783696373670845400,4.923845458984375,-0.0017820601351559162,0.0025550569407641888,0.000276416540145874
1783696373680808400,4.933808349609375,-0.0006677936180494726,-0.0009006608743220568,0.001632498111575842
1783696373690771500,4.943771484375,-0.0002470266481395811,-0.002504842821508646,-0.0014210938243195415
1783696373700734500,4.953734375,-0.0011815298348665237,0.0011740477057173848,0.0004018397885374725
1783696373710697500,4.963697509765625,0.000601905514486134,-0.0013247245224192739,0.0008500963449478149
1783696373720661500,4.97366162109375,-0.0007810740498825908,-0.00037477503065019846,0.000862080545630306
1783696373730624500,4.98362451171875,-0.0013901486527174711,0.0008197154966183007,0.001726200571283698
1783696373740587500,4.99358740234375,-0.0005214253906160593,-0.003114305902272463,0.0008521511335857213
1783696373750550500,5.003550537109375,-0.0008456963114440441,-0.00003442948218435049,-0.0005001786630600691
1783696373760514600,5.0135146484375,0.0012030735379084945,0.0000851465156301856,0.0011714874999597669
1783696373770477600,5.0234775390625,-0.0008623962057754397,-0.0023642852902412415,0.0015996545553207397
1783696373780440300,5.0334404296875,0.00008329228148795664,-0.0007552036549896002,0.0006904513575136662
1783696373790403300,5.0434033203125,-0.0012675465550273657,0.002141928067430854,0.0005354253808036447
1783696373800366300,5.053366455078125,-0.0012489043874666095,-0.004514909349381924,0.0010851018596440554
1783696373810330400,5.063330322265625,0.00015540089225396514,0.0012758714146912098,-0.0007045515812933445
1783696373820293400,5.07329345703125,0.0011948326136916876,0.00175790349021554,-0.0002137310802936554
1783696373830256400,5.08325634765625,0.0007680407725274563,-0.002584481844678521,0.001244681770913303
1783696373840219400,5.093219482421875,0.0015267754206433892,0.00017987925093621016,-0.00003336917143315077
1783696373850182700,5.1031826171875,-0.000010156712960451841,-0.00019846903160214424,0.00027665332891047
1783696373860146400,5.113146484375,0.00007453179568983614,-0.0018416394013911486,0.0011738722678273916
1783696373870109400,5.123109375,0.00014383639791049063,-0.00006119348108768463,-0.0001086583361029625
1783696373880072400,5.133072509765625,-0.000013556404155679047,0.0006059283623471856,0.0009563397616147995
1783696373890035500,5.143035400390625,0.0011395153123885393,-0.0015873780939728022,-0.0006715594790875912
1783696373899998500,5.15299853515625,-0.00009938723815139383,0.0009351681219413877,-0.0012963369954377413
1783696373909962500,5.16296240234375,0.00021446528262458742,-0.0002062685089185834,0.00001737079583108425
1783696373919925500,5.172925537109375,-0.00039486598689109087,-0.0018827284220606089,0.0005097893299534917
1783696373929888500,5.182888427734375,0.000464491342427209,0.0017472640611231327,-0.0006336772348731756
1783696373939851500,5.1928515625,0.0009169623954221606,0.00033152755349874496,-0.00029945047572255135
1783696373949815600,5.202815673828125,-0.0007218403043225408,-0.0009914068505167961,0.00018329056911170483
1783696373959778600,5.212778564453125,0.0014638160355389118,0.0017612363444641232,0.0011633338872343302
1783696373969741300,5.2227412109375,-0.0010641176486387849,-0.0001501787919551134,0.0001885435776785016
1783696373979704300,5.232704345703125,-0.0010297629050910473,-0.0012711032759398222,-0.0002543400041759014
1783696373989667300,5.242667236328125,0.0004862655187025666,0.0008594274404458702,0.0009878152050077915
1783696373999631400,5.25263134765625,0.00010303666931577027,-0.0019512728322297335,0.0016775738913565874
1783696374009594400,5.262594482421875,-0.0008372279116883874,-0.0005519258556887507,0.0019650771282613277
1783696374019557400,5.272557373046875,-0.000511789636220783,0.002505915705114603,-0.00008742103818804026
1783696374029520400,5.282520263671875,0.0009298389777541161,-0.0006884150207042694,0.0010882304050028324
1783696374039483600,5.292483642578125,0.0003767004527617246,0.0010756629053503275,-0.00018635846208781004
1783696374049447400,5.302447509765625,0.00003984358045272529,0.0021758107468485832,0.0009086437639780343
1783696374061278500,5.314278564453125,0.0009786079172044992,-0.00006950017996132374,0.0013611147878691554
1783696374071241500,5.324241455078125,-0.0006910042138770223,0.001453937147744,-0.0011567826149985194
1783696374081204500,5.33420458984375,-0.000324020569678396,0.002031843177974224,-0.001104584545828402
1783696374091167500,5.34416748046875,-0.00006053752440493554,-0.0012440055143088102,0.001035772729665041
1783696374101131500,5.354131591796875,0.0007088497513905168,0.0021973312832415104,-0.00026491505559533834
1783696374111094500,5.364094482421875,0.0016485231462866068,0.0009957209695130587,-0.0002434680936858058
1783696374121057500,5.3740576171875,-0.00014245268539525568,-0.0009683604585006833,-0.0006149790715426207
1783696374131020500,5.3840205078125,-0.00038731141830794513,0.0012583283241838217,-0.0005154383834451437
1783696374140984600,5.393984619140625,-0.0020667007192969322,0.00035764731001108885,0.00043850590009242296
1783696374150947300,5.403947265625,0.001341445604339242,-0.0009060949087142944,0.0018803093116730452
1783696374160910300,5.413910400390625,-0.00047962384996935725,-0.0003731963224709034,0.0002134367823600769
1783696374170873300,5.423873291015625,0.0004675544041674584,-0.0012184102088212967,0.0005978419212624431
1783696374180836400,5.43383642578125,-0.0007002417696639895,-0.0003803134895861149,-0.0003968487726524472
1783696374190800400,5.44380029296875,0.001181736239232123,0.00232793134637177,-0.0006360284751281142
1783696374200763400,5.453763427734375,-0.0011341485660523176,0.00016730872448533773,0.0005474803037941456
1783696374210726400,5.463726318359375,-0.0013855784200131893,0.00004470220301300287,-0.00045427551958709955
1783696374220689400,5.473689453125,-0.0005125941825099289,0.0030743142124265432,-0.0006460231961682439
1783696374230652400,5.48365234375,0.00010233395732939243,-0.002571453806012869,0.0015271041775122285
1783696374240616400,5.493616455078125,-0.00174350303132087,-0.0005626314086839557,-0.001625279663130641
1783696374250579500,5.503579345703125,-0.0005137149128131568,0.001986103830859065,0.00025331228971481323
1783696374260542500,5.51354248046875,0.000042086816392838955,-0.0007236625533550978,-0.000011139549314975739
1783696374270505500,5.52350537109375,0.000007479218766093254,-0.0011195829138159752,-0.000016888719983398914
1783696374280468500,5.533468505859375,0.001199776423163712,0.0011600831057876348,0.0013056370662525296
1783696374290432500,5.5434326171875,-0.0015742807881906629,-0.00011521775741130114,0.0009349233005195856
1783696374300395500,5.5533955078125,-0.0003478950820863247,0.0011042436817660928,-0.0007055839523673058
1783696374310358500,5.563358642578125,-0.00011249027738813311,0.001603714656084776,0.00011542125139385462
1783696374320321500,5.573321533203125,0.0007948486600071192,-0.0018799664685502648,0.0009151685517281294
1783696374330284300,5.5832841796875,0.000541869958397001,-0.00020886620040982962,-0.0005076522938907146
1783696374340248300,5.593248291015625,-0.00039636169094592333,0.0023709379602223635,-0.001430970267392695
1783696374350211300,5.60321142578125,0.00025683973217383027,-0.0013877174351364374,0.0005291694542393088
1783696374360174300,5.61317431640625,0.0005487221642397344,0.0020331130363047123,-0.00008708599489182234
1783696374370137300,5.623137451171875,-0.002016159240156412,0.0010244008153676987,0.0004889019764959812
1783696374380723500,5.633723388671875,-0.0009823200525715947,-0.0021780505776405334,0.00003802881110459566
1783696374390686500,5.6436865234375,0.0010222486453130841,0.0017952342750504613,0.000054348958656191826
1783696374400649500,5.6536494140625,-0.0005937574896961451,0.001128112431615591,0.0005971011123619974
1783696374410612200,5.6636123046875,0.0021202785428613424,-0.001826536376029253,-0.0006341054104268551
1783696374420576300,5.673576171875,-0.0017796545289456844,0.002341310726478696,-0.0012479639844968915
1783696374430539300,5.683539306640625,-0.0010998749639838934,-0.000014174962416291237,0.0004084648680873215
1783696374440502500,5.69350244140625,0.0001896275789476931,-0.002533525228500366,0.0006276430212892592
1783696374450465500,5.703465576171875,-0.00010758831922430545,0.0008030273602344096,-0.001832962385378778
1783696374460428500,5.713428466796875,0.0006439557764679193,0.0006999630713835359,0.0010453822324052453
1783696374470392600,5.723392578125,-0.0011741050984710455,-0.002579041989520192,0.002082665916532278
1783696374480355600,5.73335546875,-0.0007639783434569836,0.0008122271974571049,-0.0007456112653017044
1783696374490318600,5.743318603515625,0.00031984184170141816,-0.0007663522846996784,-0.00006765325088053942
1783696374500281300,5.75328125,-0.0020783348008990288,-0.000719746807590127,-0.001667680568061769
1783696374510244400,5.763244384765625,-0.000023727479856461287,-0.0001642043935135007,0.00009789771866053343
1783696374520208400,5.77320849609375,-0.0015917967539280653,0.000501319533213973,0.0023890151642262936
1783696374530171400,5.78317138671875,0.00035712041426450014,-0.00002687412779778242,-0.0008429735898971558
1783696374540134400,5.793134521484375,-0.0001605980796739459,0.0023494644556194544,0.00028301094425842166
1783696374550097400,5.803097412109375,-0.00031436217250302434,-0.0016281063435599208,0.0015330621972680092
1783696374560060400,5.813060302734375,-0.001033415668644011,0.001195110846310854,-0.000276289414614439
1783696374570024400,5.8230244140625,-0.001485158922150731,0.0004979952936992049,0.001333294901996851
1783696374579987200,5.8329873046875,0.001388924545608461,-0.001634131302125752,-0.00021799642127007246
1783696374589950200,5.8429501953125,-0.00005495623918250203,0.0021082961466163397,-0.0009793194476515055
1783696374599913200,5.852913330078125,-0.0005708105163648725,0.0005985500756651163,0.000019898521713912487
1783696374609877000,5.862876953125,0.0006719098309986293,-0.0018360778922215104,-0.0017779539339244366
1783696374619840300,5.87284033203125,-0.0009078772854991257,0.00033280043862760067,-0.0022746333852410316
1783696374629803300,5.88280322265625,-0.0005699042230844498,0.0010989444563165307,0.0014838401693850756
1783696374639766300,5.892766357421875,0.00014062714762985706,-0.001092837075702846,0.00012562808115035295
1783696374649729300,5.902729248046875,0.0016164211556315422,0.00042618170846253633,-0.00011814490426331758
1783696374659693300,5.912693359375,-0.0014797698240727186,0.000969732878729701,0.0004626905429176986
1783696374669656300,5.92265625,-0.00013052832218818367,-0.002939735073596239,-0.0006988256936892867
1783696374679619300,5.932619384765625,0.001663643284700811,0.000977774616330862,0.00022023118799552321
1783696374689582000,5.94258203125,0.0006666993722319603,0.0010266518220305443,-0.00010365038178861141
1783696374699545000,5.952545166015625,-0.001199377584271133,-0.0016421017935499549,0.00041460071224719286
1783696374709509000,5.962509033203125,-0.0009731831960380077,0.0018614151049405336,0.00039099797140806913
1783696374719472000,5.97247216796875,0.0008609358919784427,0.0026563687715679407,-0.0004284566966816783
1783696374729435100,5.98243505859375,-0.0007465763483196497,-0.0013717765687033534,-0.0009637093171477318
1783696374739398100,5.992398193359375,0.0009527866495773196,0.0022072456777095795,-0.0007948648417368531
1783696374749361200,6.002361083984375,0.0004698107950389385,0.00048587843775749207,0.0014702380867674947
1783696374759325200,6.0123251953125,-0.0007738854619674385,-0.001286987797357142,0.00012507539940997958
1783696374769288200,6.0222880859375,0.0005708236712962389,0.0006846628384664655,-0.001714332727715373
1783696374779251200,6.032251220703125,0.0012376791564747691,-0.001184609835036099,0.001355492975562811
1783696374789214200,6.042214111328125,-0.00026578071992844343,-0.0007733268430456519,-0.000991989392787218
1783696374799178200,6.05217822265625,0.00036032841308042407,0.0011145881144329906,0.0005057723028585315
1783696374809141200,6.062141357421875,-0.001147161121480167,-0.0015899405116215348,-0.0006766031729057431
1783696374819104300,6.072104248046875,-0.0012968308292329311,-0.0008125636959448457,-0.00015355844516307116
1783696374829067300,6.0820673828125,0.00011207391798961908,0.0030826269648969173,-0.00016132928431034088
1783696374839030300,6.0920302734375,0.0008540306007489562,-0.0019190559396520257,-0.00010726717300713062
1783696374848994300,6.101994384765625,-0.0008188881911337376,-0.0007994058541953564,-0.0008467657025903463
1783696374858957300,6.111957275390625,0.0009893982205539942,0.0018437814433127642,-0.0007072160951793194
1783696374868920000,6.121920166015625,0.0005941522540524602,-0.0002650627866387367,-0.001237720251083374
1783696374878883000,6.131883056640625,-0.0013654017820954323,0.0009765028953552246,-0.0008872481994330883
1783696374888846000,6.14184619140625,0.001064179465174675,0.001116319326683879,0.00039285619277507067
1783696374898810000,6.15181005859375,0.0009145099320448935,-0.002368959365412593,-0.00019516970496624708
1783696374908773000,6.161773193359375,0.00009674236935097724,0.00045967404730618,-0.00017556583043187857
1783696374918736100,6.171736083984375,-0.000552003679331392,0.0015230742283165455,0.001813016482628882
1783696374928699100,6.18169921875,0.0000628030247753486,-0.0019198637455701828,0.0008898755768314004
1783696374938662400,6.191662353515625,-0.00040218490175902843,0.002066622255370021,-0.0009170792764052749
1783696374948626200,6.201626220703125,0.0015394347719848156,-0.000025831512175500393,-0.0011175504187121987
1783696374958589200,6.211589111328125,0.0010041393106803298,-0.0018698041094467044,-0.0008075585355982184
1783696374968552200,6.22155224609375,0.0020360981579869986,0.0019340135622769594,0.0008947800379246473
1783696374978515200,6.23151513671875,0.000448587816208601,0.001242656959220767,0.0008657515863887966
1783696374988478200,6.241478271484375,0.0003079596790485084,-0.0013535295147448778,-0.00025945575907826424
1783696374998442200,6.251442138671875,0.00022992906451690942,0.0019645027350634336,0.0005006103892810643
1783696375008405200,6.2614052734375,0.000764569966122508,-0.00025205675046890974,-0.0008345235837623477
1783696375018368300,6.2713681640625,-0.00009563103958498687,-0.0008832259336486459,-0.001052103703841567
1783696375028331300,6.281331298828125,0.00031325643067248166,0.0010573260951787233,0.00023695919662714005
1783696375038294000,6.2912939453125,-0.00021378317615017295,-0.00012112269178032875,0.0010747896740213037
1783696375048258300,6.30125830078125,-0.0013862669002264738,-0.0009561728220432997,0.0005299562471918762
1783696375058221000,6.311220947265625,-0.0004072889278177172,0.0024795711506158113,-0.0005398355424404144
1783696375068184000,6.32118408203125,-0.00038173882057890296,-0.0003811650676652789,0.0003181443316861987
1783696375078147000,6.33114697265625,-0.0017324942164123058,-0.001554021262563765,-0.0003718807129189372
1783696375088111000,6.341111083984375,-0.0008855964406393468,0.0010068261763080955,-0.0009860990103334188
1783696375098074000,6.35107421875,0.0011884733103215694,-0.000994006753899157,0.0002402866375632584
1783696375108037000,6.361037109375,-0.0010785073973238468,-0.0006377319805324078,-0.0011759981280192733
1783696375118000400,6.37100048828125,0.0006797115202061832,0.0010595005005598068,0.000368368870113045
1783696375127963400,6.38096337890625,0.002149814274162054,-0.0007213243516162038,0.0013847770169377327
1783696375137927200,6.39092724609375,-0.00046647523413412273,-0.0001458151964470744,-0.00008395628537982702
1783696375147890200,6.40089013671875,-0.0006225048564374447,0.0017185886390507221,0.0012226477265357971
1783696375157853200,6.410853271484375,0.000664867227897048,-0.0012918487191200256,0.0003363477298989892
1783696375167816200,6.420816162109375,0.0017556966049596667,-0.0005261818878352642,-0.0012827097671106458
1783696375177779200,6.430779296875,0.0005910963518545032,0.002038708422333002,0.00011491705663502216
1783696375187743200,6.4407431640625,-0.0004734909161925316,-0.0019458610331639647,0.0008373075979761779
1783696375197706200,6.450706298828125,0.001146776368841529,0.0006648357957601547,-0.0001006576931104064
1783696375207669200,6.460669189453125,-0.0007917843176983297,0.00040910253301262856,0.0010396745055913925
1783696375217632300,6.47063232421875,-0.0008272043196484447,-0.0003696056082844734,-0.0006554274586960673
1783696375227595000,6.480594970703125,0.0005267325323075056,0.0030806809663772583,0.000005460809916257858
1783696375237559000,6.49055908203125,-0.0004951223963871598,0.00024761026725172997,-0.0010688584297895432
1783696375247522000,6.50052197265625,0.0009054181864485145,-0.0019990988075733185,0.00072181795258075
1783696375257485000,6.510485107421875,-0.00045013081398792565,0.0017570235067978501,0.001131944707594812
1783696375267448000,6.520447998046875,-0.0001283316087210551,-0.0003135558217763901,0.0007808670634403825
1783696375277411300,6.530411376953125,-0.0010322084417566657,-0.0004120927769690752,0.0003949750098399818
1783696375287375000,6.540375,-0.000660454563330859,-0.00040314358193427324,0.0014172338414937258
1783696375297338400,6.55033837890625,0.0008199966396205127,-0.00021592341363430023,0.0012105725472792983
1783696375307301400,6.56030126953125,0.0005139826098456979,-0.002158363815397024,-0.0026441551744937897
1783696375317264100,6.57026416015625,0.0008697810117155313,0.0002203716430813074,0.0000014291144907474518
1783696375327228400,6.580228515625,0.00009303700062446296,-0.0003387581091374159,0.0014644726179540157
1783696375337191200,6.590191162109375,-0.0004103004466742277,-0.00039574969559907913,-0.0003592601278796792
1783696375347154200,6.600154296875,-0.00005403243994805962,0.0021863358560949564,0.0006268939469009638
1783696375357117200,6.6101171875,-0.0005664246273227036,0.001191378803923726,0.00035232200752943754
1783696375367080200,6.620080078125,0.0005772861186414957,-0.0009235619800165296,-0.0018337583169341087
1783696375377044200,6.630044189453125,0.0002134983369614929,0.0013225481379777193,0.0010464504593983293
1783696375387007200,6.64000732421875,0.00013985030818730593,0.00045183487236499786,-0.0012168094981461763
1783696375396970200,6.64997021484375,0.00169939745683223,-0.000040583545342087746,-0.0007185320137068629
1783696375406933200,6.659933349609375,0.0004413349670358002,0.0006089452654123306,0.0005796354962512851
1783696375416896000,6.66989599609375,0.000639740435872227,-0.001386294956319034,0.0011215887498110533
1783696375426860000,6.679860107421875,0.0006573661230504513,0.00056653399951756,-0.0008936682716012001
1783696375436823000,6.689822998046875,-0.0011421318631619215,0.0027609788812696934,0.0008709421381354332
1783696375446786000,6.6997861328125,0.0014942311681807041,-0.0008598935091868043,0.0003957556327804923
1783696375456749300,6.709749267578125,0.0007940861396491528,-0.00009263679385185242,-0.0016620688838884234
1783696375466712300,6.71971240234375,-0.0018769719172269106,0.0020347004756331444,-0.00045356492046266794
1783696375476676400,6.72967626953125,0.0002642095787450671,-0.0017334060976281762,0.001507054315879941
1783696375486639400,6.739639404296875,-0.0003064567572437227,-0.00032602506689727306,-0.00031284336000680923
1783696375496602400,6.749602294921875,-0.0004923454253003001,0.002034068340435624,0.0015148840611800551
1783696375506565000,6.759565185546875,-0.0000806277384981513,-0.001998692052438855,-0.0003662463277578354
1783696375516528000,6.769528076171875,0.00036864751018583775,0.0007736585685051978,0.00003455940168350935
1783696375526492200,6.7794921875,-0.0006022750167176127,0.0005111901555210352,-0.000513785402290523
1783696375536455200,6.789455078125,-0.0009170606499537826,-0.001679526176303625,-0.0003521315520629287
1783696375546418200,6.799418212890625,-0.000011593539966270328,0.0010373924160376191,-0.0005083061987534165
1783696375556381200,6.809381103515625,-0.0003886971389874816,0.0014946571318432689,0.0019007893279194832
1783696375566344200,6.81934423828125,-0.0005375058390200138,-0.001862365403212607,-0.0013898066245019436
1783696375576309000,6.82930908203125,0.00035545206628739834,0.0008159755961969495,-0.0007447891402989626
1783696375586271700,6.839271728515625,-0.0006959312013350427,-0.0015177545137703419,-0.0011017112992703915
1783696375596234800,6.84923486328125,-0.0006418690318241715,-0.0005017586518079042,-0.0011214185506105423
1783696375606197800,6.85919775390625,0.0005549672059714794,0.0016252221539616585,-0.0017777301836758852
1783696375616160800,6.869160888671875,-0.00033372960751876235,-0.000907710287719965,-0.0005247129593044519
1783696375626124800,6.879124755859375,0.00047866912791505456,-0.0009815620724111795,-0.0007978645153343678
1783696375636087800,6.889087890625,0.001006774022243917,0.0013052943395450711,-0.0007730970392003655
1783696375646050800,6.89905078125,0.0016439234605059028,-0.0007281049620360136,0.0007716617546975613
1783696375656014000,6.90901416015625,0.0006383138825185597,-0.00012303469702601433,-0.0005711039993911982
1783696375665976800,6.918976806640625,0.0002617982681840658,0.0024825355503708124,-0.0005820314399898052
1783696375675940900,6.92894091796875,-0.0005217037396505475,-0.0004557301290333271,0.0010512853041291237
1783696375685904000,6.93890380859375,0.0015220167115330696,-0.0009107615333050489,0.0007387169171124697
1783696375695867000,6.948866943359375,0.0007616841467097402,0.0028107399120926857,-0.000023479806259274483
1783696375705830000,6.958829833984375,-0.0014327212702482939,-0.0023011104203760624,-0.0004424102371558547
1783696375715793000,6.96879296875,-0.0002627945796120912,-0.00005100551061332226,-0.00030206155497580767
1783696375725757000,6.9787568359375,0.001082508941181004,0.001703873509541154,0.001336734159849584
1783696375735720000,6.988719970703125,0.0005474798381328583,-0.0011401161318644881,-0.0004774110857397318
1783696375745683000,6.998682861328125,0.0013854324351996183,0.0003403245937079191,0.0011474520433694124
1783696375755645700,7.008645751953125,-0.0006457604467868805,0.0014215679839253426,0.000943986582569778
1783696375765608700,7.018608642578125,-0.000017951388144865632,-0.002042710781097412,0.0003203295054845512
1783696375775572700,7.02857275390625,0.0007437126478180289,0.0008550749626010656,-0.00043893768452107906
1783696375785535700,7.03853564453125,0.000766418466810137,0.0009453819366171956,0.000519848894327879
1783696375795498800,7.048498779296875,-0.0009244225220754743,-0.0029020868241786957,0.00032863393425941467
1783696375805461800,7.058461669921875,0.00013667557504959404,0.0003047110512852669,-0.0015225447714328766
1783696375815425000,7.068425048828125,0.0000961955520324409,0.0021066057961434126,0.00047109753359109163
1783696375825388800,7.078388916015625,0.00017523436690680683,-0.0017127057071775198,0.0004421203047968447
1783696375835352000,7.08835205078125,0.0017065518768504262,0.001670041587203741,0.00036675279261544347
1783696375845315000,7.098315185546875,0.000514311483129859,0.0010112845338881016,0.0005320333293639123
1783696375855277800,7.10827783203125,-0.0008910386823117733,-0.001700878725387156,-0.0002461422700434923
1783696375865240800,7.11824072265625,0.0004299288848415017,0.0007771998061798513,-0.00022772804368287325
1783696375875204900,7.128204833984375,-0.0008928632014431059,-0.0005301458295434713,0.0007890668930485845
1783696375885167900,7.13816796875,-0.0007354191038757563,-0.0013227317249402404,-0.002567889867350459
1783696375895131000,7.148130859375,-0.0009948110673576593,0.002109284047037363,-0.0009127352386713028
1783696375905094000,7.158093994140625,0.00021224893862381577,-0.000273809302598238,0.0017055615317076445
1783696375915057000,7.168056884765625,-0.0009547482477501035,0.00007266795728355646,-0.0013916946481913328
1783696375925021000,7.17802099609375,0.0007817489095032215,0.0028899102471768856,-0.001658497261814773
1783696375934984000,7.18798388671875,0.00010344173642806709,-0.00010614609345793724,0.0006752307526767254
1783696375944946700,7.19794677734375,-0.00011397399066481739,0.0009802572894841433,0.0008833857718855143
1783696375954909700,7.20790966796875,-0.0003736322105396539,0.0009498971630819142,0.0008583520539104939
1783696375964873000,7.217873046875,-0.0002526258467696607,-0.000058601959608495235,-0.000429923995397985
1783696375974836700,7.227836669921875,-0.0011485132854431868,0.00005112017970532179,-0.0014427241403609514
1783696375984799700,7.2377998046875,-0.000048039917601272464,0.0010619978420436382,-0.0005360965151339769
1783696375994763000,7.247762939453125,-0.0018222378566861153,-0.0005050061736255884,0.0001821580808609724
1783696376004726000,7.25772607421875,-0.0005367652629502118,-0.0012906098272651434,-0.0015368799213320017
1783696376014689000,7.26768896484375,0.000194538792129606,0.0032452859450131655,0.00024291075533255935
1783696376024653000,7.277653076171875,0.0003230941074434668,-0.0015788545133545995,-0.0003054903354495764
1783696376034615800,7.28761572265625,-0.0005054153152741492,0.0005034711211919785,-0.0007406508084386587
1783696376044578800,7.297578857421875,-0.0005718033062294126,0.0017273786943405867,-0.00036733527667820454
1783696376054541800,7.307541748046875,0.0008183667669072747,-0.0019296740647405386,-0.00011486758012324572
1783696376064504800,7.3175048828125,0.0018171113915741444,0.000669855042360723,0.0000977714080363512
1783696376074468900,7.32746875,-0.000031921255867928267,0.0004112620372325182,-0.00009504146873950958
1783696376084432000,7.337431884765625,-0.0001253581722266972,-0.001269567059352994,-0.0005171722732484341
1783696376094395000,7.347394775390625,-0.00013814134581480175,0.0005190119845792651,0.0002751181600615382
1783696376104358000,7.35735791015625,0.0016867563826963305,0.0018052785890176892,-0.0007166629657149315
1783696376114320600,7.367320556640625,-0.00020648485224228352,-0.0011572218500077724,0.00016084860544651747
1783696376124284700,7.37728466796875,-0.0002293651195941493,0.0013152222381904721,-0.0009023338789120317
1783696376134247700,7.38724755859375,0.0010446911910548806,0.0010680810082703829,0.0007695985841564834
1783696376144210700,7.397210693359375,0.001260213553905487,-0.0029645594768226147,-0.0003685198025777936
1783696376154174000,7.407174072265625,-0.00011131443898193538,0.0024035745300352573,0.00002536177635192871
1783696376164137000,7.417136962890625,0.0011126190656796098,0.0018950959201902151,0.0010892675491049886
1783696376174101000,7.42710107421875,-0.0005846135318279266,-0.0018628905527293682,-0.0013600416714325547
1783696376184064000,7.43706396484375,-0.000044694155803881586,0.0015638082986697555,-0.0024259635247290134
1783696376194027000,7.447027099609375,0.0003851400688290596,0.0006261091912165284,0.0017903530970215797
1783696376203989800,7.45698974609375,-0.0006221515359356999,-0.0007349678780883551,-0.00017234578263014555
1783696376213952800,7.466952880859375,0.001579483738169074,0.0000631815055385232,-0.0004117639036849141
1783696376223916800,7.476916748046875,0.00183760782238096,-0.0010294551029801369,-0.0002638136502355337
1783696376233879800,7.4868798828125,-0.0005416602361947298,-0.0013375829439610243,0.0010166342835873365
1783696376243842800,7.4968427734375,0.0007126276614144444,0.0018888844642788172,0.00014139083214104176
1783696376253805800,7.506805908203125,0.00048439475358463824,-0.0005266027292236686,0.0004814764834009111
1783696376263768800,7.516768798828125,-0.0002679640019778162,0.00013930979184806347,0.0005787893896922469
1783696376273732900,7.52673291015625,0.000531250610947609,0.002545209601521492,0.0013159523950889707
1783696376283695900,7.53669580078125,0.0006015051039867103,-0.002719448646530509,-0.0005362920928746462
1783696376293659000,7.546658935546875,0.0007351957610808313,-0.0007436492014676332,0.0005063355201855302
1783696376303622000,7.556621826171875,0.0020932122133672237,0.0008069436298683286,0.0001041521318256855
1783696376313585000,7.5665849609375,0.00008412354509346187,-0.0016069456469267607,0.0005853853654116392
1783696376323548700,7.576548583984375,0.00014549962361343205,0.0009297532378695905,-0.001117107691243291
1783696376333512000,7.586511962890625,0.00036494407686404884,0.001032284926623106,-0.00019938242621719837
1783696376343475000,7.596474853515625,0.0008720113546587527,-0.0015504612820222974,0.0006789364269934595
1783696376353438000,7.60643798828125,0.00007492727308999747,-0.0005861305398866534,0.0012352707562968135
1783696376363401000,7.61640087890625,-0.0018561644246801734,0.00017857295460999012,0.002833431353792548
1783696376373365000,7.626364990234375,0.0006045964546501637,-0.0009554011048749089,0.0010637608356773853
1783696376383328000,7.636327880859375,-0.00030347477877512574,0.0008446141728200018,0.00029749993700534105
1783696376393290800,7.646290771484375,-0.0009903040481731296,0.0008858931832946837,0.001086061936803162
1783696376403253800,7.656253662109375,0.00010830574319697917,-0.003399909706786275,0.0010154548799619079
1783696376413216800,7.666216796875,-0.000295429490506649,0.0013988401042297482,-0.00043437001295387745
1783696376423180800,7.676180908203125,-0.0006717714131809771,0.0001944946125149727,0.0011019844096153975
1783696376433143800,7.686143798828125,0.001226263353601098,-0.0023653358221054077,-0.0004077616613358259
1783696376443106800,7.69610693359375,0.00016857768059708178,0.001505887252278626,-0.0007216554367914796
1783696376453069800,7.70606982421875,-0.0008548750774934888,-0.0006190490676090121,0.0008410874288529158
1783696376463033000,7.716033203125,-0.0006182988872751594,0.00013026571832597256,-0.0006283430848270655
1783696376472996900,7.725996826171875,0.0002128736668964848,0.0009755530045367777,0.00018605159129947424
1783696376482960000,7.7359599609375,-0.0000961594341788441,0.00015308253932744265,-0.0006604398367926478
1783696376492923000,7.7459228515625,0.0003030484076589346,0.0005581493023782969,-0.00021862145513296127
1783696376502886000,7.755885986328125,-0.00012949728989042342,0.0024749157018959522,-0.0010197877418249846
1783696376512849000,7.765848876953125,0.00031711484189145267,-0.0007182143162935972,0.0015400428092107177
1783696376522813000,7.77581298828125,0.0020643332973122597,-0.0018991644028574228,-0.00005723955109715462
1783696376532776000,7.78577587890625,0.0006243622046895325,0.002327804919332266,0.0015710170846432447
1783696376542739000,7.795739013671875,0.0005452329060062766,-0.0013712302315980196,-0.000613050302490592
1783696376552702000,7.805701904296875,0.00021500099683180451,0.00022586749400943518,-0.0006633840966969728
1783696376562664700,7.815664794921875,-0.0012727059656754136,0.0013238624669611454,0.0009666134137660265
1783696376572628500,7.82562841796875,0.00012705147673841566,-0.00045566167682409286,0.00038018537452444434
1783696376582591500,7.835591552734375,0.0013584044063463807,0.0004744993057101965,0.0006642694352194667
1783696376592554500,7.845554443359375,0.002358954166993499,0.0016079407650977373,-0.0002854138147085905
1783696376602517500,7.855517578125,-0.00036546189221553504,-0.00029706943314522505,-0.0005712980637326837
1783696376612480800,7.865480712890625,-0.0012861167779192328,-0.0005535318050533533,0.00020448071882128716
1783696376622444500,7.875444580078125,-0.0012870421633124352,0.0006497808499261737,0.0020677049178630114
1783696376632407600,7.885407470703125,0.00011564482701942325,-0.003200351260602474,0.0006317284423857927
1783696376642370600,7.89537060546875,-0.00017248561198357493,-0.00008689751848578453,-0.0015311279566958547
1783696376652333600,7.90533349609375,-0.0007056504255160689,-0.0011042251717299223,-0.0009843808365985751
1783696376662296600,7.915296630859375,0.0009915911359712481,-0.0026849103160202503,0.0014952359488233924
1783696376672260600,7.925260498046875,0.00032793133868835866,0.000979333184659481,-0.0017980289412662387
1783696376682223600,7.9352236328125,-0.000888537208084017,0.0013393432600423694,0.00010957370977848768
1783696376692186600,7.9451865234375,-0.0006416621617972851,-0.0012812071945518255,0.0007870818953961134
1783696376702149600,7.955149658203125,0.0013802825706079602,0.0019509607227519155,0.0004928869311697781
1783696376712112600,7.965112548828125,0.001302518299780786,-0.0012831820640712976,-0.0008075346704572439
1783696376722076700,7.97507666015625,0.0009592007263563573,-0.000388726475648582,-0.0017196073895320296
1783696376732039400,7.985039306640625,-0.00015346796135418117,0.001660309499129653,-0.0005624638870358467
1783696376742002400,7.99500244140625,0.0007022922509349883,-0.0004211505874991417,0.0015791298355907202
1783696376751965400,8.00496533203125,0.00008310729754157364,-0.0015833540819585323,0.001033980748616159
1783696376761928400,8.014928466796874,-0.0003899566363543272,0.0018821351695805788,-0.001357325934804976
1783696376771891700,8.0248916015625,0.0006108592497184873,-0.00016157457139343023,0.0014587005134671926
1783696376781855500,8.03485546875,-0.000635617645457387,-0.0009341154946014285,-0.00034148094709962606
1783696376791818500,8.044818603515624,0.0001659938134253025,0.0006754989735782146,0.0006249801954254508
1783696376801781800,8.05478173828125,-0.0013608052395284176,-0.00014546967577189207,0.0013704621233046055
1783696376811744500,8.06474462890625,0.0002690493711270392,0.0008359052008017898,0.0006058685830794275
1783696376821707500,8.07470751953125,0.00002358719939365983,0.0019202588591724634,-0.00008536293171346188
1783696376831671600,8.084671630859376,-0.0007050536805763841,-0.0006323809502646327,-0.0006403656443580985
1783696376841634600,8.094634521484375,-0.00006303751433733851,-0.0010937360348179936,-0.0009380149422213435
1783696376851597600,8.10459765625,0.002050180919468403,0.0017574443481862545,-0.0004091112641617656
1783696376861560600,8.114560546875,0.0004223345313221216,-0.0011860777158290148,0.0009741295361891389
1783696376871523600,8.124523681640625,-0.00045331279397942126,0.0006509708473458886,-0.0007657136302441359
1783696376881487600,8.134487548828124,0.0009447474731132388,0.001994629390537739,0.0007585939019918442
1783696376891450600,8.14445068359375,-0.0006121364422142506,-0.0016539011849090457,0.0012795082293450832
1783696376901413600,8.15441357421875,-0.0000719450181350112,0.002068582456558943,0.001887878286652267
1783696376911376400,8.16437646484375,0.0007184811402112246,0.002495220862329006,0.0005597598501481116
1783696376921339400,8.17433935546875,-0.0006215636967681348,-0.0012054620310664177,0.0004331305390223861
1783696376931303400,8.184303466796875,-0.00015311366587411612,0.00035435135941952467,-0.0012228230480104685
1783696376941266400,8.194266357421874,-0.001181354746222496,0.0020521660335361958,0.001683282433077693
1783696376951229700,8.204229736328125,-0.0004769486258737743,-0.0013340433361008763,-0.00006614811718463898
1783696376961192700,8.214192626953125,0.0008906489820219576,0.0015570452669635415,-0.00018368405289947987
1783696376971155700,8.22415576171875,0.0005343179800547659,0.0017511897021904588,-0.0007022015051916242
1783696376981119700,8.23411962890625,-0.001210784655995667,-0.0011070000473409891,0.0007934868335723877
1783696376991082800,8.244082763671875,-0.0005929312901571393,0.001956700347363949,-0.0002810986479744315
1783696377001045500,8.25404541015625,0.0006351260235533118,0.0016317092813551426,0.0006983184721320868
1783696377011008500,8.264008544921875,-0.0005023099947720766,-0.0007169324671849608,-0.0014889357844367623
1783696377020971500,8.273971435546875,0.0005551452632062137,0.0014263029443100095,0.000057856435887515545
1783696377030935600,8.283935546875,-0.0005958729889243841,0.00015943730250000954,-0.0005884927231818438
1783696377040898600,8.293898681640625,0.0013113575987517834,-0.00124642183072865,0.0003447693306952715
1783696377050861600,8.303861572265625,0.00014808893320150673,0.00046119687613099813,-0.0006280833622440696
1783696377060824600,8.313824462890626,-0.0005432301550172269,-0.0013046631356701255,-0.001164965215139091
1783696377070787600,8.32378759765625,0.00007648742757737637,-0.0012508671497926116,-0.001066694618202746
1783696377080751600,8.333751708984375,0.000897418474778533,0.002473623026162386,0.0005993935046717525
1783696377090714400,8.34371435546875,0.0002830271841958165,-0.0007762322202324867,0.0005642397445626557
1783696377100677400,8.353677490234375,-0.000407851068302989,-0.0017824986716732383,-0.0013854687567800283
1783696377110640600,8.363640625,0.0013540962245315313,0.0023989304900169373,-0.001226478023454547
1783696377120603600,8.373603759765626,-0.00047388605889864266,-0.0009712782921269536,0.00037182000232860446
1783696377130567400,8.3835673828125,-0.00010184246639255434,-0.0015326725551858544,-0.0016191591275855899
1783696377140530700,8.39353076171875,0.00021356603247113526,0.0026006095577031374,0.0007588519947603345
1783696377150493700,8.40349365234375,-0.002269565360620618,-0.001676160842180252,0.0004938674974255264
1783696377160456700,8.413456787109375,0.00012213180889375508,0.00003098545130342245,-0.0018768302397802472
1783696377170419500,8.42341943359375,-0.0011423371033743024,0.0014725546352565289,0.000801510876044631
1783696377180383700,8.4333837890625,-0.0004280894936528057,-0.002244750503450632,0.0011329364497214556
1783696377190346500,8.443346435546875,-0.0002448640007060021,0.0005848580040037632,-0.0008894681232050061
1783696377200309500,8.4533095703125,0.0003886126505676657,0.0009969964157789946,-0.0004027393879368901
1783696377210272500,8.4632724609375,0.0002450682513881475,-0.001174012548290193,0.00032430357532575727
1783696377220235500,8.473235595703125,0.000562886823900044,-0.00010590453166514635,-0.0008243708871304989
1783696377230199600,8.483199462890624,-0.0009559139725752175,0.0014014445478096604,-0.0009812311036512256
1783696377240162600,8.49316259765625,0.0005647839861921966,-0.0017459678929299116,0.00046515377471223474
1783696377250125600,8.50312548828125,-0.0004711856599897146,0.00037896831054240465,-0.0016254277434200048
1783696377260088600,8.513088623046874,0.0000429769279435277,-0.0005545635940507054,0.00009698513895273209
1783696377270051600,8.523051513671875,-0.0013645037543028593,-0.0018022545846179128,-0.00027878687251359224
1783696377280015400,8.533015380859375,-0.00032538437517359853,0.0008740429184399545,-0.0004073518794029951
1783696377289978600,8.542978515625,-0.0002958232944365591,0.0007669838378205895,0.0005236892029643059
1783696377299941600,8.552941650390625,0.0004942116793245077,-0.0005510173505172133,-0.0005136812105774879
1783696377309904600,8.562904541015625,0.0005749054835177958,0.0013555395416915417,-0.0004977021599188447
1783696377319867600,8.57286767578125,0.00019665216677822173,0.001201015431433916,-0.0012260228395462036
1783696377329831700,8.582831787109376,-0.0013770097866654396,-0.0021060979925096035,-0.0008041781838983297
1783696377339794700,8.592794677734375,0.0007635656511411071,0.0034019039012491703,-0.0009146933443844318
1783696377349757700,8.6027578125,0.0005643612239509821,0.0006889419164508581,-0.0010915272869169712
1783696377359720400,8.612720458984375,0.0001709073258098215,-0.0006785972509533167,-0.0007027555257081985
1783696377369683500,8.622683349609375,0.00004387454828247428,0.002548887860029936,-0.0013296635588631034
1783696377379647500,8.6326474609375,0.001812390168197453,-0.0007426423253491521,0.0010250483173877
1783696377389610500,8.642610595703125,-0.0004616830265149474,-0.0004156063077971339,0.0007203826680779457
1783696377399573500,8.652573486328125,0.000336770957801491,0.0010148375295102596,-0.0003466050839051604
1783696377409536500,8.66253662109375,0.00017165497411042452,-0.0010824018390849233,0.00016818387666717172
1783696377419499500,8.67249951171875,-0.0006590882549062371,-0.0000590374693274498,0.0009443007875233889
1783696377429463600,8.682463623046875,0.0010248285252600908,0.0024619107134640217,-0.00003334565553814173
1783696377439426600,8.692426513671874,0.0004447540268301964,-0.002156654139980674,0.0017245667986571789
1783696377449389600,8.7023896484375,-0.0002703047066461295,-0.0005174784455448389,-0.0013881359482184052
1783696377459352600,8.7123525390625,-0.0009417066466994584,0.0010745751205831766,-0.0008482057601213455
1783696377469315600,8.722315673828126,-0.00007245088636409491,-0.0029214981477707624,0.0010937713086605072
1783696377479279600,8.732279541015625,-0.0002577944833319634,-0.00009131594561040401,0.00013242254499346018
1783696377489242600,8.74224267578125,0.00041305579361505806,0.002033087657764554,-0.0011418999638408422
1783696377499205600,8.75220556640625,-0.00008655476267449558,-0.0009775307262316346,-0.000542772002518177
1783696377509168600,8.762168701171875,-0.0012239908101037145,0.000588674214668572,-0.00020481692627072334
1783696377519131600,8.772131591796875,0.0005442687543109059,0.0021741031669080257,-0.0005330698331817985
1783696377529095700,8.782095703125,-0.0003857070696540177,-0.002820655470713973,0.00010981719242408872
1783696377539058700,8.79205859375,0.00004286991315893829,0.002012822777032852,-0.0013036159798502922
1783696377549021400,8.802021484375,0.0003342197451274842,0.0006394307129085064,-0.00027563574258238077
1783696377558984400,8.811984375,-0.0007039188640192151,-0.0023146094754338264,0.0005032823537476361
1783696377568947500,8.821947509765625,0.0009182124631479383,0.0011538914404809475,-0.001288226223550737
1783696377578911700,8.831911865234375,-0.000603787659201771,-0.0001320370938628912,0.0003248747088946402
1783696377588874500,8.84187451171875,-0.0011931451736018062,-0.002170687075704336,-0.0009638289920985699
1783696377598837500,8.85183740234375,-0.0006020422442816198,0.0020100700203329325,0.00044952594907954335
1783696377608800800,8.86180078125,-0.0009802111890166998,0.001977046951651573,0.000802394759375602
1783696377618763800,8.871763671875,0.0011584064923226833,-0.002089547459036112,-0.0008789446437731385
1783696377628727600,8.8817275390625,-0.0005870293825864792,0.0026769782416522503,0.000440651667304337
1783696377638690800,8.89169091796875,-0.0022254353389143944,0.0005572563968598843,0.0003308604354970157
1783696377648653800,8.90165380859375,0.0004462477518245578,-0.0016081598587334156,-0.001324826735071838
1783696377658616800,8.911616943359375,0.00044396083103492856,0.001971208956092596,0.00015338382218033075
1783696377668579600,8.92157958984375,-0.0003709664451889694,-0.0009207177208736539,-0.0012809946201741695
1783696377678544000,8.9315439453125,0.0012366600567474961,-0.0009313825285062194,-0.0016887206584215164
1783696377688506600,8.941506591796875,0.0004960349178873003,0.0005235022399574518,-0.001267142128199339
1783696377698469600,8.9514697265625,-0.0005327602848410606,-0.000932168448343873,0.0002270855475217104
1783696377708432600,8.9614326171875,0.0015628811670467257,-0.000648807967081666,0.0006228312849998474
1783696377718395600,8.971395751953125,-0.00046515490976162255,0.0007271830108948052,0.00015006173634901643
1783696377728359700,8.981359619140624,-0.0002110893401550129,-0.0020558203104883432,0.0015327750006690621
1783696377738322700,8.99132275390625,0.0011772451689466834,0.00030756101477891207,0.0009966728975996375
1783696377748285700,9.00128564453125,-0.00019055431766901165,0.0026364955119788647,-0.0010030947159975767
1783696377758248700,9.011248779296874,-0.0014082933776080608,-0.001623460091650486,0.0015733253676444292
1783696377768211700,9.021211669921875,0.0011390201980248094,-0.0002162456512451172,0.00015359418466687202
1783696377778175500,9.031175537109375,0.0008007672731764615,0.0005602950695902109,-0.0010353517718613148
1783696377788138800,9.041138671875,0.00046121422201395035,-0.0015934034017845988,0.001956976018846035
1783696377798101800,9.051101806640625,-0.00024932302767410874,0.00104993162676692,-0.00011863978579640388
1783696377808064800,9.061064697265625,-0.0003593115834519267,0.0011362179648131132,0.0015551568940281868
1783696377818028800,9.07102880859375,0.00022544540115632117,0.000298722879961133,-0.00016423582565039396
1783696377827991800,9.08099169921875,0.0015929786022752523,-0.0002059461548924446,-0.00022442324552685022
1783696377837954800,9.090954833984375,0.0005599085707217455,-0.00045230460818856955,0.0005628137150779366
1783696377847917800,9.100917724609374,-0.0007836561417207122,-0.0024952152743935585,-0.00029845256358385086
1783696377857880600,9.110880615234375,0.000806548516266048,0.001015590038150549,-0.00011899345554411411
1783696377867844600,9.1208447265625,-0.0011053348425775766,0.00011118059046566486,0.00023121223784983158
1783696377877807600,9.1308076171875,-0.00020253103866707534,-0.0018255446339026093,0.00007743295282125473
1783696377887770600,9.1407705078125,0.0014347804244607687,0.002116732532158494,-0.0018216671887785196
1783696377897733600,9.150733642578125,-0.0013463865034282207,0.0021415662486106157,0.0004073020536452532
1783696377907696600,9.160696533203126,-0.0006915151607245207,-0.0021354705095291138,-0.0019730315543711185
1783696377917660700,9.17066064453125,-0.0012563548516482115,0.0006114772986620665,0.0006114435964263976
1783696377927623700,9.180623779296875,-0.0018592944834381342,0.0005033529596403241,0.00033127906499430537
1783696377937586700,9.190586669921874,-0.00001637595414649695,-0.0014524487778544426,0.0008569933124817908
1783696377947549700,9.2005498046875,-0.00011997291585430503,0.0015382810961455107,-0.0006562147755175829
1783696377957512700,9.2105126953125,-0.0003536397416610271,-0.0006650356808677316,0.00003445940092206001
1783696377967476500,9.2204765625,-0.0009627046529203653,-0.00038726802449673414,-0.001092590275220573
1783696377977439700,9.230439697265625,-0.0010878561297431588,0.0029209903441369534,0.00009470101213082671
1783696377987402800,9.24040283203125,0.0009939369047060609,-0.000014612218365073204,0.0010084315435960889
1783696377997365800,9.25036572265625,0.00003745204594451934,-0.0005283945938572288,-0.0014935854123905301
1783696378007328800,9.260328857421875,0.001028147991746664,0.0023470204323530197,-0.0008624161127954721
1783696378017292800,9.270292724609375,0.0008779435302130878,0.0003851426299661398,0.0002900272374972701
1783696378027255800,9.280255859375,-0.0010054439771920443,-0.0020713573321700096,-0.0005027957959100604
1783696378037218800,9.29021875,0.000471702340291813,0.0016700498526915908,-0.001999977510422468
1783696378047181600,9.300181640625,-0.00042072293581441045,-0.0007052234141156077,-0.00046812708023935556
1783696378057144600,9.31014453125,-0.0008421506499871612,0.0006909201620146632,-0.0008554524974897504
1783696378075203600,9.32820361328125,0.0019574507605284452,-0.0025646835565567017,0.0001490692957304418
1783696378085166600,9.33816650390625,-0.00022208022710401565,0.0011080821277573705,0.0003424147726036608
1783696378095130600,9.348130615234375,-0.00002126061008311808,0.0022024507634341717,0.00002768624108284712
1783696378105093600,9.35809375,0.00004265524330548942,-0.0031025661155581474,-0.0008612768724560738
1783696378115056600,9.368056640625,0.00028293480863794684,-0.00030775810591876507,-0.001330727362073958
1783696378125020000,9.37802001953125,-0.00032426591496914625,0.0029285151977092028,-0.001438851817511022
1783696378134982700,9.387982666015626,0.00041945974226109684,-0.0022250714246183634,0.0006049935473129153
1783696378144946700,9.39794677734375,0.000998697243630886,0.0006279731169342995,-0.00117160112131387
1783696378154909700,9.40790966796875,-0.0012502737808972597,0.002248054835945368,-0.00011067755986005068
1783696378164872700,9.417872802734376,-0.00008487458399031311,-0.0010332256788387895,-0.00122707465197891
1783696378174835700,9.427835693359375,-0.0008756443858146667,0.00049158267211169,-0.0011118680704385042
1783696378184798700,9.437798828125,0.001193898031488061,0.00041248672641813755,0.0013915032614022493
1783696378194762800,9.4477626953125,-0.0004813230480067432,-0.0010577004868537188,0.0010541027877479792
1783696378204725800,9.457725830078125,0.00045104962191544473,0.0021388917230069637,-0.00030277774203568697
1783696378214688800,9.467688720703125,0.0016560584772378206,-0.00022070726845413446,0.0003284066915512085
1783696378224651800,9.47765185546875,0.0011178336571902037,-0.000659596174955368,-0.0006633545272052288
1783696378234614500,9.487614501953125,-0.0007081048679538071,0.0004154324997216463,0.00046233710600063205
1783696378244578600,9.49757861328125,0.0008077664533630013,0.0004591083852574229,0.002127611543983221
1783696378254541600,9.50754150390625,-0.0001023863151203841,-0.00005743047222495079,-0.000197485089302063
1783696378264504600,9.517504638671875,-0.00005924310244154185,0.001084266696125269,-0.001057419809512794
1783696378274467600,9.527467529296874,-0.0018190342234447598,0.00030764564871788025,0.000177559326402843
1783696378284430800,9.537430908203126,0.0003035051340702921,-0.0012481731828302145,-0.0015998344169929624
1783696378294394600,9.54739453125,-0.0021349654998630285,0.0026356156449764967,0.0010345813352614641
1783696378304358000,9.55735791015625,-0.0010465316008776426,-0.002335973549634218,-0.00027036748360842466
1783696378314321000,9.56732080078125,-0.00007414416177198291,-0.0012341114925220609,-0.0011149034835398197
1783696378324283600,9.57728369140625,-0.0009284862317144871,0.001702290028333664,-0.0006443228339776397
1783696378334247700,9.58724755859375,-0.0004707987536676228,-0.00033872900530695915,-0.0007226421730592847
1783696378344210700,9.597210693359376,-0.0011059626704081893,0.0009752747719176114,-0.002056086901575327
1783696378354173700,9.607173583984375,0.0001796512951841578,0.0022704799193888903,0.000021339510567486286
1783696378364136700,9.61713671875,-0.0009862806182354689,-0.001193493721075356,0.0008855353225953877
1783696378374099700,9.627099609375,0.00045977107947692275,0.00037698226515203714,-0.0011058701202273369
1783696378384685800,9.637685791015626,-0.00010242224379908293,0.0008118764380924404,-0.0006829601479694247
1783696378394648800,9.64764892578125,-0.00014316861052066088,-0.0026068235747516155,0.002076607197523117
1783696378404611600,9.657611572265624,0.0005829705041833222,0.0002684374339878559,0.0011652717366814613
1783696378414575600,9.66757568359375,0.00043409981299191713,0.002134248148649931,-0.00020598992705345154
1783696378424538600,9.67753857421875,0.0000783389259595424,-0.0018040406284853816,0.00005425384733825922
1783696378434501600,9.687501708984374,0.000989406369626522,0.0014916211366653442,-0.0016901165945455432
1783696378444464600,9.697464599609376,-0.0003819183330051601,0.0004450735868886113,-0.0012440679129213095
1783696378454427600,9.707427734375,-0.000637581804767251,-0.001540313009172678,0.0011652938555926085
1783696378464391700,9.7173916015625,0.0008345599635504186,0.0007976983324624598,-0.0002268296666443348
1783696378474354700,9.727354736328126,0.00005585167673416436,0.00004881748463958502,0.0018392506754025817
1783696378484317700,9.737317626953125,0.0015612271381542087,-0.0023306049406528473,-0.0012023700401186943
1783696378494280700,9.74728076171875,0.00008663482731208205,0.000676104100421071,-0.0005080840783193707
1783696378504243700,9.75724365234375,-0.004564610309898853,0.03034776821732521,0.025509975850582123
1783696378514207500,9.76720751953125,-0.0024034548550844193,0.08035100996494293,0.08891158550977707
1783696378524170800,9.777170654296874,-0.0033999739680439234,0.08277303725481033,0.09485483914613724
1783696378534133800,9.7871337890625,-0.0020111354533582926,0.01219846960157156,0.03711564093828201
1783696378544096800,9.7970966796875,-0.00026830966817215085,-0.03881023824214935,-0.026895398274064064
1783696378554059800,9.807059814453124,0.0031421345192939043,-0.023368166759610176,-0.04541661962866783
1783696378564023800,9.81702392578125,0.001694488455541432,-0.007002977654337883,-0.039905257523059845
1783696378573986800,9.82698681640625,0.0009730381425470114,-0.030176473781466484,-0.04531120881438255
1783696378583949000,9.836948974609374,0.0015196733875200152,-0.05199258401989937,-0.04236477240920067
1783696378593912000,9.846912109375,0.0002799719222821295,-0.04091383516788483,-0.017563018947839737
1783696378603875000,9.856875,0.0000821314170025289,-0.0016243438003584743,0.0018629967235028744
1783696378613839000,9.866839111328124,0.0007263500592671335,0.0224319901317358,0.00904474314302206
