time,seconds_elapsed,z,y,x
1783696400338041600,0.06004150390625,-0.1313689566195011,0.00026161007825285196,-0.016844897947460413
1783696400348004600,0.070004638671875,-0.13134849835336207,0.00898603767324239,-0.01731141948066652
1783696400357967600,0.079967529296875,0.054803603333234786,-0.02599233672749251,0.004454897049628198
1783696400367931600,0.089931640625,0.06989654304683209,-0.00083535484559834,0.03207052413001656
1783696400377894700,0.099894775390625,-0.07048515658974647,-0.009378909448347985,0.007146437688544392
1783696400387857400,0.109857421875,-0.09621171852052211,-0.006816950005851686,-0.012192395966500043
1783696400397820400,0.1198203125,-0.020170681369304656,-0.02156451034788042,0.007972951640561223
1783696400407783400,0.129783447265625,0.013639818295836447,-0.013646978688985109,0.011202069754898547
1783696400417747500,0.13974755859375,-0.01764730037152767,-0.01077266536168754,-0.0003758475750684738
1783696400427710500,0.14971044921875,-0.0420323845654726,-0.014320822829939425,-0.016345898916758597
1783696400437673500,0.159673583984375,-0.048319502010941505,-0.0309663257477805,0.007103694525361061
1783696400447636500,0.169636474609375,-0.03216390150189399,-0.008630794494785368,0.0063350847730413076
1783696400457599700,0.179599853515625,-0.011356091272830963,-0.0061876025937497615,-0.012503069350868463
1783696400467562500,0.1895625,-0.021071429601311684,-0.0019649799300357697,-0.004168700519390404
1783696400477526500,0.199526611328125,-0.012387772408127783,-0.01719309033062309,-0.0032124592404812573
1783696400487489500,0.209489501953125,-0.039758009892702104,0.00620042554270476,0.013631087000109255
1783696400497452500,0.21945263671875,-0.06472878502011299,0.0029738647116348146,-0.0036869448844343423
1783696400507415600,0.22941552734375,-0.0035176527321338653,-0.004441051187366247,0.0037964331408962605
1783696400517378600,0.239378662109375,-0.004259411010146141,-0.005861512444540858,0.02214256596416235
1783696400527341600,0.249341552734375,-0.05079202960431575,-0.0027019159024581313,0.0007778525047004223
1783696400537305600,0.2593056640625,-0.05347089342474937,-0.01630764926560223,-0.010081906618550419
1783696400547268600,0.2692685546875,-0.022184943801164626,-0.011082754224166273,0.01942790017798543
1783696400557231400,0.2792314453125,-0.011718494844436645,0.0027656653210520743,0.008962656797654926
1783696400567194400,0.2891943359375,-0.018299626800417898,0.013191343875974416,-0.00467478687800467
1783696400577157400,0.299157470703125,-0.05045943664908409,-0.004389211402274668,0.0010681772207841278
1783696400587121400,0.309121337890625,-0.04358078305125236,-0.01632207964975387,0.009373502620868385
1783696400597085200,0.319085205078125,-0.020094109001755713,0.006738879800960421,0.007581796898506582
1783696400607048200,0.329048095703125,-0.03161503544747829,0.004521715208142996,0.013508081674948333
1783696400617011200,0.33901123046875,-0.033716391640901566,-0.010745521626435219,0.0043795302584767335
1783696400626974500,0.348974365234375,-0.021896189987659454,-0.00021919570863246916,0.007665200865641236
1783696400636937200,0.358937255859375,-0.029824644899368286,-0.021067118752375245,0.008562880357727409
1783696400646901200,0.3689013671875,-0.032220015603303905,-0.01748250173125416,-0.006811835439316928
1783696400656864300,0.3788642578125,-0.028923312145471572,-0.009340477134101093,-0.008501980483345687
1783696400666827300,0.3888271484375,-0.03909691563546657,-0.008623889829963444,0.004199059125036001
1783696400676790300,0.398790283203125,-0.02697393164336681,-0.015691197867691516,-0.007014226143620908
1783696400686753300,0.408753173828125,-0.023669044879078862,0.008780249435454607,-0.0009922259077429771
1783696400696717300,0.41871728515625,-0.033240006300807,0.00012947159856557846,0.005705152839049697
1783696400706680300,0.428680419921875,-0.010053191980719566,0.0017442863840609788,0.014312383795157074
1783696400716643300,0.438643310546875,-0.021122867527604103,-0.0069674278598278756,0.010502725846506654
1783696400726606000,0.448606201171875,-0.04955342772006988,-0.014505020290426909,-0.011468794399686157
1783696400736569000,0.458569091796875,-0.02726736163198948,-0.01666990670673549,-0.007404613700695335
1783696400746532000,0.468531982421875,-0.018292028015851974,-0.017545812758430836,0.0014746756624430418
1783696400756496100,0.47849609375,-0.040889644271135325,-0.028984906139597293,0.005475472269020974
1783696400766459100,0.488459228515625,-0.02832476173043251,-0.012502119502797723,-0.002206643198803067
1783696400776422100,0.498422119140625,-0.025330256089568137,-0.015065357586927711,-0.0038656989848241206
1783696400786385400,0.508385498046875,-0.018597148442268372,-0.015544446340762078,-0.003813968797586858
1783696400796348400,0.518348388671875,-0.03161503544747829,-0.011854432716406882,-0.0009299743264913558
1783696400806312400,0.5283125,-0.021139818662405014,0.002552607092261314,0.011877484798431396
1783696400816275200,0.538275146484375,-0.03849778069853783,0.0019459464360028504,0.004703099657036364
1783696400826238200,0.54823828125,-0.025333178699016568,0.008693484467454254,0.00013549948055297136
1783696400836201200,0.558201171875,-0.020392799687385558,-0.00119666243866086,0.000090637425519526
1783696400846164200,0.568164306640625,-0.034466917747259136,0.0020930632891133427,0.00014207535181194543
1783696400856127200,0.578127197265625,-0.03043137862086296,-0.003987133407406509,-0.0056387730719521635
1783696400866091300,0.58809130859375,-0.035066637206077576,-0.004864939155243337,-0.0024685455380007624
1783696400876054300,0.59805419921875,-0.03566460309922695,-0.008603979553095996,-0.004280307667702436
1783696400886017300,0.608017333984375,-0.01650748268663883,-0.005610716021247208,0.0019044088492169975
1783696400895980000,0.61797998046875,-0.023386136284470557,-0.005021116097643971,0.008528649294562637
1783696400905943000,0.627943115234375,-0.015161913296580313,-0.014295469192974268,0.012866386237926781
1783696400915907000,0.637906982421875,-0.020552374163269996,-0.00660831222385168,0.004073459983989596
1783696400925870000,0.6478701171875,-0.034918753167986864,-0.013392200210317968,-0.0051511356854811305
1783696400935833000,0.6578330078125,-0.04225917905867099,-0.014558467510715127,0.0031252193484455344
1783696400945796400,0.66779638671875,-0.025652327650785445,0.0001179272912442684,0.012016893269121646
1783696400955759400,0.67775927734375,-0.040166006171703336,-0.007326251234859227,-0.014247794126346707
1783696400965722400,0.687722412109375,-0.02206102516055107,-0.005116320100426674,-0.0074389543617144225
1783696400975686400,0.697686279296875,-0.015621347501873968,-0.009153028270602225,0.004569390274770557
1783696400985649400,0.7076494140625,-0.04824176059961319,-0.002699212488718331,0.014851641771011054
1783696400995612200,0.717612060546875,-0.05019172562360763,-0.010126951336674392,-0.0027473990119993687
1783696401005575200,0.7275751953125,-0.020564649122953412,-0.008993819120898843,-0.005658025761693716
1783696401015538200,0.7375380859375,-0.0225128605812788,-0.01871306643951684,0.011026384394429623
1783696401025502200,0.747502197265625,-0.03193593796491623,-0.02574241708703339,-0.010163630085252225
1783696401035465200,0.75746533203125,-0.0337321737319231,-0.008585092189535497,-0.003977123470045626
1783696401045428200,0.76742822265625,-0.02131692879498005,-0.019114377249404787,-0.004421725432388484
1783696401055391200,0.77739111328125,-0.012339841613173485,-0.012718502199836074,-0.0018023367142304778
1783696401065354200,0.787354248046875,-0.04330664228498936,-0.009450622977688908,0.004749057690612971
1783696401075318300,0.797318359375,-0.04571078081727028,-0.006884900675527751,0.0070513798162341115
1783696401085281000,0.807281005859375,-0.010702595800161361,-0.011329641657322644,0.00329126009773463
1783696401095244300,0.817244384765625,-0.022669512447714806,-0.010885112760215997,0.015463088200241327
1783696401105207300,0.827207275390625,-0.050509705531597136,-0.012256254982948302,-0.0006405994584783912
1783696401115170300,0.83717041015625,-0.030758710879087447,-0.007201053952611982,-0.009853504690155387
1783696401125133300,0.84713330078125,-0.011006547182798384,-0.008322787991538643,0.009059577833488583
1783696401135097300,0.857097412109375,-0.03779167825579643,-0.005500533645041287,0.00503919974360615
1783696401145060400,0.867060302734375,-0.031362521991133686,-0.012971125254034994,0.0020311770340427754
1783696401155023400,0.8770234375,-0.03315115897357464,0.0011720029214397072,-0.0034579584341496226
1783696401164986000,0.886986083984375,-0.023873627540469167,-0.007695486406050622,-0.0007172083586454391
1783696401174949000,0.89694921875,-0.027915011885762214,-0.007565539883449673,-0.005298581332154571
1783696401184913200,0.9069130859375,-0.033902854123711586,0.00391132822483778,0.0015258943930268286
1783696401194876200,0.916876220703125,-0.03331482510268688,-0.01319035749528557,-0.005353635987639427
1783696401204839200,0.926839111328125,-0.022994506618380546,-0.008943952097184956,-0.009488470770046114
1783696401214802200,0.93680224609375,-0.04603694403171539,-0.008854922106862067,-0.002011412887647748
1783696401224765200,0.94676513671875,-0.03272679608166218,-0.017010171511769295,0.00020114859528839587
1783696401234729200,0.956729248046875,-0.03377893548309803,-0.0033366701420396564,-0.014116020972840487
1783696401244692200,0.966692138671875,-0.03781213652193546,0.0005401712913066149,0.016098390429094434
1783696401254655200,0.9766552734375,-0.035574586728215216,-0.026730697472020983,0.012559512245841323
1783696401264618200,0.9866181640625,-0.0230009363591671,-0.00761317841745913,0.004556019336543977
1783696401274581200,0.996581298828125,-0.04319558312594891,-0.0010452712692320346,0.0021509309561923147
1783696401284544300,1.006544189453125,-0.031677579289674754,-0.010262743078172206,0.000255399533174932
1783696401294508300,1.01650830078125,-0.03332067032158375,0.008586005504988134,0.0033168694630265234
1783696401304471300,1.02647119140625,-0.04215104250907898,-0.0037519729446619746,0.0011762041725218296
1783696401314434300,1.036434326171875,-0.030488077244162557,-0.01435319072958082,0.006013707331568002
1783696401324397300,1.046397216796875,-0.02763619494438171,-0.0104348482420668,0.011010127379372715
1783696401334360000,1.056360107421875,-0.03930266734063625,-0.009715630589425563,-0.0010541121628135442
1783696401344324400,1.066324462890625,-0.023887656065821647,-0.005923508297465741,-0.010431633371673524
1783696401354287000,1.076287109375,-0.015801380243897437,-0.007639262706786393,0.009544438740983605
1783696401364250000,1.08625,-0.04214227468073368,-0.014014789088070391,0.009753916773200035
1783696401374213000,1.096213134765625,-0.03360825509130955,-0.009232778975926339,0.0003596270926296711
1783696401384176000,1.106176025390625,-0.020882629030942915,-0.005521722563542425,0.01741681608390063
1783696401394139400,1.116139404296875,-0.030913024657964704,-0.017456417441926896,0.010913060213066638
1783696401404103200,1.126103271484375,-0.029569208833575247,-0.009381868590414524,0.004724653901718556
1783696401414066400,1.13606640625,-0.028521745607256888,-0.004365501733124256,0.0034256270671263337
1783696401424029400,1.146029541015625,-0.03451251045465469,-0.01914119219109416,0.002923559296503663
1783696401433992200,1.1559921875,-0.022696400454640386,-0.007295892629213631,-0.0027890096640214323
1783696401443955200,1.165955078125,-0.03944295259416103,-0.009458696686290204,0.005022833130694925
1783696401453919200,1.175919189453125,-0.04438683873713016,-0.007768953501060605,0.006174743112176657
1783696401463882200,1.18588232421875,-0.013263970720767975,0.004050554032437503,-0.010833053779415786
1783696401473845200,1.19584521484375,-0.02702887670099735,-0.010966251705028116,0.002309190257824957
1783696401483808300,1.205808349609375,-0.04139876283705234,-0.01673727285452187,-0.0007832227995619177
1783696401493771300,1.215771240234375,-0.024341245052218435,-0.0023942381927743554,0.0022759090427309273
1783696401503734300,1.225734375,-0.023746201768517494,-0.010666611171327531,0.0004459536692127585
1783696401513698300,1.2356982421875,-0.02584814248383045,-0.020156506713479756,-0.016982479787245392
1783696401523661000,1.2456611328125,-0.02300268992483616,-0.0023951515082269908,0.005757759809121489
1783696401533624000,1.2556240234375,-0.026742460975050925,-0.016714549566060305,0.00716444826927036
1783696401543587300,1.26558740234375,-0.015822423031926155,-0.014530045133829116,0.003147358115017414
1783696401553550300,1.27555029296875,-0.032572482302784915,0.006590265110507607,-0.00877115281354636
1783696401563514000,1.28551416015625,-0.02419160744845867,-0.008482873924076557,-0.0061644409138709305
1783696401573477400,1.295477294921875,-0.03317804698050022,-0.018748393481224774,-0.0018146116739138959
1783696401583440400,1.3054404296875,-0.02150514484345913,0.003509944349713623,-0.003305398220941424
1783696401593403400,1.3154033203125,-0.030782676276564596,-0.01318780021201819,-0.007268529698252677
1783696401603366100,1.3253662109375,-0.019717092382907867,-0.01539769481383264,-0.014744162808544932
1783696401613330200,1.335330078125,-0.031388825476169585,-0.008492445470020175,0.011568784175440668
1783696401623293200,1.345293212890625,-0.03677461016774177,-0.0159368066592142,0.004169029312953353
1783696401633256200,1.355256103515625,-0.019418401697278022,-0.011383563801646231,-0.012749481859989463
1783696401643219200,1.36521923828125,-0.023302549654245375,-0.01622866574525833,-0.006866524768620729
1783696401653182200,1.37518212890625,-0.034677930149435994,-0.007461421921849251,0.010010302687063813
1783696401663145000,1.38514501953125,-0.021666472885012625,0.003368343921937048,0.009991817182302474
1783696401673109000,1.39510888671875,-0.011644845086336135,0.0013416969325393438,0.0016314371267333626
1783696401683072000,1.405072021484375,-0.02032908680140972,-0.006802884947881102,0.00018185937292873857
1783696401693035000,1.415034912109375,-0.030955694755911825,-0.013881335434131323,-0.008832125753164291
1783696401702998300,1.424998291015625,-0.02825637266933918,-0.007611790177971124,0.008983918781392276
1783696401712961300,1.434961181640625,-0.02542202602624893,-0.015433058388158678,-0.003623816520348191
1783696401722924300,1.44492431640625,-0.03470014198124408,-0.008293927223235369,-0.010143646743148564
1783696401732888300,1.454888427734375,-0.033792964008450506,0.0037489407373592254,0.000616707126237452
1783696401742851300,1.464851318359375,-0.04606383203864097,-0.008545454298891126,0.010396963917091488
1783696401752814000,1.47481396484375,-0.031548399952054024,0.002327712295204401,-0.014848938357271253
1783696401762777000,1.484777099609375,-0.03722703011035919,0.0014173925172537565,0.015482340889982878
1783696401772740000,1.494739990234375,-0.039925183153152466,-0.009777407246641815,0.0012063070498406886
1783696401782704000,1.5047041015625,-0.01643207936286926,-0.0024646365478634834,0.0018351430052891372
1783696401792667100,1.514667236328125,-0.03304068433642387,-0.000023015549406409262,0.005491948479786515
1783696401802630100,1.524630126953125,-0.04067921639084816,-0.01119121956732124,-0.012338234177976847
1783696401812593200,1.53459326171875,-0.018683657681941985,0.0022253113666549323,-0.0008701338980346918
1783696401822556200,1.54455615234375,-0.025264205116033552,0.002856193148717284,0.008866429881565272
1783696401832519200,1.554519287109375,-0.029608956322073936,-0.016726641862653196,-0.0038813714779913425
1783696401842483000,1.56448291015625,-0.014188099828362465,0.003877791281417012,-0.00031768764704465867
1783696401852446000,1.574446044921875,-0.024659224960207938,-0.0024795783886685965,0.01191646510194987
1783696401862409200,1.5844091796875,-0.03858078280687332,-0.01550692734196782,0.00489453057590872
1783696401872372200,1.594372314453125,-0.010294599521160125,-0.004203516104444861,0.0058968760188668964
1783696401882335200,1.604335205078125,-0.024954408514499662,-0.009613083530403674,0.0014530483525246381
1783696401892299300,1.61429931640625,-0.03977028485238552,-0.010564429438486695,0.005901661791838706
1783696401902262300,1.62426220703125,-0.019714169773459432,0.0064449018230661745,-0.0013490765213966369
1783696401912225300,1.634225341796875,-0.026304069557785987,-0.004501293474622071,0.0024013985859230157
1783696401922188000,1.64418798828125,-0.022713936111330983,-0.01368581286203116,-0.005281922458298504
1783696401932151000,1.654151123046875,-0.030492168897390363,0.004287066202051938,0.007933021488972007
1783696401942114000,1.664114013671875,-0.04830138183236122,-0.007914901310391723,0.0017798691540956495
1783696401952078000,1.674078125,-0.01538344709277153,-0.015313560194335878,-0.012577924685366452
1783696401962041000,1.684041015625,-0.021219898161292074,-0.010013371426984666,-0.0018688260791823268
1783696401972004000,1.694004150390625,-0.03423544707894325,-0.02227645800951868,0.002221731170080602
1783696401981967000,1.703967041015625,-0.020917115822434423,-0.00629581220857799,-0.009421652611531316
1783696401991930400,1.713930419921875,-0.025699089401960373,0.014002660258859396,-0.0016079101206734777
1783696402001893000,1.72389306640625,-0.031243279525637626,-0.01146766188852489,-0.006478402233868837
1783696402011857200,1.733857177734375,-0.028701778349280355,-0.013274492114782332,-0.00536061371769756
1783696402021820200,1.743820068359375,-0.021811434313654898,-0.012171755037270486,0.006697963268682361
1783696402031783200,1.753783203125,-0.0352834948271513,-0.009274937617219984,-0.005972535070963203
1783696402041746200,1.76374609375,-0.030647651720046996,-0.003512830426543951,-0.006283756444603205
1783696402051709200,1.773709228515625,-0.023010873231291768,-0.00009469254612922667,0.023528650027699768
1783696402061673200,1.783673095703125,-0.020619594180583952,-0.01159647589996457,0.002797850557602942
1783696402071636200,1.79363623046875,-0.013282675421237945,-0.009384498938918113,-0.011812054879404604
1783696402081599200,1.80359912109375,-0.023152327528595924,-0.005055749019607901,0.005380633592419326
1783696402091562200,1.813562255859375,-0.03872223710417747,-0.004382489400543272,0.008487184773012996
1783696402101525000,1.82352490234375,-0.02435761166512966,-0.00022032821979373692,-0.0002807166375219822
1783696402111488000,1.833488037109375,-0.023757892206311224,-0.0014029986657202243,-0.004375402072630823
1783696402121452000,1.8434521484375,-0.024663316613435744,-0.012173216341994702,-0.014942388794384896
1783696402131415000,1.8534150390625,-0.02675356689095497,0.006764708361960947,-0.0013781564854085445
1783696402141378000,1.8633779296875,-0.0427601143181324,-0.005239727284386753,0.00810903564300388
1783696402151341300,1.87334130859375,-0.038572599500417706,-0.021476539803482592,-0.007442571090906858
1783696402161304300,1.88330419921875,-0.008038929548859595,-0.0013373130183666944,-0.0018926818788051604
1783696402171267300,1.893267333984375,-0.02689092953503132,-0.01099551433213055,0.009932232482172548
1783696402181231400,1.9032314453125,-0.015380524483323096,-0.017060769187845288,0.013303754741884766
1783696402191194000,1.913194091796875,-0.02630173147022724,-0.011248977636545896,-0.010359481450915337
1783696402201157000,1.9231572265625,-0.029147184029221535,-0.01592365491669625,0.00915953107662499
1783696402211120000,1.9331201171875,-0.018829203632473944,-0.003943878787569702,0.002013020322844386
1783696402221083100,1.943083251953125,-0.026155600997805593,0.002376629470847547,0.002587824536114931
1783696402231047200,1.953047119140625,-0.038430560681223865,-0.008784560284391046,0.005940897823683917
1783696402241010200,1.96301025390625,-0.024363456884026528,-0.014365027297846972,-0.002421199264936149
1783696402250973200,1.97297314453125,-0.02345744795501232,0.004196428776532412,-0.0028095409953966736
1783696402260936200,1.982936279296875,-0.046507484152913094,-0.017235943091660738,-0.000998436452820897
1783696402270899000,1.99289892578125,-0.028405425751209256,0.0014602818109095096,-0.00700593323931098
1783696402280863000,2.002863037109375,-0.034088147562742234,0.0002988733487203717,0.013048062947764992
1783696402290826000,2.012825927734375,-0.03873451206386089,-0.014112842635065317,0.0034185397392138836
1783696402300789000,2.0227890625,-0.022431027516722678,-0.00186824155729264,-0.011782901850156485
1783696402310752300,2.032752197265625,-0.018686580291390417,0.003885864990018308,0.018871800665184853
1783696402320715300,2.04271533203125,-0.035896073767542835,-0.017565686502680183,0.009391878527775406
1783696402330678300,2.05267822265625,-0.022727380114793777,-0.00532327738199383,0.0001242474341765046
1783696402340642300,2.062642333984375,-0.026163784304261205,-0.0090286347059533,-0.009927410176582633
1783696402350605300,2.072605224609375,-0.03828910638391971,-0.007495908713340759,-0.004761149987205862
1783696402360568000,2.082568115234375,-0.022729718202352523,0.0019091946221888065,0.0038788141947239635
1783696402370531000,2.092531005859375,-0.036196518018841745,-0.005153912164457142,0.0028043168310076
1783696402380494000,2.102494140625,-0.0368038362622261,-0.01059274221751839,-0.009038242784515023
1783696402390458000,2.1124580078125,-0.03574818972945213,-0.005485737934708595,-0.004618161319941282
1783696402400421000,2.122421142578125,-0.03723813602626323,-0.01897127898428589,0.0030170827988535162
1783696402410384100,2.132384033203125,-0.041434418672323226,-0.022103366464935242,0.0013772797025740145
1783696402420347100,2.14234716796875,-0.026472411862015724,-0.0006921104500070214,-0.006669467826560139
1783696402430310100,2.15231005859375,-0.023777765950560567,-0.007991912069357931,0.0011907441545277832
1783696402440273200,2.162273193359375,-0.03141337539553642,-0.010353526634164154,0.0006707754010334611
1783696402450237000,2.17223681640625,-0.02452361588180065,-0.015050525343976913,0.003853935481794178
1783696402460200200,2.1822001953125,-0.027216508227586745,-0.012753244719654321,0.0021313129402697087
1783696402470163200,2.1921630859375,-0.03724748837649822,-0.008556669812649489,-0.0017709551952779293
1783696402480126200,2.202126220703125,-0.014951485416293143,-0.01287705376241356,0.024234789003059268
1783696402490089200,2.212089111328125,-0.03246025409996509,-0.003241466139256954,0.009083104839548469
1783696402500053200,2.22205322265625,-0.022594109123945234,-0.0031461525386199353,-0.0019837942283600567
1783696402510016300,2.232016357421875,-0.02064414409995079,-0.0005512406745925545,0.006646306146681308
1783696402519979300,2.241979248046875,-0.04967676183879375,-0.005697371391393244,-0.007598455772362649
1783696402529942000,2.25194189453125,-0.024394436544179915,-0.0038772067595273254,-0.00400678795594722
1783696402539905000,2.261905029296875,-0.01675590448975563,-0.0003822407832369208,0.004602744555100798
1783696402549868000,2.271867919921875,-0.033813422274589534,-0.006563304038345813,-0.0060024187525734305
1783696402559832000,2.28183203125,-0.025736498802900312,-0.013054748416878282,-0.012428506277315317
1783696402569795000,2.291795166015625,-0.019893617993593214,-0.009557736613973975,0.006349442091956734
1783696402579758000,2.301758056640625,-0.030969138759374615,-0.0018971023255959151,-0.0006550298426300287
1783696402589721000,2.31172119140625,-0.024383915150165556,-0.007563713252544403,-0.005756298504397273
1783696402599683000,2.32168310546875,-0.026025837138295174,0.00001340747084468603,0.013200440497882663
1783696402609647000,2.331647216796875,-0.04009527902305126,-0.006098316875100135,0.002340790972486138
1783696402619610000,2.341610107421875,-0.03575637303590774,0.007428652163408696,-0.002916362370736897
1783696402629573000,2.351572998046875,-0.023778934994339942,0.00276307150516659,0.01086447183098644
1783696402639536000,2.3615361328125,-0.04023907140791416,-0.0028169936494901776,0.006268449277617037
1783696402649499100,2.3714990234375,-0.01374737032353878,-0.01650719042569399,0.00366012994274497
1783696402659462100,2.381462158203125,-0.017336334726214406,-0.0022300971396267415,0.01295205522738397
1783696402669426200,2.39142626953125,-0.043673137509822844,-0.013378244750201702,-0.003099171591736376
1783696402679389200,2.40138916015625,-0.018235329392552374,-0.009166874132864176,-0.004905526893958449
1783696402689352000,2.41135205078125,-0.026615035203099248,0.0006798354903236031,0.012448964543454349
1783696402699315000,2.42131494140625,-0.044723523345589634,-0.016377572696655986,0.007265278295241296
1783696402709278200,2.4312783203125,-0.010898410633206367,-0.00672010203525424,0.004775653436593711
1783696402719242000,2.441241943359375,-0.028251696494221684,-0.013244389237463473,0.010700915299728513
1783696402729205200,2.451205322265625,-0.03289689195156097,-0.011797076505981385,0.0034247137516736983
1783696402739168300,2.461168212890625,-0.021367197677493094,-0.0031532033339142797,-0.007962174518220125
1783696402749131300,2.47113134765625,-0.03648001113533973,-0.012302870603650807,0.012691650725528598
1783696402759094300,2.48109423828125,-0.032742578172683716,-0.009434731288813053,0.00034833851363509893
1783696402769057000,2.49105712890625,-0.027947160589694976,-0.01219959289226681,0.004120988920144736
1783696402779021300,2.501021240234375,-0.032279052314162254,-0.01527341084703803,0.013594627447240054
1783696402788984000,2.510984130859375,-0.025549451798200607,-0.0010458557911217211,-0.007249496204219758
1783696402798947000,2.520947021484375,-0.0120820674598217,0.0008413827275857329,0.004453874136321246
1783696402808910000,2.53091015625,-0.03677577921152115,-0.006303812851943075,0.010941592187806963
1783696402818873000,2.540873046875,-0.017028291690349577,-0.01479497968032956,-0.010228037090972066
1783696402828837000,2.550837158203125,-0.013132453295588492,-0.01916950497012585,-0.0028470965268090364
1783696402838800100,2.560800048828125,-0.04456161078214645,-0.02442687750905752,-0.00705967272054404
1783696402848763100,2.57076318359375,-0.03275076147913933,-0.012204634393565356,-0.003599120470508933
1783696402858726100,2.58072607421875,-0.024815292304754256,-0.002915741316229105,0.011818411554954946
1783696402868689200,2.590689208984375,-0.03634557110071182,-0.010133271479606628,0.004117847114987671
1783696402878652200,2.600652099609375,-0.03799626091718673,-0.0029122341848909854,0.00047086891476064917
1783696402888616200,2.6106162109375,-0.029314941811561582,-0.0006435951331630349,0.016235387746989727
1783696402898579200,2.6205791015625,-0.03441547982096672,-0.011685286694578826,-0.0018957871513441203
1783696402908542200,2.630542236328125,-0.014964344897866248,-0.013198979193158447,-0.004822305589914321
1783696402918505200,2.640505126953125,-0.025133856734633444,-0.010535787865892052,0.007324826462753117
1783696402928468200,2.65046826171875,-0.03292144187092781,-0.01645447385776788,-0.0018566241847351192
1783696402938432300,2.660432373046875,-0.025590952852368353,-0.007338416596688329,0.0031392478737980126
1783696402948395300,2.670395263671875,-0.04563946914672851,-0.005797982221655547,0.017818199959024787
1783696402958358000,2.68035791015625,-0.05237783749103546,-0.015856106105819345,0.001653758556395769
1783696402968321000,2.690321044921875,-0.01915536684691906,0.001435110837034881,0.0018028481708839534
1783696402978284000,2.700283935546875,-0.031573534393310544,0.0014674056714400648,0.018326660937815903
1783696402988247000,2.7102470703125,-0.026940613895654678,-0.01405581521820277,-0.00012863134834915397
1783696402998211000,2.720211181640625,-0.017962942191958427,-0.0016080927837640046,0.0049440322734415525
1783696403008174000,2.730174072265625,-0.04115326364338398,-0.006549604306556284,0.010694668222032487
1783696403018137300,2.740137451171875,-0.028290274938941,-0.01984214353468269,-0.0143186308728531
1783696403028100400,2.750100341796875,-0.030984336328506466,0.0002529883803799748,-0.002980440582893789
1783696403038063000,2.76006298828125,-0.04685001398026943,-0.006432882591709494,-0.012957425522245465
1783696403048027100,2.770027099609375,-0.02680149768590927,-0.0135112234801054,-0.010718743217363953
1783696403057990100,2.779990234375,-0.024103344643115997,0.01712714895494282,0.007891630032658576
1783696403067953200,2.789953125,-0.03547814061641693,-0.0019261822896078228,0.0024572204263880845
1783696403077916200,2.799916259765625,-0.03323942177891731,0.00020969722792506216,-0.00836238934956491
1783696403087879200,2.809879150390625,-0.01376958215534687,0.010218940469063818,-0.006071538466028869
1783696403097842200,2.81984228515625,-0.03472001572549343,-0.009841485458798706,0.0036982699960470197
1783696403107806200,2.82980615234375,-0.03247895880043507,-0.01877835022807121,-0.020767989675328134
1783696403117769200,2.839769287109375,-0.017357377514243124,-0.008525470956787467,0.0015438319085165858
1783696403127732000,2.84973193359375,-0.03561141160726547,-0.012086086047813296,0.006249379250966012
1783696403137695000,2.859695068359375,-0.03590834872722626,-0.009267338832654059,-0.0111085827851668
1783696403147658000,2.869657958984375,-0.03604921850264072,-0.010085669478215277,0.006844970523938536
1783696403157622000,2.8796220703125,-0.03605272563397884,-0.009208192523941398,0.0028786607088521123
1783696403167585000,2.8895849609375,-0.026627310162782667,-0.007100479654967785,0.00396857483740896
1783696403177548300,2.89954833984375,-0.04158580984175205,-0.008759535440988838,0.012210991069115698
1783696403187511300,2.90951123046875,-0.035160160708427424,-0.012360774803347884,0.009890987156331538
1783696403197474300,2.919474365234375,-0.018998714980483052,0.006334134924970567,0.011984488836862145
1783696403207437000,2.92943701171875,-0.036349662753939624,-0.006283719911985099,0.004366963037848472
1783696403217401300,2.9394013671875,-0.035605566388368606,-0.0030994638526812193,0.0015896803442388772
1783696403227364000,2.949364013671875,-0.027972879552841185,-0.0038697175728157162,0.001133278346247971
1783696403237327000,2.9593271484375,-0.03185468942224979,-0.01027067065630108,0.002974156972579658
1783696403247290000,2.9692900390625,-0.0421802686035633,-0.015276479586958885,-0.004407843037508428
1783696403257253000,2.979253173828125,-0.02931143468022346,-0.0028454890916123983,0.0023105419646948576
1783696403267217200,2.989217041015625,-0.031254969963431356,-0.003986037428863346,-0.0007897256055846809
1783696403277180200,2.99918017578125,-0.03170797442793846,-0.013727167785726488,-0.009045439710281789
1783696403287143200,3.00914306640625,-0.019433599266409873,0.009985497039370237,-0.0011259718226268886
1783696403297106200,3.019106201171875,-0.03319850524663925,-0.004061258089542389,0.008827997567318379
1783696403307069200,3.029069091796875,-0.013304302731156348,-0.014616590906120835,-0.015737703890539703
1783696403317032200,3.0390322265625,-0.016891513568162916,-0.01164561227131635,-0.0010111498039215802
1783696403326996000,3.048995849609375,-0.04188274696171283,-0.008133768225461245,0.0020855010371655224
1783696403336959200,3.058959228515625,-0.03515548453330993,-0.018036518884822727,0.005139700976014137
1783696403346922200,3.068922119140625,-0.02452536944746971,-0.003497669390030205,0.0009552548982203007
1783696403356885200,3.07888525390625,-0.04712240118086338,-0.007021496134623884,0.00974646411910653
1783696403366848300,3.08884814453125,-0.010167758271098136,0.0019527780355885623,0.001230564708262682
1783696403376811300,3.098811279296875,-0.020490999364852904,-0.00042838147990405554,0.000873348768427968
1783696403386775300,3.108775390625,-0.035305706658959386,-0.014902495175413786,0.01160538985878229
1783696403396738000,3.118738037109375,-0.03156944274008274,-0.0005789689317345619,-0.0030261428881436583
1783696403406701000,3.128701171875,-0.02363748069703579,-0.00009673837274312972,0.0054312678011134265
1783696403416664000,3.1386640625,-0.034118542701005936,-0.0044062356023117895,0.0022380977829918264
1783696403426627000,3.148626953125,-0.026042788273096085,-0.013469393632374703,-0.009675042850710452
1783696403436591000,3.158591064453125,-0.0408516503483057,0.013848894469253718,0.005809270800650119
1783696403446554000,3.16855419921875,-0.03950491191446781,-0.014759433442912995,0.008392565292119979
1783696403456517000,3.17851708984375,-0.020055530557036398,-0.004131802575103938,-0.0028837022101506587
1783696403466480000,3.188480224609375,-0.02858253588378429,-0.0010769450491294264,0.016572510746866463
1783696403476443100,3.198443115234375,-0.03801671918332577,-0.014499211604148148,-0.0018425956593826412
1783696403486406100,3.20840625,-0.031281273448467255,-0.006633848523907363,-0.006749328129738569
1783696403496370200,3.2183701171875,-0.0252881705135107,0.0008480316640809178,0.02133241862505674
1783696403506333200,3.228333251953125,-0.03412614148557186,-0.007237623103335499,-0.001487206350453198
1783696403516296200,3.238296142578125,-0.032326398587226864,0.018380765745230017,-0.0032578327521681784
1783696403526259200,3.24825927734375,-0.03277063522338867,-0.0007353650698438286,0.008093143954128027
1783696403536222200,3.25822216796875,-0.039214989057183264,-0.009360350878350436,0.0008209244614467025
1783696403546186200,3.268186279296875,-0.022303017222881315,0.01363685915376991,0.007525646264478564
1783696403556149200,3.278149169921875,-0.03217968359291553,-0.00773037505634129,0.01423478851430118
1783696403566112000,3.288112060546875,-0.032192543074488635,-0.009685418114252388,0.0015554492810741067
1783696403576075000,3.298074951171875,-0.02141571299433708,-0.0028617461066693067,0.004394618229754269
1783696403586038000,3.3080380859375,-0.035035073024034497,0.005849383615329861,0.01354855981580913
1783696403596001000,3.3180009765625,-0.03728782038688659,-0.011931078149192035,-0.012609525400027632
1783696403605965800,3.3279658203125,-0.015438976672291755,-0.0013325637780129908,0.0038379341950640082
1783696403615928800,3.3379287109375,-0.058981765800714486,-0.016390359112992883,0.005970379646494984
1783696403625891800,3.347891845703125,-0.026661796954274175,0.0015334201123565435,-0.01398830293994397
1783696403635854800,3.357854736328125,-0.019477438408136368,0.005837072123028338,0.0060506418084725734
1783696403645817900,3.36781787109375,-0.044618893927335736,0.003939129547215998,0.012948986487463116
1783696403655781600,3.37778173828125,-0.01859071870148182,0.003059204907529056,0.0023921558335423467
1783696403665745000,3.387744873046875,-0.01694061340689659,0.005074161459133029,0.005813070192933082
1783696403675708000,3.3977080078125,-0.04357961400747299,-0.007883921650238334,0.016017653343081473
1783696403685671000,3.4076708984375,-0.018748539611697194,-0.014419168637879192,-0.009997698933817446
1783696403695634000,3.417634033203125,-0.025176526832580565,-0.013257760175690055,-0.002637289701029658
1783696403705597000,3.427596923828125,-0.044182840597629544,-0.015567242694459854,0.014375219898298382
1783696403715561000,3.43756103515625,-0.016797405543923376,-0.018865736250579357,-0.010057502829656005
1783696403725524000,3.44752392578125,-0.02351882275342941,-0.008054638574644923,-0.0017276275102049111
1783696403735486700,3.45748681640625,-0.04296820411086082,-0.01979070560839027,0.0020049100816249845
1783696403745449700,3.46744970703125,-0.021273089653253554,-0.01014375634100288,-0.005911890924908221
1783696403755412700,3.477412841796875,-0.02650046891272068,0.011892280508764088,0.006814977244473993
1783696403765376800,3.487376708984375,-0.042215339916944504,-0.011877813591994345,0.005063274738937616
1783696403775339800,3.49733984375,-0.017078560572862625,0.0039500162674114105,-0.005751549264043569
1783696403785302800,3.507302734375,-0.021862287718057632,0.002936966767348349,0.005459690177999437
1783696403795265800,3.517265869140625,-0.03398234910070896,-0.010985650525242089,-0.002179134137369692
1783696403805229000,3.52722900390625,-0.028598902496695517,-0.0030402444787323473,0.0019250863110646605
1783696403815192800,3.53719287109375,-0.025306290692090987,0.01053834514915943,0.008965067950449884
1783696403825156000,3.547156005859375,-0.041918987318873405,-0.012092040864564477,0.0011483297849074006
1783696403835118800,3.557118896484375,-0.01498480316400528,-0.0023167525097727774,0.0015884382352232933
1783696403845081900,3.567081787109375,-0.0393745635330677,-0.009923428121209143,0.010058818003907798
1783696403855044900,3.577044921875,-0.029206220740079877,-0.005096007964760065,0.00272310482095927
1783696403865007900,3.5870078125,-0.02710428002476692,-0.009673581545986234,0.0041312180532142515
1783696403874972000,3.596971923828125,-0.0383200860440731,-0.005847593517042696,0.0010387684632092713
1783696403884935000,3.606934814453125,-0.029649872854351996,-0.009567454290390014,0.0003439180668443441
1783696403894898000,3.61689794921875,-0.032336919981241226,-0.0015549012918025255,-0.0028948446586728096
1783696403904861000,3.62686083984375,-0.034878421157598496,0.002816518725454807,0.003892148600332439
1783696403914823700,3.63682373046875,-0.038034254840016365,-0.010436309546791016,-0.0022575331358239054
1783696403924787700,3.64678759765625,-0.008407178339362144,0.0000415010541677475,0.002121850992180407
1783696403934750700,3.656750732421875,-0.030108722537755966,-0.0006007789047434925,-0.0017875775365158914
1783696403944713700,3.666713623046875,-0.035949849781394004,-0.006854359406791627,0.0009972308764234184
1783696403954677000,3.676677001953125,-0.037737902241945266,-0.01082633177768439,0.008526932261511683
1783696403964640000,3.686639892578125,-0.04058101671338081,-0.010961246736347675,0.0032691213311627507
1783696403974603000,3.69660302734375,-0.02890811457633972,-0.01337729490213096,-0.0051150779914110895
1783696403984567000,3.706567138671875,-0.03877835120558738,-0.0007290449269115925,0.01322060650307685
1783696403994530000,3.716530029296875,-0.02726151641309261,-0.009188318779692053,0.010882665074802934
1783696404004492800,3.726492919921875,-0.02756839040517807,-0.001303556879237294,0.0075272171670570966
1783696404014455800,3.736455810546875,-0.03145721453726291,0.007411226104572415,0.014166107192263007
1783696404024418800,3.746418701171875,-0.029966683718562124,-0.01142952183522284,-0.0020004896348342297
1783696404034382800,3.7563828125,-0.01934709002673626,-0.0038228827564045784,-0.001403948513790965
1783696404044345900,3.766345947265625,-0.04028758672475814,0.0009222294114530086,0.011291026679985225
1783696404054308900,3.776308837890625,-0.04179156154692173,-0.007527545960620045,0.003763882578164339
1783696404064272000,3.78627197265625,-0.013513561567664145,-0.003181187319383025,-0.006479900071211159
1783696404074235000,3.79623486328125,-0.033111996006965634,-0.021421339017525316,-0.006613061464205384
1783696404084197600,3.80619775390625,-0.03715747200548648,-0.012192797825299202,-0.004051759608834982
1783696404094161700,3.81616162109375,-0.013066986843943595,-0.00545998243894428,0.008106222631409764
1783696404104124700,3.826124755859375,-0.03296469649076462,-0.008413717678003012,0.009746098792925477
1783696404114088000,3.836087890625,-0.045243747827410696,-0.012988660910725593,0.005409165567159652
1783696404124051000,3.846051025390625,-0.020404490125179288,0.01091375433281064,-0.0005021408358588814
1783696404134014000,3.856013916015625,-0.029978374156355857,0.0010321195267140864,0.0028590792255476115
1783696404143978000,3.86597802734375,-0.03612228373885155,-0.011389372487924992,-0.014711027723923324
1783696404153941000,3.87594091796875,-0.015313888987898826,-0.002655482944846153,-0.016031827998906373
1783696404163904000,3.885904052734375,-0.021596330258250234,0.006394998266734182,0.015701353935524822
1783696404173866800,3.89586669921875,-0.015019289955496787,-0.021692264913395046,0.00222246182244271
1783696404183829800,3.905829833984375,-0.017561375653743744,-0.003848857447877526,0.00754438749756664
1783696404193793800,3.915793701171875,-0.03745791625678539,-0.010719620000198483,0.003037906391173601
1783696404203756800,3.9257568359375,-0.044346506726741786,-0.012006554538197815,-0.0007696326656267046
1783696404213719800,3.9357197265625,-0.021744214296340943,0.004182948240451514,0.0021682474171742794
1783696404223682800,3.945682861328125,-0.032225276300311086,-0.015174407451972365,0.003737286832183599
1783696404233645800,3.955645751953125,-0.04330722680687904,-0.0005386369213461876,0.0062224547114223235
1783696404243608800,3.96560888671875,-0.02325052720606327,0.01336304718106985,-0.005729520095326006
1783696404253572900,3.97557275390625,-0.03597089256942272,-0.016855784667655825,0.010455014247260986
1783696404263535900,3.985535888671875,-0.04136661413311958,-0.006637794046662747,-0.008959003535844385
1783696404273499000,3.995498779296875,-0.029099253234267233,-0.0018645517628639934,0.003223528623767197
1783696404283462000,4.0054619140625,-0.04630757766664028,-0.00005498159024864435,0.009334814578294753
1783696404293425000,4.0154248046875,-0.03164426154196262,-0.017161526148580013,-0.00718888859078288
1783696404303388000,4.025387939453125,-0.02700023512840271,-0.00180120420306921,-0.0009684066407382488
1783696404313352000,4.03535205078125,-0.034034371548891065,-0.014499028941057621,0.009202091576717794
1783696404323315000,4.04531494140625,-0.010244330638647079,-0.00797320736888796,-0.00038114480469375844
1783696404333278000,4.05527783203125,-0.014279869765043259,-0.003360781669989228,-0.001982223325781524
1783696404343241000,4.065240966796875,-0.04720014259219169,-0.013743680529110134,-0.0032581615457311273
1783696404353203700,4.07520361328125,-0.028493688556551933,0.00009779781866818665,-0.006948650094121694
1783696404363167700,4.085167724609375,-0.017111878320574758,0.007351568339206278,0.006653722268156707
1783696404373130800,4.095130859375,-0.03537292667627334,-0.010883249596692622,-0.0010014321275055409
1783696404383093800,4.10509375,-0.021308745488524437,-0.0007909311819821595,-0.00025967384949326515
1783696404393056800,4.115056884765625,-0.026399346625804898,-0.0053681029044091695,0.007231485623493791
1783696404403020000,4.12502001953125,-0.04271978230774402,-0.011702493557706474,0.006781330703198909
1783696404412983000,4.134983154296875,-0.034493221232295035,0.010267857644706963,-0.005965922667086124
1783696404422946800,4.14494677734375,-0.04271452161073684,-0.002788279011659324,0.00492423159442842
1783696404432910000,4.15491015625,-0.03494154952168464,-0.01618095414601266,0.005652399738505482
1783696404442872800,4.164872802734375,-0.01907470282614231,0.00022504092752933502,0.004525003143772482
1783696404452835800,4.1748359375,-0.02849894925355911,0.0017853490468114613,0.014988639088906347
1783696404462798800,4.184798828125,-0.0287999780267477,-0.012893603038415313,0.011758205800317226
1783696404472763000,4.194762939453125,-0.017725626304745674,-0.010814750937744975,0.0038231750173494216
1783696404482726000,4.204725830078125,-0.03014554741680622,-0.002633819102309644,0.01087864648681134
1783696404492689000,4.21468896484375,-0.028058219748735427,-0.011267536206543445,-0.0058768926767632365
1783696404502652000,4.22465185546875,-0.015036241090297699,-0.008177607367187738,0.0045600379245355725
1783696404512615000,4.234614990234375,-0.03119476420879364,0.00010251052640378474,0.014473492641001938
1783696404522577700,4.24457763671875,-0.028356325912475583,-0.010924787183478474,0.006763320122472941
1783696404532541700,4.254541748046875,-0.013991700473427772,-0.0014481164490804076,0.0044721039127558464
1783696404542504700,4.264504638671875,-0.02881225298643112,-0.014960728168673812,0.0012253770764917135
1783696404552467700,4.2744677734375,-0.03091536274552345,-0.012705094728991388,0.003978182915970683
1783696404562431000,4.284430908203125,-0.022981062614917752,-0.00810370188076049,-0.0037028365733101963
1783696404572394000,4.29439404296875,-0.03764613230526447,0.0003428586209192872,0.0020705957289785144
1783696404582357800,4.304357666015625,-0.031063831305503845,-0.008212496017478406,-0.0063926967117935414
1783696404592321000,4.314321044921875,-0.021627309918403625,-0.008594517605006693,0.012167042329534888
1783696404602283500,4.324283447265625,-0.03030921354591846,-0.007050393435545265,0.0012567220628261564
1783696404612246500,4.33424658203125,-0.023424130207300185,0.005449497577548027,-0.003638356502354145
1783696404622209500,4.34420947265625,-0.02222352224588394,-0.008881773581169546,0.01718139989282936
1783696404632172500,4.354172607421875,-0.0392915614247322,-0.013180785949341953,0.013612601495347916
1783696404642136600,4.364136474609375,-0.03645663025975227,0.002434898996725678,-0.004488945449702441
1783696404652099600,4.374099609375,-0.03450549619197845,-0.0010096884991973637,0.009410510163009166
1783696404662062600,4.3840625,-0.032865327769517894,-0.016942403505183754,0.0054324368448927995
1783696404672025300,4.394025390625,-0.01939969699680805,-0.007834712213650345,0.0037117505321279166
1783696404681988400,4.40398828125,-0.03510580017268657,-0.011473251379095018,0.0019677198763936757
1783696404691951600,4.41395166015625,-0.03331424058079719,-0.012090287298895419,0.002246244556829333
1783696404701915400,4.423915283203125,-0.016409283009171483,-0.003666596216149628,-0.008157368296757339
1783696404711878700,4.433878662109375,-0.02658580910861492,-0.0063252940313890576,0.0033551191141828894
1783696404721841700,4.443841552734375,-0.025993103912472722,-0.01333206752091646,-0.007752879149094224
1783696404731804700,4.4538046875,-0.023145313265919683,-0.0013890797382220626,-0.0008125950245186686
1783696404741767700,4.463767578125,-0.03436462641656399,-0.0036188846169039604,0.002972038080729544
1783696404751731700,4.473731689453125,-0.02942833905816078,-0.015458740818686782,0.0034908743230625985
1783696404761694500,4.483694580078125,-0.009669745621085166,0.010167137216590344,0.008080942059680818
1783696404771657500,4.493657470703125,-0.028669629645347593,-0.0044866438947618005,0.012151881293021142
1783696404781620500,4.503620361328125,-0.026426234632730482,-0.0031359599381685253,-0.002746266500838101
1783696404791583500,4.51358349609375,-0.019686112722754476,0.004095233424380422,0.009463518991880119
1783696404801546500,4.52354638671875,-0.04063245463967323,-0.008157185633666813,-0.0009607713235542177
1783696404811510500,4.533510498046875,-0.01759410887956619,-0.0007882643008604646,0.0030557708414271473
1783696404821473500,4.5434736328125,-0.019539397728443146,0.01044058386310935,0.002287161089107394
1783696404831436500,4.5534365234375,-0.03121463795304298,-0.01143478253223002,-0.003298018632084131
1783696404841399600,4.563399658203125,-0.031218145084381102,-0.005562931356765329,-0.01626202002558857
1783696404851362600,4.573362548828125,-0.020891981381177902,-0.0032880086947232484,-0.010654482342116535
1783696404861326300,4.583326416015625,-0.0436357281088829,0.0011811726085841656,-0.0019699848987162114
1783696404871289600,4.59328955078125,-0.04005027083754539,-0.005680931713245809,-0.0010990107504650949
1783696404881252600,4.603252685546875,-0.01775543692111969,0.012247341024130581,0.007922427029721438
1783696404891215600,4.613215576171875,-0.039455812075734134,-0.009552695112675428,0.012583331512846052
1783696404901178600,4.6231787109375,-0.02194996600151062,-0.005570347478240728,-0.0036077787009999155
1783696404911142700,4.633142578125,-0.033166941064596174,0.0036872736779972907,0.005082235167734325
1783696404921105700,4.643105712890625,-0.03481237018406391,-0.009906951910443603,0.0005400251608341932
1783696404931068400,4.653068359375,-0.028525837260484695,0.006905468539521098,-0.00626070436257869
1783696404941031400,4.663031494140625,-0.023283844953775404,-0.0070211673410609365,0.020406755147501825
1783696404950994400,4.672994384765625,-0.03975274919569492,-0.01614650388713926,-0.0025804084146395325
1783696404960957400,4.68295751953125,-0.015214520266652107,0.0041967941027134656,-0.008358626489900052
1783696404970921500,4.69292138671875,-0.02552957805395126,-0.010482779037021099,0.008748502590321004
1783696404980884500,4.702884521484375,-0.019099252745509148,-0.01728423921279609,-0.008888312919810414
1783696404990847500,4.712847412109375,-0.021792729613184927,-0.008919694438762962,0.0013080503912642598
1783696405000810500,4.722810546875,-0.03345861748754978,-0.011718896703235804,-0.004151347525790334
1783696405010773500,4.7327734375,-0.04258826488256454,0.0008801073027774691,-0.00040299131032079456
1783696405020737500,4.742737548828125,-0.01789922930598259,0.010182627046667038,-0.003093947427347302
1783696405030700500,4.752700439453125,-0.040641806989908213,0.004373210115544497,0.006239296248368918
1783696405040663600,4.76266357421875,-0.03361117770075798,0.003070493486523628,-0.0006259864112362265
1783696405050626600,4.77262646484375,-0.020445406657457352,-0.00359221580568701,0.002632723123766482
1783696405060589600,4.782589599609375,-0.03197100927829742,-0.00243281663749367,0.00648888709526509
1783696405070552600,4.792552490234375,-0.04214753537774086,-0.012648724899254738,0.004473163358680904
1783696405080516600,4.8025166015625,-0.028979426246881483,0.0070651160806417465,0.0007805559184402227
1783696405090479600,4.812479736328125,-0.0330178879827261,0.0009261384015902877,0.004328786451928317
1783696405100442600,4.822442626953125,-0.03332300840914249,-0.010253025401756167,-0.015315898281894624
1783696405110405400,4.8324052734375,-0.01880290014743805,0.007517536023259163,-0.005984919628500938
1783696405120368400,4.842368408203125,-0.030773908448219298,-0.008733341553807257,0.007102196688018739
1783696405130332400,4.85233251953125,-0.02180091291964054,-0.010738726559467613,-0.001387070444226265
1783696405140295400,4.86229541015625,-0.017602292186021804,-0.0019805793579667805,-0.004691226556152105
1783696405150258400,4.872258544921875,-0.03749941731095314,-0.006631364305876195,0.0002855389431118965
1783696405160221700,4.8822216796875,-0.032117724272608755,-0.021407493155263364,0.010259710870869456
1783696405170184700,4.892184814453125,-0.01984334911108017,-0.0019219079732894896,0.011007204769924282
1783696405180148500,4.9021484375,-0.03226443926692009,-0.008565547238849103,-0.006874379281513392
1783696405190111700,4.91211181640625,-0.01146598138809204,-0.01860558747705072,-0.007882971802167594
1783696405200074500,4.922074462890625,-0.02582300804257393,-0.005045812147483229,0.0027439284132793544
1783696405210037500,4.93203759765625,-0.03674538407325744,-0.016730222059227525,0.0009358195453882217
1783696405220000500,4.94200048828125,-0.02327624616920948,-0.011289309646934271,-0.006028795302845538
1783696405229963500,4.951963623046875,-0.018033084818720818,-0.00085000442545861,0.0013241247432306408
1783696405239927600,4.961927490234375,-0.030750527572631834,-0.015064553869329393,0.008910342088527977
1783696405249890600,4.971890625,-0.02685468917787075,0.0012893091581761837,-0.003667838325165212
1783696405259853600,4.981853515625,-0.03223521317243576,0.0065974985688924785,0.0073314023340120904
1783696405269816600,4.991816650390625,-0.03523264142274856,-0.001106280741468072,-0.0013172566110268235
1783696405279779300,5.001779296875,-0.022520459365844726,0.005550327603518962,-0.0018146116739138959
1783696405289743400,5.011743408203125,-0.018477905976772308,-0.0012501461915671824,0.019721184036135674
1783696405299706400,5.021706298828125,-0.05394201806783676,-0.010430756588838994,0.004817373686470091
1783696405309669400,5.03166943359375,-0.032092005309462546,-0.00007083674650639295,-0.0014044965030625461
1783696405319632600,5.041632568359375,-0.027898645272850988,-0.006189429224655032,-0.006309146614186465
1783696405329595600,5.051595703125,-0.032843700459599494,-0.022308204854652285,-0.002883081155642867
1783696405339558700,5.06155859375,-0.02715396438539028,-0.007601268783956765,0.013011530329659581
1783696405349522700,5.071522705078125,-0.012483633998036384,-0.004629376833699643,0.0027020620329305527
1783696405359485700,5.081485595703125,-0.021159692406654357,-0.0055830242967233054,-0.01227101416066289
1783696405369448400,5.091448486328125,-0.01906301238834858,-0.003799574946053326,0.0002669073078781366
1783696405379411500,5.101411376953125,-0.023251111727952956,0.0006956175813451409,0.016078224423900247
1783696405389374500,5.11137451171875,-0.04016542164981365,-0.019211773209273815,-0.009963796664215624
1783696405399338500,5.12133837890625,-0.026236849540472028,0.008803557245805858,0.004361337014660239
1783696405409301500,5.131301513671875,-0.038355157357454296,-0.015317871043272315,0.011521364837139845
1783696405419264500,5.141264404296875,-0.03776303668320179,-0.015425934527628122,-0.011094079335778951
1783696405429227500,5.1512275390625,-0.010976736566424368,-0.008842172223143279,-0.012031798577308654
1783696405439190500,5.1611904296875,-0.04061024280786514,-0.01680127800144255,-0.00007134820315986871
1783696405449154600,5.171154541015625,-0.019364625683426857,0.006846358763426542,-0.003291625423915684
1783696405459117300,5.181117431640625,-0.028329437905550002,0.009119126001000405,0.010710998302325605
1783696405469080600,5.19108056640625,-0.04149579347074032,-0.006460355120524764,0.005755165993236005
1783696405479043600,5.201043701171875,-0.03491173890531063,0.005122274917177856,-0.007613105352222919
1783696405489006600,5.211006591796875,-0.019637597405910492,0.011024776959232985,0.004773498012125492
1783696405498969600,5.220969482421875,-0.03774959267973899,-0.014061002849973737,-0.004717420443333685
1783696405508933600,5.23093359375,-0.033415362867712975,-0.0018175708159804344,0.003986147026717663
1783696405518896600,5.240896728515625,-0.022191958063840864,0.010796119302511214,0.0043580125464126465
1783696405528859600,5.250859619140625,-0.03925532106757164,-0.012225531051121652,0.007897804045118391
1783696405538822400,5.260822509765625,-0.02220306397974491,-0.004709127539023757,-0.005136924497038126
1783696405548785400,5.270785400390625,-0.026831892824172972,-0.0080436787892133,0.0069172320425510405
1783696405558749400,5.28074951171875,-0.04224690409898758,-0.009847988264821469,0.003999408367089927
1783696405568712400,5.29071240234375,-0.023542203629016874,-0.0008087590996176003,-0.008011712748371064
1783696405578675500,5.300675537109375,-0.029074703314900398,-0.003237191822938621,0.010471563523262738
1783696405588638500,5.310638427734375,-0.05181961908638477,-0.009693893681652844,-0.010145363776199519
1783696405606698000,5.328697998046875,-0.04073942214548588,-0.009142214615643024,0.012769428669475018
1783696405616661000,5.338660888671875,-0.028168694385886192,-0.009133702515624464,-0.005522708944231272
1783696405626624000,5.3486240234375,-0.019190438160300253,-0.008864712848514318,0.011274550469219683
1783696405636587300,5.358587158203125,-0.03310147461295128,-0.0020314692949876187,0.009994374465569854
1783696405646551000,5.368551025390625,-0.02427694764435291,-0.002924655275046825,-0.007561996219493448
1783696405656514000,5.37851416015625,-0.03235445563793182,0.0016460867065936325,-0.0009801336111500858
1783696405666477300,5.388477294921875,-0.026066753670573234,-0.005257262941077351,0.005101159063912928
1783696405676440000,5.398440185546875,-0.019342413851618764,-0.0006857903070747852,-0.0017769465446472166
1783696405686403000,5.408403076171875,-0.028178046736121176,-0.012682554103620349,0.002446845162846148
1783696405696366000,5.418365966796875,-0.04673077151477337,-0.002157579892687499,0.010108721560239791
1783696405706330000,5.428330078125,-0.03251461463570594,-0.00457366459108889,-0.005604468943551182
1783696405716293000,5.438293212890625,-0.025182956573367117,-0.007465038651041686,0.01749251166861504
1783696405726256000,5.448256103515625,-0.03610182547271251,0.0051409796176478265,0.006398468865454196
1783696405736219100,5.45821923828125,-0.027726795837283134,-0.0015539514437317846,-0.016578721291944383
1783696405746182100,5.46818212890625,-0.03685352062284946,-0.012238427065312862,0.005017901227250695
1783696405756146200,5.478146240234375,-0.048531683456897734,-0.007228563014045357,0.0066064855929464095
1783696405766109200,5.488109130859375,-0.028938509714603423,0.003317015593498945,0.00287405759897083
1783696405776072000,5.498072021484375,-0.039709494575858116,-0.005385602028481662,0.0064241147633641955
1783696405786035000,5.508034912109375,-0.04554477660059929,-0.01790350362230092,-0.019098850886709987
1783696405795998200,5.517998291015625,-0.019205635729432104,0.0047231560643762344,0.0058090150723233815
1783696405805961200,5.527961181640625,-0.023985271221399304,-0.007740640722028911,0.012211429460532962
1783696405815925200,5.53792529296875,-0.04314122259020805,-0.00845960264634341,-0.0004806961890310049
1783696405825888300,5.54788818359375,-0.02025076086819172,0.006170432263240218,-0.0031806758627295493
1783696405835851300,5.557851318359375,-0.028623452416062352,-0.012111476217396557,0.0007046411380171775
1783696405845814300,5.567814208984375,-0.03550736671090126,-0.013874686497636138,0.0036757293706759808
1783696405855777000,5.577777099609375,-0.027581249886751175,-0.0015947949107736348,-0.001890161128155887
1783696405865741000,5.587740966796875,-0.017249240964651108,0.003859853765927255,0.006694967593997717
1783696405875704000,5.5977041015625,-0.03625613925158977,0.0008769289650022984,-0.009398892790451646
1783696405885667000,5.6076669921875,-0.023683657926321027,0.006304324308596551,0.0006849865894764662
1783696405895630000,5.617630126953125,-0.028318331989645958,-0.004282061233371496,0.005763714625872671
1783696405905593000,5.627593017578125,-0.03101823859810829,-0.004143164219334721,-0.013389460263960063
1783696405915556000,5.63755615234375,-0.021443770045042037,-0.0022517244495451447,0.0033430633502081033
1783696405925520100,5.64752001953125,-0.03326338717639446,-0.007741188711300492,0.0008427709670737385
1783696405935483100,5.657483154296875,-0.038061727368831635,-0.007745243831910192,-0.0021986790880560874
1783696405946069000,5.668069091796875,-0.018458032232522962,-0.0057400049567222595,0.006102298930473625
1783696405956032000,5.678031982421875,-0.03910743702948093,-0.01123030946869403,0.009625285424850881
1783696405965995000,5.6879951171875,-0.014876082092523574,0.0018364216469228267,-0.016654599539749324
1783696405975958000,5.6979580078125,-0.0035047932505607605,-0.011415895168669522,0.006952303355932235
1783696405985921000,5.707921142578125,-0.02804360670149326,-0.007368336810916662,0.004648446860350668
1783696405995885000,5.717885009765625,-0.02147065805196762,0.005001096222922206,-0.00834686298687011
1783696406005848000,5.72784814453125,-0.0313490779876709,-0.003909391996078193,0.01213438216894865
1783696406015811300,5.737811279296875,-0.03209960409402847,-0.012518595713563263,0.005236366283521056
1783696406025774000,5.747774169921875,-0.02492401337623596,-0.004997114167548716,-0.0038978111561387774
1783696406035737000,5.757737060546875,-0.02088847424983978,-0.0020680019130930303,0.014680376857332884
1783696406045700000,5.7677001953125,-0.042135844939947126,-0.015434117834083735,-0.0007498319866135716
1783696406055664000,5.7776640625,-0.020891396859288213,0.0006286167597398161,0.0028991920402273532
1783696406065627100,5.787627197265625,-0.024329554614424705,-0.0018363851143047213,0.010361490744911134
1783696406075590100,5.797590087890625,-0.027622166419029235,-0.01794796381853521,0.009579363923892378
1783696406085553200,5.80755322265625,-0.015506196689605713,0.0016867475105449556,-0.0011142083195969461
1783696406095516200,5.81751611328125,-0.026581717455387115,0.004756291148997843,0.005445917380973697
1783696406105480200,5.827480224609375,-0.029722353568673133,-0.004728782087564468,0.0047173108454793685
1783696406115443200,5.837443115234375,-0.018947277054190633,0.002969188536517322,-0.0008959624590352178
1783696406125406000,5.847406005859375,-0.03480710948705673,0.001127433127351105,0.0019521935136988758
1783696406135369000,5.857368896484375,-0.04933014035820961,-0.017299181053601204,-0.007249313541129231
1783696406145332200,5.867332275390625,-0.024497312396764753,-0.0039288638815283775,0.0029037951501086354
1783696406155296000,5.8772958984375,-0.03691664898693561,-0.0013352306591346858,0.0038658451152965424
1783696406165259000,5.887259033203125,-0.04650163893401622,-0.007526303851604461,-0.0023139394981786608
1783696406175222300,5.89722216796875,-0.030789690539240834,-0.0031270825119689106,-0.0059341758219525215
1783696406185185300,5.907185302734375,-0.048288522350788114,-0.010690174710005522,0.01038293539173901
1783696406195148300,5.917148193359375,-0.026442601245641708,-0.005162424264475703,0.006532251312956213
1783696406205111000,5.927111083984375,-0.02748772638440132,0.006554974601417779,0.001808328063599765
1783696406215075000,5.937074951171875,-0.018657938718795775,-0.005161291753314435,0.00554389786273241
1783696406225038000,5.9470380859375,-0.02135901437103748,-0.008224259520508348,0.0016053528374060987
1783696406235001000,5.9570009765625,-0.02839139722585678,0.012522395105846226,0.010183942220918833
1783696406244964000,5.966964111328125,-0.0247960030823946,-0.01125076773483306,-0.002365267826616764
1783696406254927000,5.976927001953125,-0.025548867276310918,-0.00571476091761142,0.016168971447274087
1783696406264891100,5.98689111328125,-0.02465162617564201,0.009052380907721817,0.006513035155832767
1783696406274854100,5.996854248046875,-0.032579496565461157,0.010866736853308976,0.004460924931615591
1783696406284817200,6.006817138671875,-0.018817513194680214,0.004902604284510016,-0.006215440448746085
1783696406294780000,6.01677978515625,-0.02435293549001217,0.0042572190530598165,0.005189056543074548
1783696406304743200,6.0267431640625,-0.028247020319104192,-0.012741810010187328,0.00042202480435371396
1783696406314707000,6.03670703125,-0.011942366728186606,-0.006176314014755189,0.007189509645290673
1783696406324670000,6.046669921875,-0.017325813332200048,0.00529891012571752,0.007306158294901251
1783696406334633200,6.05663330078125,-0.040969139248132704,-0.0019230404844507575,0.0041826194468885655
1783696406344596200,6.06659619140625,-0.020475217273831368,-0.010589454281888901,-0.007324680332280695
1783696406354559200,6.076559326171875,-0.022714520633220672,-0.010916165485605598,0.003937449046783149
1783696406364523300,6.086523193359375,-0.02421031214892864,-0.007874496234767138,0.0020715821096673605
1783696406374486300,6.096486328125,-0.026608605462312696,0.0012205182382836936,-0.0037725408086553215
1783696406384449000,6.106448974609375,-0.022568390160799024,0.002192797336541116,0.015596286125853656
1783696406394412000,6.116412109375,-0.03394026352465153,-0.013779738223180174,-0.0003285378346219659
1783696406404375000,6.126375,-0.029303251373767852,0.01237538785059005,-0.008023512784019112
1783696406414339000,6.136339111328125,-0.030796120280027386,-0.0014295578790828585,0.012424779950268566
1783696406424302000,6.146302001953125,-0.028260464322566986,-0.012486739270575344,0.007657784744165837
1783696406434265000,6.15626513671875,-0.020787351962924003,-0.01205627543143928,-0.006336838338710367
1783696406444228000,6.16622802734375,-0.03844108207523823,-0.006210508545301854,0.014354761632159352
1783696406454191000,6.176191162109375,-0.028870120653510092,0.007184504676610231,-0.0009790741652250289
1783696406464155100,6.186155029296875,-0.007926701346039771,0.00026438655722886323,0.00427358566597104
1783696406474118000,6.196117919921875,-0.01735153229534626,-0.01694737194124609,-0.0022242884533479807
1783696406484081200,6.2060810546875,-0.038757892939448355,-0.015687142747081814,-0.00012559914104640484
1783696406494044200,6.216044189453125,-0.026641338688135147,-0.0012948621161282061,0.004590871454216539
1783696406504007200,6.226007080078125,-0.022900983116030692,-0.010827902680262923,0.01726586330588907
1783696406513971200,6.23597119140625,-0.02290858190059662,-0.003597805296257138,0.005887194875068962
1783696406523934200,6.245934326171875,-0.034739304947853086,0.01429156020283699,-0.001441138719022274
1783696406533897200,6.255897216796875,-0.03668985449373722,-0.009997881596907973,0.0018670359808951615
1783696406543860200,6.265860107421875,-0.03445464278757572,-0.008303535301797092,-0.017237879320420323
1783696406553823000,6.275822998046875,-0.03984335008859634,0.011410524873808026,0.0027564225686714052
1783696406563786000,6.285785888671875,-0.04403787916898727,-0.0029775910386815665,0.011257708932273089
1783696406573750000,6.29575,-0.019357611420750615,-0.007528568873926997,0.00199650757946074
1783696406583713000,6.305713134765625,-0.03746843765079975,0.0024224779065698384,0.015046287560276686
1783696406593676000,6.315676025390625,-0.05467793112695217,-0.019832462390884757,0.0009631824763491749
1783696406603638300,6.32563818359375,-0.027452655071020123,0.0053531975962221616,-0.01441551537606865
1783696406613601300,6.335601318359375,-0.03253799551129341,0.007965462453849614,0.0071572878761216995
1783696406623565300,6.3455654296875,-0.05543137984275818,-0.0015989961618557572,0.0032279490705579518
1783696406633528300,6.3555283203125,-0.030296938586235046,-0.0037245734810829162,-0.0006426452850922941
1783696406643491300,6.3654912109375,-0.025510288831591604,-0.001716777322627604,0.006049655427783727
1783696406653454300,6.375454345703125,-0.04899988549053669,-0.010540719769336283,-0.00047488750275224447
1783696406663417300,6.385417236328125,-0.02072305455505848,-0.010090162990242242,-0.001401025904342532
1783696406673381400,6.39538134765625,-0.027158640560507773,-0.010049611784145235,0.0005299421582370996
1783696406683344400,6.405344482421875,-0.035842297753691674,-0.011596183639019727,-0.002908763586170971
1783696406693307100,6.41530712890625,-0.02492576694190502,-0.010207688422687352,-0.00622121260240674
1783696406703270100,6.425270263671875,-0.03420154480934143,-0.014480689566768705,0.014007994021102785
1783696406713233200,6.435233154296875,-0.024480361261963842,0.004468706379272044,-0.004073496516607701
1783696406723197200,6.445197265625,-0.01685118155777454,-0.002788279011659324,0.00041983284726738925
1783696406733160200,6.45516015625,-0.047969957920908926,-0.01265245122630149,0.011926000115275382
1783696406743123200,6.465123291015625,-0.026280104160308838,0.004076163397729397,-0.004932561031356453
1783696406753086200,6.475086181640625,-0.018649170890450477,0.000582439530454576,0.011609554577246307
1783696406763049500,6.485049560546875,-0.030765140619874,0.010289594552479684,0.005665661078877747
1783696406773013200,6.49501318359375,-0.033765491479635236,-0.0062146367311477655,0.004095050761289894
1783696406782976500,6.5049765625,-0.005935819789767265,0.011019041338190436,0.016864589028619228
1783696406792939300,6.514939208984375,-0.045291678622364995,-0.0073177026022225615,0.018755955733172593
1783696406802902300,6.52490234375,-0.03812017955780029,-0.017320187309011817,-0.001358757665194571
1783696406812865300,6.534865234375,-0.02315291205048561,0.007405198222585022,0.0006330006739124655
1783696406822828300,6.544828369140625,-0.04903554132580757,-0.014625103006139397,0.0034012963434681296
1783696406832792300,6.554792236328125,-0.03901215996146202,-0.0013183160569518804,-0.011036832723207771
1783696406842755300,6.56475537109375,-0.024936872857809066,-0.012923304056935012,-0.0034041458876803514
1783696406852718300,6.57471826171875,-0.019994740280508995,0.009182729289121925,0.017322050472535194
1783696406862681300,6.584681396484375,-0.025234979021549222,-0.01927669167164713,-0.0036550153762102125
1783696406872644000,6.59464404296875,-0.023133038306236267,0.007737754645198583,0.0035743148228153583
1783696406882608000,6.604608154296875,-0.03361000865697861,-0.006546425968781113,-0.010084390836581587
1783696406892571100,6.614571044921875,-0.039006314742565155,0.0018516922812908886,-0.021964505983516572
1783696406902534100,6.6245341796875,-0.027637363988161086,-0.005142185194045305,0.004258570759929716
1783696406912497400,6.634497314453125,-0.04260813862681389,-0.014522409816645085,0.007202697920426726
1783696406922460400,6.64446044921875,-0.030945757883787152,0.010981083947978913,0.0000478577297180891
1783696406932424200,6.654424072265625,-0.02600537887215614,0.002102415639348328,0.015455781676620244
1783696406942387500,6.664387451171875,-0.039324879172444344,-0.0026029855726286766,-0.005404452859424054
1783696406952350500,6.6743505859375,-0.03528934004604816,-0.0006387728275731205,-0.0008110606545582413
1783696406962313200,6.684313232421875,-0.050098202121257776,0.009216375830397009,-0.00017078998964279888
1783696406972276200,6.694276123046875,-0.04800502923429012,0.0064660907415673135,0.002307765485718846
1783696406982240300,6.704240234375,-0.020030396115779874,0.020009170664660632,0.008401406185701489
1783696406992203300,6.714203369140625,-0.03064998980760574,-0.004531725145503878,0.0111180447332561
1783696407002166300,6.724166259765625,-0.04007423623502254,-0.014879260430298745,0.005234904978796839
1783696407012129300,6.73412939453125,-0.022416998991370198,-0.01626234881915152,-0.0004085808008909225
1783696407022092300,6.74409228515625,-0.04216273294687271,-0.00832647778596729,-0.0038801293689757583
1783696407032055300,6.75405517578125,-0.045459436404705046,-0.011027005448937416,-0.0052771366853266955
1783696407042019300,6.764019287109375,-0.01852875938117504,-0.002178476550243795,0.012468801755085586
1783696407051982000,6.773982177734375,-0.04605681777596474,0.007631188998185098,0.0025189605509862304
1783696407061945000,6.783945068359375,-0.029893033960461616,-0.009146196671016514,-0.004563362392783165
1783696407071908400,6.793908447265625,-0.021660043144226072,0.011246201157569885,0.0061118704764172435
1783696407081871400,6.803871337890625,-0.03048457011282444,0.000016549276001751422,0.007352810448221862
1783696407091835100,6.813835205078125,-0.03482698323130608,0.007239595864713191,-0.011617774416320024
1783696407101798400,6.82379833984375,-0.029440029495954513,-0.001322188514471054,0.0039794615576043725
1783696407111761400,6.833761474609375,-0.04544657692313194,-0.01049465213790536,0.016189868104830384
1783696407121724400,6.843724365234375,-0.03736731536388397,-0.0020055311361327766,0.008329400395415723
1783696407131687200,6.853687255859375,-0.03482289157807827,-0.002613908825442195,0.0039979105297476055
1783696407141651500,6.8636513671875,-0.021352000108361243,-0.016527210300415752,0.018855141791328786
1783696407151614200,6.8736142578125,-0.03542436460256576,0.006978972167149186,0.0037445933558046813
1783696407161577200,6.8835771484375,-0.013576689931750296,0.0026019991919398306,0.007069719190523028
1783696407171540200,6.893540283203125,-0.04724456625580788,-0.011396679011546075,-0.00619987755343318
1783696407181503200,6.903503173828125,-0.024207974061369895,-0.0014698533568531275,-0.018023367142304778
1783696407191466200,6.91346630859375,-0.0280985517591238,0.0026143472168594596,0.0027185747763141988
1783696407201430300,6.92343017578125,-0.03169043877124786,0.003601787351630628,-0.0006607654636725783
1783696407211393300,6.933393310546875,-0.030505612900853154,0.00146919576972723,0.0046219607122242445
1783696407221356300,6.943356201171875,-0.030952187624573704,-0.0021135580878704784,-0.00039389468841254707
1783696407231319300,6.9533193359375,-0.038891748452186584,-0.010192198592610656,0.017610950416512786
1783696407241282300,6.9632822265625,-0.030814240458607672,-0.007659428711980581,0.009484050323255359
1783696407251246300,6.973246337890625,-0.029168811339139938,-0.002173435048945248,-0.0016957710672169924
1783696407261209300,6.983209228515625,-0.028276246413588522,-0.01796038490869105,0.008235255838558077
1783696407271172400,6.99317236328125,-0.020947510960698128,0.005930887886323034,0.00030281887147575614
1783696407281135400,7.00313525390625,-0.0421937126070261,-0.0032755145393311975,0.01826309418231249
1783696407291098400,7.013098388671875,-0.03995382472574711,0.0020690613590180875,0.003893792568147182
1783696407301062400,7.0230625,-0.01886193685829639,0.010562748938053845,-0.0020129837902262806
1783696407311025400,7.033025390625,-0.04354337365031242,0.010302271370962261,-0.014828808884695172
1783696407320988200,7.04298828125,-0.032920272827148434,-0.005500972036458551,-0.012034100132249296
1783696407330951200,7.052951171875,-0.03112929775714874,-0.0035751916056498884,-0.004401303698867559
1783696407340914200,7.0629140625,-0.04489069660604,-0.0033774040112271903,0.006027005204558372
1783696407350877200,7.072877197265625,-0.03591594751179218,-0.007052512327395379,0.005285429589636624
1783696407360841200,7.08284130859375,-0.027393033838272095,0.009215864373743533,0.007723178130574524
1783696407370804200,7.09280419921875,-0.03667114979326725,-0.00113320528101176,0.0026448519529774783
1783696407380767200,7.102767333984375,-0.03248480401933193,0.0064755161570385095,-0.012032529229670762
1783696407390730500,7.11273046875,-0.0065986676126718515,-0.009136515527218579,0.0015201953046023846
1783696407400693200,7.122693359375,-0.04624912547767162,-0.016014073146507143,0.006657960051856935
1783696407410657300,7.1326572265625,-0.03622925124466419,-0.0030518618512898684,-0.01201144990902394
1783696407420620300,7.142620361328125,-0.019473346754908562,-0.0015299860462546348,-0.007902882079035044
1783696407430583300,7.152583251953125,-0.036385903111100196,-0.009957732249610125,0.00941843774113804
1783696407440546300,7.16254638671875,-0.030558804392814633,0.011213248736038803,-0.008834829166904092
1783696407450509300,7.17250927734375,-0.02112988179028034,-0.0048361514521762725,0.013323372757807372
1783696407460472300,7.182472412109375,-0.05390227057933807,-0.012560863952711224,0.005658354555256664
1783696407470436400,7.192436279296875,-0.024880758756399154,-0.004520728827454149,-0.0063738824134692545
1783696407480399400,7.2023994140625,-0.025778584378957747,-0.0016808657590299844,0.001719626866839826
1783696407490362000,7.212362060546875,-0.051063832283020014,-0.006763247057236731,0.004605338370986283
1783696407500325000,7.2223251953125,-0.04134323325753212,0.0025417203720659014,0.0015942469215020536
1783696407510288100,7.2322880859375,-0.023231237983703613,0.003968136445991695,0.00794215464349836
1783696407520252200,7.242252197265625,-0.04627250635325909,-0.014471556412242351,0.006715462392754852
1783696407530215200,7.252215087890625,-0.024427169770002363,-0.0064550944235175845,0.0010115881953388453
1783696407540178200,7.26217822265625,-0.0337017785936594,0.005540098470449447,0.005087970788776874
1783696407550141400,7.272141357421875,-0.03160919022858143,-0.00946636853609234,-0.008147029565833509
1783696407560104400,7.2821044921875,-0.02457330024242401,0.0016879530869424342,0.0032251725915819407
1783696407570067200,7.292067138671875,-0.025765140375494957,0.0014013181652873753,0.0002176978712901473
1783696407580031500,7.302031494140625,-0.027860066828131674,0.0028086642125621434,-0.0043427053794264795
1783696407589994200,7.311994140625,-0.026367197921872136,0.014917875407636165,0.0017572554634883999
1783696407599957200,7.321957275390625,-0.03773673319816589,0.0015342968951910733,0.004860993632487953
1783696407609920500,7.33192041015625,-0.03878945712149143,-0.008972009147889912,-0.011903313359431922
1783696407619883500,7.341883544921875,-0.028915713360905645,0.011181867217086255,-0.010733283199369907
1783696407629846500,7.351846435546875,-0.03444295234978199,0.002813121191971004,0.00516611405890435
1783696407639810600,7.361810546875,-0.018881226080656052,-0.013593823729641736,-0.0025118001578375696
1783696407649773600,7.371773681640625,-0.013938508981466292,0.015872984175384044,0.005786839773133397
1783696407659736600,7.381736572265625,-0.024253566768765448,-0.0020316154254600405,0.001146064762584865
1783696407669699300,7.39169921875,-0.03382920436561108,0.006318864290602505,-0.0012442644400522112
1783696407679662600,7.40166259765625,-0.008541618373990058,0.0046651057342067355,-0.002105959303304553
1783696407689626400,7.41162646484375,-0.03038695495724678,-0.012835223914682864,0.011310644695907831
1783696407699589400,7.42158935546875,-0.02769464713335037,-0.014806012530997394,-0.010477591405250132
1783696407709552600,7.431552734375,-0.037567806372046465,-0.00930259280912578,0.003252133663743734
1783696407719515600,7.441515625,-0.04115443268716335,-0.021219715498201546,-0.003224953395873308
1783696407729478700,7.451478759765625,-0.022599369820952415,-0.002672178351320326,-0.008153240110911428
1783696407739441700,7.461441650390625,-0.013017302483320236,0.006045819502882659,0.00935282515902072
1783696407749405700,7.47140576171875,-0.028123101678490636,-0.005584193340502679,0.006287336641177535
1783696407759368400,7.481368408203125,-0.020345453414320945,0.0025763898266479373,-0.01313175917584449
1783696407769331500,7.49133154296875,-0.038000937092304225,0.0020038506356999278,-0.003342588426172733
1783696407779294500,7.50129443359375,-0.0403939697086811,-0.0007569558471441269,0.0041591289734467865
1783696407789257500,7.511257568359375,-0.023788871866464615,0.00929050051253289,0.009950206530280411
1783696407799221500,7.521221435546875,-0.03126958301067352,0.010629530563950537,0.006623546325601637
1783696407809184500,7.5311845703125,-0.02962181580364704,-0.006297273513302206,0.0033136545926332472
1783696407819147500,7.5411474609375,-0.022295418438315392,0.006941307037882506,0.0036756197728216645
1783696407829110500,7.551110595703125,-0.033817513927817344,0.0017275544449687004,0.009788476629927753
1783696407839073500,7.561073486328125,-0.04100654864907265,-0.007735380025021731,-0.002449621641822159
1783696407849036500,7.57103662109375,-0.010636544826626777,-0.0035071313381195065,0.004569719068333506
1783696407859000300,7.581000244140625,-0.03009586305618286,0.0031481983652338385,0.013181187808141112
1783696407868963600,7.590963623046875,-0.04177168780267238,0.0008726546486839651,-0.00017287234887480735
1783696407878926600,7.600926513671875,-0.03863163621127605,-0.00419540586322546,0.0025542145274579523
1783696407888889600,7.6108896484375,-0.03503682658970356,0.01180778056308627,0.007417838508449495
1783696407898852600,7.6208525390625,-0.036087796947360036,-0.001798354658856988,0.007187683014385402
1783696407908815600,7.630815673828125,-0.029207974305748938,0.005354074379056692,-0.008976904518716036
1783696407918779600,7.640779541015625,-0.018877134427428246,0.0008009776519611477,-0.007716456128843128
1783696407928742700,7.65074267578125,-0.02546294255852699,0.008407653263397515,-0.0055501449404284356
1783696407938705400,7.660705322265625,-0.016627309674024583,0.008395378303714096,0.013019567505642772
1783696407948668400,7.67066845703125,-0.014222002097964285,-0.008269815695285797,0.007253332129120826
1783696407958631400,7.68063134765625,-0.014523030871152877,-0.0019059432191774247,-0.007761866173148155
1783696407968595500,7.690595458984375,-0.019613047486543654,0.009265621799603104,0.004035027669742703
1783696407978558500,7.700558349609375,-0.030827684462070463,-0.007261807696521282,0.00045662119369953866
1783696407988521500,7.710521484375,-0.03098199824094772,-0.005770765421167016,-0.0031528380077332258
1783696407998484700,7.720484619140625,-0.026488778474926946,0.01323470809366554,0.006798902892507612
1783696408008447700,7.73044775390625,-0.03022621143758297,-0.0031075010286644097,0.0010460384542122483
1783696408018410500,7.740410400390625,-0.02289922955036163,0.0022685659864917396,-0.008074037394858897
1783696408028374500,7.75037451171875,-0.028285598763823507,0.009877250891923903,0.014385010639950633
1783696408038337500,7.760337646484375,-0.03650923722982406,-0.0058364510685205455,-0.00358911053314805
1783696408048300500,7.770300537109375,-0.02783376334309578,-0.0046851986741647126,-0.013916735541075467
1783696408058263600,7.780263671875,-0.036057986330986024,-0.0027719123987480997,0.01095244237538427
1783696408068226600,7.7902265625,-0.035007015973329544,0.0010695654602721333,0.003857625276222825
1783696408078189600,7.800189453125,-0.02574409758746624,0.0048804655179381365,-0.01004566626138985
1783696408088153600,7.810153564453125,-0.039511926177144045,0.004582505484670401,0.007641783457435667
1783696408098116600,7.82011669921875,-0.0354752180069685,-0.007293919867835939,0.004465929900296033
1783696408108079400,7.830079345703125,-0.033837387672066684,0.007526815308257937,0.011422872898727655
1783696408118042400,7.84004248046875,-0.036683424752950666,0.0003894742416217923,0.016977036427147686
1783696408128005600,7.850005615234375,-0.022469021439552306,-0.004954699797928333,0.01322188514471054
1783696408137969400,7.859969482421875,-0.028904022923111915,0.003852766438014805,0.00577423601988703
1783696408147932400,7.869932373046875,-0.029797172370553016,-0.01374028299562633,0.011442527447268366
1783696408157895700,7.879895751953125,-0.026352000352740285,-0.009918313554674386,-0.00667352294716984
1783696408167858700,7.889858642578125,-0.005999532675743103,0.008295205864869058,-0.014006459651142358
1783696408177821700,7.89982177734375,-0.045648236975073815,-0.014777370958402753,0.004002659770101309
1783696408187784400,7.909784423828125,-0.028587212058901783,0.0040329818431288,0.0020405293842777608
1783696408197748500,7.91974853515625,-0.02109948665201664,0.0055469666026532645,0.0008509542735293507
1783696408207711500,7.92971142578125,-0.04428571645021438,-0.002737644802965224,0.002511654027365148
1783696408217674500,7.939674560546875,-0.03396832057535648,-0.002359313009865582,0.0038199601469561455
1783696408227637500,7.949637451171875,-0.03172960173785686,0.009499211359769106,0.004076053799875081
1783696408237600500,7.9596005859375,-0.049234278768301006,0.001321567459963262,0.01291336718481034
1783696408247563500,7.9695634765625,-0.02993862666785717,-0.011023680980689824,-0.0011885156648233533
1783696408257527600,7.979527587890625,-0.02889993126988411,0.00026672464478760957,-0.0023819267004728316
1783696408267490600,7.989490478515625,-0.04296235889196395,0.0010362477125599979,0.010217515696957707
1783696408277453300,7.999453369140625,-0.03608896599113941,-0.002000928026251495,-0.0007247340779751539
1783696408287416600,8.00941650390625,-0.02456803954541683,0.008376600538007914,-0.004903042675927281
1783696408297379600,8.019379638671875,-0.042371991783380504,-0.011255991899222134,0.006872589183226228
1783696408307342600,8.029342529296875,-0.032203064468503,0.00510576217379421,-0.010519567383453249
1783696408317306600,8.039306640625,-0.02352232988476753,0.007877784170396626,0.004034918071888387
1783696408327269600,8.04926953125,-0.04656242921054363,-0.007682590391859412,0.009301058439165353
1783696408337232600,8.059232666015625,-0.03399696214795112,-0.009932488210499286,-0.012116444653458893
1783696408347195600,8.069195556640626,-0.03429389926791191,0.003002469751611352,0.0099204324465245
1783696408357158400,8.079158447265625,-0.02277297282218933,-0.007531601081229746,0.01147982725035399
1783696408367122400,8.089122314453125,-0.010507365489006042,0.005132102191448211,0.0025538857338950035
1783696408377085400,8.09908544921875,-0.036841245663166045,-0.004872391809336841,0.006498568239063024
1783696408387048400,8.10904833984375,-0.04746083935499191,0.004732873740792274,0.005591645994596183
1783696408397011500,8.119011474609374,-0.03385316976308823,-0.0022054376224055886,-0.00010539660323411226
1783696408406974500,8.128974365234376,-0.03504267180860042,-0.00522025539893657,0.009285933935269712
1783696408416937500,8.1389375,-0.03863280525505543,-0.003668715107999742,0.015016769204847513
1783696408426901500,8.148901611328125,-0.010793196693062782,0.012036584350280464,-0.01131415182724595
1783696408436864500,8.158864501953126,-0.023353987580537795,-0.0028435163302347063,-0.014008249749429522
1783696408446827500,8.16882763671875,-0.030531331863999363,-0.008116707492806017,-0.01231193069294095
1783696408456790500,8.17879052734375,-0.023806407523155212,0.00321673355679959,0.0016978534264490007
1783696408466753500,8.18875341796875,-0.03202887694537639,0.00048504357058554886,0.01471402339860797
1783696408476716500,8.198716552734375,-0.030084757140278813,0.002894333202019334,0.006787541248276829
1783696408486680600,8.2086806640625,-0.022900398594141006,0.00848809808846563,0.0020671251302585006
1783696408496643600,8.2186435546875,-0.04414250858724117,-0.005497830231301486,0.008419782092608512
1783696408506606600,8.228606689453125,-0.01720949347615242,-0.002294248417019844,0.0036048560915514826
1783696408516569600,8.238569580078124,-0.011675240224599837,0.009063121497444808,0.0041375016635283824
1783696408526532400,8.248532470703125,-0.036658290311694146,-0.0012944602573290466,0.012680471744388341
1783696408536495400,8.258495361328125,-0.035163667839765544,-0.012638386168330906,-0.003618665421195328
1783696408546459400,8.26845947265625,-0.023795301607251167,0.004106302807666361,0.007423464531637728
1783696408556422400,8.27842236328125,-0.03008183453083038,0.006420169240608811,0.014574468797445296
1783696408566385400,8.288385498046875,-0.024997078612446783,-0.006602686200663447,-0.002845379493758082
1783696408576348400,8.298348388671876,-0.025595629027485845,-0.00004190291296690702,0.004819675241410732
1783696408586311700,8.308311767578125,-0.035171266624331475,-0.0030135391348972917,0.0002650076117366552
1783696408596274700,8.318274658203125,-0.02469488079547882,-0.011506313398480414,0.001712064614892006
1783696408606239000,8.328239013671874,-0.0133195003002882,0.005563662009127438,0.008974931757338345
1783696408616202200,8.3382021484375,-0.034412557211518285,-0.018680187083221972,-0.0045000148329883815
1783696408626165200,8.348165283203125,-0.03770224640667438,-0.006924830827116966,-0.005525156629644334
1783696408636128300,8.358128173828124,-0.034250644648075104,-0.0015074454208835958,0.0021335414299741384
1783696408646091300,8.36809130859375,-0.03604337328374386,-0.0029393413875252006,-0.00026924539543688293
1783696408656054300,8.37805419921875,-0.022129998743534086,-0.0019069661324843763,-0.006000007599778473
1783696408666018300,8.388018310546874,-0.030953941190242765,0.006266659179329872,0.011597462280653417
1783696408675981000,8.39798095703125,-0.028408932882547377,-0.003776595929265022,0.004241802288219332
1783696408685944000,8.407944091796875,-0.01838964317142963,-0.00509071073513478,0.004081716355681419
1783696408695907000,8.417906982421876,-0.02990764700770378,0.004894092184491455,0.010600560197792947
1783696408705870000,8.4278701171875,-0.04128478106856346,-0.007221914077550172,0.001265818684734404
1783696408715833000,8.4378330078125,-0.02692833893597126,0.005847739647515118,-0.0135253981359303
1783696408725797000,8.447797119140626,-0.024678514182567595,-0.0008203034069389104,0.01337101129181683
1783696408735760100,8.457760009765625,-0.05445347472131252,-0.003677263740636408,-0.00330057591535151
1783696408745723100,8.46772314453125,-0.022581834164261818,0.001548106224834919,0.011409392362646757
1783696408755686100,8.47768603515625,-0.025569910064339636,0.0006620441053062677,0.008136069780401885
1783696408765649200,8.487649169921875,-0.026472411862015724,-0.008496500590629875,0.004809701836667955
1783696408775612200,8.497612060546874,-0.02677577872276306,0.001553001595661044,0.009240706554055213
1783696408785576200,8.507576171875,-0.03275777574181556,0.0011027736101299525,0.017518267164379358
1783696408795539200,8.517539306640625,-0.020641221490502355,-0.006201521521247923,0.004584076387248933
1783696408805502200,8.527502197265624,-0.027829087167978286,0.005304061224870383,0.0010001534858718514
1783696408815465200,8.53746533203125,-0.043534021300077434,0.011225633293576539,-0.013918050715327262
1783696408825428200,8.54742822265625,-0.027376082703471184,-0.006719407915510237,-0.014756218572519719
1783696408835391000,8.557390869140624,-0.011217559584975242,0.018540157558023927,0.0010549889456480741
1783696408845355300,8.567355224609376,-0.030369419300556182,0.002669401872344315,0.0022142054507508875
1783696408855318000,8.577318115234375,-0.034118542701005936,-0.0003542567977681756,-0.00668020841628313
1783696408865281000,8.587281005859374,-0.03127309014201164,0.0050974692694842815,0.016102116756141184
1783696408875244000,8.597244140625,-0.02722586057782173,-0.00019720307253301143,0.006103139180690049
1783696408885207300,8.607207275390625,-0.03082476185262203,-0.004874181907624006,-0.006541567130573094
1783696408895170300,8.61717041015625,-0.02215221057534218,0.009553462297655642,0.0010400105722248555
1783696408905134000,8.627134033203125,-0.022309446963667868,-0.006177081199735403,0.009755524208396673
1783696408915097300,8.637097412109375,-0.026505729609727857,-0.01320763742364943,0.001253653322905302
1783696408925060400,8.647060302734374,-0.04312017980217933,0.0010214885348454117,-0.0029753625489771364
1783696408935023000,8.657023193359375,-0.03264320945143699,-0.013346863231249152,0.0006998188324272632
1783696408944986000,8.666986083984375,-0.031150340545177457,-0.01736084811296314,-0.012555384059995412
1783696408954949000,8.67694921875,-0.032494740891456604,-0.006226729027740657,0.0018288959275931118
1783696408964913200,8.6869130859375,-0.03294014657139778,0.0019133593406528233,0.011835874146409332
1783696408974876200,8.696876220703125,-0.014387421792745589,-0.000648928895406425,-0.004396335262805223
1783696408984839200,8.706839111328126,-0.021268413478136062,0.01598090152926743,0.011688209304027258
1783696408994802200,8.71680224609375,-0.02276946569085121,-0.005731675519794225,-0.000478577297180891
1783696409004765200,8.72676513671875,-0.013051789274811744,0.010623356551490723,0.0004509951705113053
1783696409014728200,8.736728271484376,-0.03594049743115902,-0.0032150530563667414,0.016247991500236092
1783696409024692000,8.74669189453125,-0.03998772699534893,0.00018456278666853903,-0.000011325111612677573
1783696409034655000,8.756655029296875,-0.026381226447224616,0.003067388213984668,0.001417977039143443
1783696409044618200,8.7666181640625,-0.032358547291159626,0.005592522777430713,0.010057648960128425
1783696409054581200,8.776581298828125,-0.03191489517688751,-0.004757277529686689,0.0058580783784389495
1783696409064544300,8.786544189453124,-0.02908054853379726,0.002309080659970641,-0.0017284677604213355
1783696409074507300,8.79650732421875,-0.038056466671824454,0.015653313542716204,0.016275135235488413
1783696409084471300,8.80647119140625,-0.02115267814397812,0.004033091440983116,0.0102194884583354
1783696409094434300,8.816434326171875,-0.01756196017563343,0.011019297066517173,-0.004963796419836581
1783696409104397000,8.82639697265625,-0.03267126650214195,0.002310688095167279,0.005734415466152131
1783696409114360000,8.836360107421875,-0.02519464701116085,0.0030011180447414515,0.001118117309734225
1783696409124323000,8.846322998046874,-0.016064999616146085,0.0059714025598019355,-0.0006893705036491155
1783696409134286000,8.8562861328125,-0.03626198447048664,-0.005699124957062303,0.013709997455216944
1783696409144250000,8.86625,-0.02205050376653671,-0.010900785253383219,-0.0008943184912204742
1783696409154213000,8.876213134765624,-0.016513912427425382,0.005825308619998395,0.0008039002614095807
1783696409164176100,8.886176025390625,-0.026981530427932738,0.0013056392384693026,0.0193439847541973
1783696409174139100,8.89613916015625,-0.022044658547639845,-0.00064005146920681,-0.005762983973510563
1783696409184102100,8.90610205078125,-0.027132337075471878,0.015602935062348841,-0.0011788710536435245
1783696409194065200,8.916065185546875,-0.029074703314900398,-0.007711085833981632,0.009332403425499796
1783696409204029200,8.926029296875,-0.02354161910712719,0.004464760856516659,0.007864267101697624
1783696409213992200,8.9359921875,-0.02399170096218586,0.001323430623486638,0.012970065808109938
1783696409223955200,8.945955078125,-0.030125673672556877,0.007524915612116456,-0.00808715260475874
1783696409233918200,8.955918212890625,-0.02683598447740078,0.006465944611094891,-0.013550386446714401
1783696409243881200,8.965881103515626,-0.04223930531442165,0.010717610706202686,0.009954334716126322
1783696409253844200,8.97584423828125,-0.03086217125356197,0.00044997225720435377,0.01712108454033732
1783696409263808300,8.985808349609375,-0.02083937441110611,0.004601867772266268,-0.006692264180257916
1783696409273771000,8.99577099609375,-0.03968728274405002,0.006516469221934676,0.01471066239774227
1783696409283734000,9.005734130859375,-0.026665304085612296,-0.013226086395792662,-0.004551708487607538
1783696409293697000,9.015697021484375,-0.009315525355935095,-0.0011207476582378148,-0.0014607202023267745
1783696409303660000,9.025659912109376,-0.03924129254221916,-0.011646379456296563,-0.000247946879081428
1783696409313623300,9.035623291015625,-0.043728667089343067,-0.0014606106044724582,-0.004044891476631164
1783696409323587000,9.045587158203125,-0.01799684446156025,-0.012843845612555742,-0.01406089325211942
1783696409333550300,9.05555029296875,-0.015744681620597837,-0.0035019437063485382,0.0032036183468997477
1783696409343513300,9.065513427734375,-0.020073650735616684,-0.02579502405710518,-0.006036467152647673
1783696409353476000,9.07547607421875,-0.01768003359735012,-0.004889817868173122,0.0016786007367074489
1783696409363439000,9.085439208984376,-0.03682429452836513,0.009864391410350799,0.010914010061137378
1783696409373402000,9.095402099609375,-0.029493220987915993,-0.009598105156980454,-0.0052049116993322965
1783696409383366100,9.1053662109375,-0.027101941937208173,0.0007573577059432864,-0.0005173018723726272
1783696409393329200,9.1153291015625,-0.036517420536279675,0.009358451182208955,0.008244060199521482
1783696409403292200,9.125292236328125,-0.02784194664955139,-0.011144603946618736,0.0031013270162045955
1783696409413255200,9.135255126953124,-0.03592296177446842,0.000007233458384871483,0.009334851110912859
1783696409423218200,9.14521826171875,-0.047290743485093115,0.0024016908468678594,0.012352554964274167
1783696409433181000,9.155180908203125,-0.02739011122882366,-0.007780278612673282,-0.009745222010090947
1783696409443145000,9.16514501953125,-0.030533669951558113,0.006511427720636129,0.002185235084593296
1783696409453108000,9.17510791015625,-0.02948153055012226,-0.0022930428406223655,0.0012826967542991041
1783696409463071200,9.1850712890625,-0.03352349941730499,0.00024330723658204078,-0.012566161182336508
1783696409473034200,9.1950341796875,-0.017208908954262733,0.01707446891963482,0.0005809416931122541
1783696409482997200,9.204997314453125,-0.04099485821127891,-0.005885039450600743,0.007068805875070393
1783696409492960300,9.214960205078125,-0.02933072390258312,-0.0026906638560816646,0.008106149566173552
1783696409502923300,9.22492333984375,-0.02663724703490734,-0.006877922945469617,0.013491970790363848
1783696409512887300,9.23488720703125,-0.04339958126544952,-0.016848478144034743,0.014560403739474714
1783696409522850000,9.24485009765625,-0.029032033216953277,-0.015434008236229419,-0.0006741729345172644
1783696409532813000,9.25481298828125,-0.027080899149179456,0.012960202001221477,0.010885441553778945
1783696409542776000,9.264776123046875,-0.03859247324466705,-0.0074918901253491635,-0.00783467568103224
1783696409552739000,9.274739013671875,-0.009863806888461113,-0.0032179026005789636,0.004264160250499844
1783696409562702000,9.2847021484375,-0.027365561309456825,0.010807882805541158,0.008804251365549862
1783696409572666000,9.294666015625,-0.04352466894984245,-0.00022909604813903568,0.004069076069816947
1783696409582629000,9.304629150390625,-0.03410392965376377,-0.003510601936839521,0.00647599108107388
1783696409596951300,9.318951416015626,-0.025416765329241753,-0.0051147126652300355,0.011177154509350657
1783696409606914000,9.3289140625,-0.042028292912244795,-0.012340024276264011,-0.0055148178987205025
1783696409616876500,9.33887646484375,-0.027064532536268233,-0.002323437978886068,-0.0007279124157503247
1783696409626839300,9.34883935546875,-0.028559155008196828,-0.0012516805615276098,0.0012915741804987192
1783696409636803300,9.35880322265625,-0.028861352825164794,-0.0028392054812982678,0.0038548487972468134
1783696409646766300,9.368766357421874,-0.025420856982469556,-0.0035787718022242186,0.01015698114875704
1783696409656729300,9.378729248046875,-0.04652151267826557,-0.013515059405006467,0.010992482124827802
1783696409666692600,9.388692626953125,-0.03291559665203094,0.004547105377726257,-0.005150003174319863
1783696409676655600,9.398655517578124,-0.022590601992607116,0.002729863355308771,0.007743636396713554
1783696409686618600,9.40861865234375,-0.03830371943116188,0.0033957068528980014,0.0027536460896953937
1783696409696582700,9.418582763671875,-0.01511807415485382,-0.0037032018994912503,0.0015349544823169707
1783696409706545700,9.428545654296874,-0.027384266009926793,-0.00046385465208441016,0.0019237346041947603
1783696409716508400,9.43850830078125,-0.04339315152466297,-0.006421703610569238,0.012004472178965806
1783696409726471400,9.448471435546875,-0.018407763350009917,0.0008148600468412041,-0.008005757931619882
1783696409736434400,9.458434326171876,-0.028583704927563666,0.011042970203049481,0.004219736586883664
1783696409746397400,9.4683974609375,-0.040702597266435624,0.006880918620154261,0.006677870328724384
1783696409756360400,9.4783603515625,-0.019460487273335457,0.018585019613057373,-0.006650726593472063
1783696409766324500,9.488324462890626,-0.040110476592183114,-0.010554967490397393,0.00692161595672369
1783696409776287500,9.49828759765625,-0.04190554331541061,-0.010214008565619588,0.006703260498307645
1783696409786250500,9.50825048828125,-0.011830138525366782,0.01116312598399818,-0.005342420473881065
1783696409796213500,9.518213623046876,-0.03666179744303226,-0.00849653712324798,0.00932418358642608
1783696409806176500,9.528176513671875,-0.050882045975327486,-0.008784158425591885,0.00554740499407053
1783696409816139500,9.538139404296874,-0.016923077750205993,0.012377762470766902,0.003458542956039309
1783696409826103600,9.548103515625,-0.024399697241187093,-0.010812997372075915,0.007205218671076
1783696409836066600,9.558066650390625,-0.04340718005001545,-0.005724697789736092,-0.0028881957221776246
1783696409846029600,9.568029541015624,-0.030690321817994116,0.007893456663563846,0.006750972097553313
1783696409855992600,9.57799267578125,-0.047888124856352805,0.0001790463613346219,-0.0009136077135801315
1783696409865955600,9.58795556640625,-0.02724281171262264,-0.003699000648409128,-0.010817600481957197
1783696409875918300,9.59791845703125,-0.022912673553824422,0.007805266923457383,0.009771269766800105
1783696409885882400,9.60788232421875,-0.03383037340939045,-0.009678732645139097,0.017215119499340653
1783696409895845400,9.617845458984375,-0.033683073893189426,-0.015470321658626197,-0.011356639262102544
1783696409905808400,9.627808349609374,-0.025153730478882787,0.007595131304115057,0.0008897153813391923
1783696409916393500,9.6383935546875,-0.041754152145981785,0.007516403512097895,0.002220671724155545
1783696409926357500,9.648357421875,-0.022604630517959592,-0.008799867451377213,-0.010083550586365163
1783696409936320500,9.658320556640625,-0.03307926278114319,-0.00566277500204742,0.005343918311223388
1783696409946283500,9.668283447265624,-0.05133388139605522,-0.005746325099654496,0.00627002018019557
1783696409956246300,9.678246337890625,-0.013927403065562248,-0.006452171814069151,0.0034558760749176143
1783696409966209500,9.68820947265625,-0.022604630517959592,0.004494644538126886,-0.004844553954340517
1783696409976172500,9.698172607421874,-0.04205634996294975,-0.004412701875716448,0.0031203239776194094
1783696409986136300,9.70813623046875,-0.018569091391563413,0.006845701176300644,-0.004849741586111486
1783696409996099600,9.718099609375,-0.022155717706680296,0.007989720112271606,0.017377908845618364
1783696410006062600,9.7280625,-0.04190788140296936,-0.00960300052780658,0.005030468447878957
1783696410016025600,9.738025634765625,-0.028747955578565597,0.009179441353492438,-0.011594795399531722
1783696410025988600,9.747988525390625,-0.02649871534705162,-0.0015093451170250772,0.005711472981981933
1783696410035951400,9.757951416015626,-0.03232698310911655,-0.00444485057964921,0.0035146935900673268
1783696410045915600,9.76791552734375,-0.02918693151772022,0.015154168381541967,0.0071835182959213845
1783696410055878400,9.77787841796875,-0.03906009075641632,-0.006361607453785836,0.008707476460188627
1783696410065841400,9.78784130859375,-0.037412323549389837,0.0024988676110282537,0.010270305330120027
1783696410075804400,9.797804443359375,-0.008231237250566481,-0.000769486535154283,0.018463439060002564
1783696410085767400,9.807767333984375,-0.034704818156361575,-0.008510784844309092,0.0028504575276747345
1783696410095730400,9.81773046875,-0.03604746493697166,-0.008416786417923866,-0.006019150691665708
1783696410105693700,9.827693603515625,-0.010612579429149628,-0.0011362374883145093,-0.003031074791587889
1783696410115657500,9.837657470703125,-0.025122166296839714,-0.00894526727143675,0.0036011297645047306
1783696410125620500,9.847620361328126,-0.01943944448530674,-0.003780943310819566,-0.0044756841093301775
1783696410135583500,9.85758349609375,-0.024831074395775792,0.005950944293662905,0.004015555784292519
1783696410145546500,9.86754638671875,-0.034246552994847294,-0.002807275973074138,0.011139964304119348
1783696410155509500,9.877509521484376,-0.032598201265931125,0.0010015782579779625,0.00024323417134582996
1783696410165473500,9.8874736328125,-0.012694646400213241,0.007507562618516385,0.0017997428983449935
1783696410175436500,9.8974365234375,-0.025409166544675826,-0.002775675258412957,-0.0016740706920623778
1783696410185399600,9.907399658203126,-0.025860417443513868,-0.005865056108497082,-0.001985036337375641
1783696410195362600,9.917362548828125,-0.01568272230029106,0.009898037951625882,0.007355331198871135
1783696410205325600,9.92732568359375,-0.0348258141875267,-0.011233999263122678,0.0002288768524304032
1783696410215288300,9.937288330078125,-0.03243628870248794,-0.0009328604033216833,-0.0032408085521310566
1783696410225251300,9.947251220703125,-0.023456863433122633,0.0029328385815024375,-0.00099825378973037
1783696410235215400,9.95721533203125,-0.046349078720808026,0.0026743337757885455,-0.004254369508847594
1783696410245178400,9.967178466796875,-0.01896831984221935,-0.0014277312481775879,-0.0032369726272299883
1783696410255141400,9.977141357421875,-0.029738720181584355,-0.005201477633230388,-0.000606587591022253
1783696410265104600,9.987104736328124,-0.04335749568939209,0.00015730945356190205,-0.0030601182229816914
1783696410275067600,9.997067626953125,-0.17617022137641905,0.07769037526082247,-0.08898607811592518
1783696410285030700,10.00703076171875,0.1523521234154701,0.18149276810605078,-0.10996763747669756
1783696410294994700,10.01699462890625,0.17893150278329847,-0.15219653099495917,0.16073676112946123
1783696410304957400,10.02695751953125,-0.07329612235724925,-0.14555701991524547,0.06208711140491068
1783696410314920400,10.03692041015625,-0.31515257560908794,0.004233472851291299,0.017891557456180453
1783696410324883500,10.046883544921876,-0.19239537999033926,-0.009251374078541994,-0.08751326561700552
1783696410334846500,10.056846435546875,0.18627777389287947,-0.025374241361767053,0.05272584721110761
1783696410344809500,10.0668095703125,0.13837795859873295,-0.07109039247389883,0.08711721550412475
1783696410354773500,10.0767734375,-0.07668284218609332,0.04074555962532758,0.03026066169645637
1783696410364736500,10.086736572265625,-0.17536475021243095,0.1158087281877175,-0.1491675020299852
