time,seconds_elapsed,z,y,x
1783696368808791000,0.061791015625,-0.2320826627343893,-0.045103389508649706,-0.06287110138945282
1783696368818754000,0.071754150390625,-0.10956336752474308,0.026445743050798772,-0.03095039752628654
1783696368828717800,0.0817177734375,0.07901566904783248,-0.0028484117010608313,0.027160065332613885
1783696368838681000,0.09168115234375,0.12711948248147964,0.0010312062112614513,0.018034546123445034
1783696368848644000,0.10164404296875,-0.06938859352469444,-0.019690350506454703,-0.020386844870634375
1783696368858607000,0.111607177734375,-0.1869599109381437,-0.011778700599074363,-0.035470432233996686
1783696368868571100,0.121571044921875,-0.0808452225625515,-0.010039674912020563,-0.001935863433405757
1783696368878534000,0.131533935546875,0.07507657603323459,-0.008439253978058696,0.011213942855782807
1783696368888497000,0.141496826171875,0.05561550423800945,-0.008809512062557041,-0.00830689630266279
1783696368898460000,0.1514599609375,-0.08656243116557598,0.010806019642017781,-0.008141549673117697
1783696368908424000,0.161423828125,-0.12308043622374534,-0.0035032954132184382,0.0006569660713896155
1783696368918387000,0.171386962890625,-0.018009703943133355,-0.02787467987537384,-0.0000966653075069189
1783696368928350000,0.181349853515625,0.04635784654915333,0.006745674867928027,-0.009373393023014069
1783696368938313000,0.19131298828125,-0.01590484061837196,0.010584558911062776,0.0074306614574044935
1783696368948277000,0.201277099609375,-0.07907529028058051,-0.014644355695880948,-0.012559183452278374
1783696368958240000,0.211239990234375,-0.061251464298367496,-0.010623320018872617,-0.01711301083173603
1783696368968202800,0.22120263671875,-0.05119476518630981,-0.0019978958189487456,0.0035562311768531796
1783696368978165800,0.231165771484375,-0.009762684601545333,0.00234404237549752,0.007238682549260556
1783696368988129800,0.2411298828125,-0.013233575582504271,0.02188497447390109,-0.0006532397443428635
1783696368998092800,0.2510927734375,-0.0540752890586853,-0.008703092546015978,-0.005778875662386417
1783696369008055800,0.261055908203125,-0.07845920420885086,-0.022089958994090556,-0.003203910607844591
1783696369018019000,0.27101904296875,-0.032678865286707874,0.008041011908091604,0.0032670755045488475
1783696369027982000,0.280982177734375,0.014753917017579077,-0.014931027150154113,0.007430844120495021
1783696369037946000,0.290946044921875,-0.01682955424785614,-0.014177176575548947,-0.0008680880714207887
1783696369047909000,0.3009091796875,-0.047365562286972994,-0.006041070262528956,-0.0026032413009554147
1783696369057872100,0.3108720703125,-0.047959436526894564,-0.0012536898555234074,-0.002579495099186897
1783696369067835000,0.3208349609375,-0.02176642612814903,-0.014686404739320277,-0.0048675695037469265
1783696369077799000,0.330798828125,-0.006653028148412704,-0.006607106647454202,0.0036608605951070784
1783696369087762000,0.340761962890625,-0.04586392555236816,-0.003289323868975043,-0.0067232073077932
1783696369097725000,0.350724853515625,-0.04916355161964893,-0.0003869534909725189,-0.006130392513796687
1783696369107688000,0.36068798828125,-0.032390111473202705,-0.0026154066627845167,0.0036626141607761383
1783696369117652000,0.37065185546875,-0.050343701314926145,0.0003616729192435741,0.005686484671197831
1783696369127615000,0.380614990234375,-0.013691840744018554,-0.0027481296643614766,-0.013532375865988433
1783696369137578000,0.390577880859375,-0.016087211447954178,-0.007825067602470516,0.001006071770004928
1783696369147541000,0.400541015625,-0.04241699996888637,-0.01224887539409101,-0.01133358718007803
1783696369157505000,0.410505126953125,-0.03882862008810043,0.0017627353562042116,-0.003393514895811677
1783696369167467800,0.4204677734375,-0.01832359219789505,0.0008085033712908626,0.0052182826375588775
1783696369177430800,0.4304306640625,-0.024153029003739356,-0.017721607716754077,-0.006667458532564342
1783696369187393800,0.440393798828125,-0.028200843089818954,0.0030825127178803085,0.009557079026848077
1783696369197357800,0.45035791015625,-0.034788989308476445,0.0038579540697857733,0.0026020722571760413
1783696369207320800,0.46032080078125,-0.04212181641459465,-0.006604768559895455,-0.002634513222053647
1783696369217283800,0.470283935546875,-0.03388707203269005,0.0012664762718603015,-0.01181884994637221
1783696369227247000,0.4802470703125,-0.038677813440561294,-0.008039441005513072,-0.00967361807860434
1783696369237211000,0.4902109375,-0.04017652756571769,-0.007985920719988644,-0.014765351727046072
1783696369247174100,0.500174072265625,-0.01877367405295372,-0.0010095058361068367,-0.014664740896783768
1783696369257137200,0.51013720703125,-0.03597206161320209,0.0033613296592608093,0.0015054361268877982
1783696369267100000,0.520099853515625,-0.033575521865487096,-0.001149425763450563,-0.003475384492985904
1783696369277064000,0.53006396484375,-0.011435586249828338,0.0006920373847708105,-0.007978541131131351
1783696369287027000,0.54002685546875,-0.042404725009202955,-0.004264744772389531,-0.008280264024063944
1783696369296990000,0.549989990234375,-0.04106441631615162,-0.004503850757889449,-0.006977145536243915
1783696369306953000,0.559952880859375,-0.026552491360902784,-0.011003697638586163,-0.005601655931957066
1783696369316917000,0.5699169921875,-0.03582476209700108,-0.006515007917210459,-0.00022237404640763997
1783696369326880000,0.5798798828125,-0.017721534651517868,-0.002288585861213505,-0.02083093537632376
1783696369336843000,0.589843017578125,-0.02280336796045303,-0.002011412887647748,-0.002563420747220516
1783696369346806000,0.599805908203125,-0.039701895791292185,-0.0037833909962326287,0.004769260228425264
1783696369356770000,0.60977001953125,-0.022643208962678907,-0.013265797351673245,-0.009374050610139965
1783696369366732800,0.61973291015625,-0.020994272711873055,0.0001378375681117177,-0.0008429170975461602
1783696369376695800,0.62969580078125,-0.04044599215686321,0.004770721533149481,-0.0063954731907695525
1783696369386658800,0.639658935546875,-0.028183307433128354,0.008597513279691339,-0.018258089213632048
1783696369396621800,0.649621826171875,-0.02010170778632164,0.004684614152275025,-0.006886398512870073
1783696369406585900,0.6595859375,-0.03596972352564334,-0.005029116741009056,-0.01366615831349045
1783696369416548900,0.669548828125,-0.021611527827382085,-0.005867942185327411,-0.01788026887718588
1783696369426512100,0.67951220703125,-0.022213585373759268,0.011082717691548168,0.0016213906567543743
1783696369436475100,0.68947509765625,-0.03927402576804161,-0.004555507879890501,-0.010996208451874554
1783696369446439000,0.69943896484375,-0.01848433571755886,-0.007117978779040276,-0.009083543230965732
1783696369456402200,0.709402099609375,-0.024464579170942306,-0.003254946675337851,-0.014140936218388378
1783696369466365000,0.719364990234375,-0.03987725235819816,-0.012945406290888785,0.0010757394727319478
1783696369476328000,0.729327880859375,-0.01953472155332565,0.005803644777461886,-0.004140606936067342
1783696369486292000,0.7392919921875,-0.037190205231308934,0.009564202887378633,0.0073122227095067495
1783696369496255000,0.7492548828125,-0.0316582900673151,-0.0038262437572702764,-0.016296433751843867
1783696369506218000,0.759218017578125,-0.02552665544450283,0.005589015646092594,-0.006295629545487463
1783696369516181000,0.769180908203125,-0.03435118241310119,0.004267192457802593,0.01463693957440555
1783696369526145000,0.77914501953125,-0.02358078207373619,-0.0035920696752145885,-0.00047108811046928166
1783696369536108000,0.78910791015625,-0.012807459124922751,0.012408815196156501,-0.013000241750665009
1783696369546071000,0.799071044921875,-0.03899053265154361,0.005367445317283273,0.0005243526676669717
1783696369556033800,0.80903369140625,-0.02523088736832142,-0.006858451060019433,-0.00846588625665754
1783696369565997800,0.818997802734375,-0.018796470406651496,0.0069674278598278756,0.002588299460150301
1783696369575961900,0.8289619140625,-0.0370434902369976,0.007202040333300829,0.0024096184249967336
1783696369585924900,0.8389248046875,-0.025676293048262595,-0.008439728902094065,-0.020878500845097004
1783696369595887900,0.848887939453125,-0.023133622828125953,0.012320187064632773,0.008254143202118576
1783696369605851000,0.858850830078125,-0.03973988971412182,-0.016229250267148016,-0.005964461362361908
1783696369615815000,0.86881494140625,-0.032709260424971576,-0.006191803844831883,-0.006053966276720166
1783696369625777700,0.878777587890625,-0.021185995891690252,-0.0074063672663643955,0.0017154986809939145
1783696369635740700,0.88874072265625,-0.03225391787290573,-0.00955514279808849,-0.0049530558301135895
1783696369645703700,0.89870361328125,-0.022826748836040495,-0.015618096098862588,-0.0029086905209347604
1783696369655667700,0.908667724609375,-0.025073650979995726,0.004267557783983648,0.00018397826477885244
1783696369665630700,0.918630615234375,-0.035547698721289635,-0.002470737495087087,0.005700220935605466
1783696369675593700,0.92859375,-0.034655133795738216,-0.0025892127756029365,-0.001359744045883417
1783696369685557000,0.938556884765625,-0.007274374917149543,0.006671038729138672,0.010266104079037905
1783696369695520800,0.948520751953125,-0.042293081328272815,0.003820690799318254,-0.0038820655977353452
1783696369705484000,0.958484130859375,-0.017008417946100234,0.009086210112087429,-0.005150733826681971
1783696369715446800,0.96844677734375,-0.025685060876607893,0.0000595847001299262,0.007106178743392228
1783696369725409800,0.978409912109375,-0.030028643038868902,-0.0126923448452726,0.0030363354885950683
1783696369735373800,0.988373779296875,-0.022405308553576468,-0.0054206733418628575,-0.014352131283655763
1783696369745336800,0.9983369140625,-0.03721475515067577,-0.006414579750038683,-0.000600815437361598
1783696369755299800,1.0082998046875,-0.03960778776705265,-0.006720138567872345,0.0014746025972068309
1783696369765262800,1.018262939453125,-0.030334347987174985,0.010153145223855973,-0.0018022636489942669
1783696369775227000,1.028226806640625,-0.02524082424044609,0.0014046061009168624,0.0003672258771955967
1783696369785190000,1.03818994140625,-0.03362228361666202,0.009855258255824445,-0.007904197253286838
1783696369795153000,1.04815283203125,-0.028991701206564902,-0.0005337780831381678,0.0021039500093087554
1783696369805116000,1.058115966796875,-0.03692074064016342,-0.01293342359215021,0.0005160962959751486
1783696369815078700,1.06807861328125,-0.03153904760181904,-0.0071090282876044505,-0.006699132312461734
1783696369825042700,1.078042724609375,-0.006856441766023636,0.011665632146038114,0.002549574884958565
1783696369835005700,1.088005615234375,-0.03558277003467083,0.004931976509466767,0.011566263424791395
1783696369844968700,1.09796875,-0.038275662380456925,-0.005020495043136179,-0.009887297361902893
1783696369854931700,1.107931640625,-0.010896657067537308,0.0050177916293963785,-0.0027333704866468905
1783696369864895700,1.117895751953125,-0.028397826966643332,-0.0003669701488688588,0.012482501486875117
1783696369874858800,1.127858642578125,-0.027651392513513562,0.006569112724624574,-0.012681019733659923
1783696369884822000,1.137822021484375,-0.02331190200448036,0.003738602006435394,-0.011055573956295847
1783696369894785000,1.147784912109375,-0.03977028485238552,0.005909698967821896,0.0003080795684829354
1783696369904748800,1.157748779296875,-0.02121931363940239,0.006252667186595499,-0.011750095559097826
1783696369914711800,1.1677119140625,-0.020324410626292227,0.0017705168038606642,-0.011218509433045983
1783696369924674800,1.1776748046875,-0.04052198000252247,0.0033173443870618937,-0.008399944880977273
1783696369934637800,1.187637939453125,-0.03812953190803527,-0.000934869697317481,0.0005142696650698781
1783696369944600800,1.197600830078125,-0.021367197677493094,-0.00515679824128747,0.00210972216296941
1783696369954564900,1.20756494140625,-0.036926585859060286,-0.004789572364091873,-0.008788140480965375
1783696369964527900,1.21752783203125,-0.02032031897306442,-0.0034516382912173865,-0.004635514313541353
1783696369974491000,1.227490966796875,-0.030638883891701697,-0.004270699589140713,-0.00547064996343106
1783696369984454000,1.237453857421875,-0.032878187251091,-0.006755648272670805,0.0027266850175336
1783696369994418000,1.24741796875,-0.022255670949816703,-0.0018999518698081374,-0.007279708679392934
1783696370004380700,1.257380615234375,-0.03048223202526569,-0.0007320406015962361,-0.004493621624819934
1783696370014343700,1.26734375,-0.05263035094738006,0.0008099281433969736,-0.005704714447632432
1783696370024306700,1.277306640625,-0.02151683528125286,0.005543386406078934,-0.0037185821317136285
1783696370034270700,1.287270751953125,-0.03558277003467083,0.006836056565120816,0.0020441095808520914
1783696370044233700,1.297233642578125,-0.05338847583830356,-0.000725903121754527,0.002360482053644955
1783696370054196700,1.30719677734375,-0.03019815438687801,0.00925553879700601,-0.009294957491941749
1783696370064159700,1.31715966796875,-0.023314240092039105,-0.005206994058564305,0.001991283415071666
1783696370074123000,1.327123046875,-0.04575871161222458,-0.005322546729631721,-0.012615187955833971
1783696370084086800,1.337086669921875,-0.028398996010422704,0.0030201150061562655,-0.005267966998182237
1783696370094050000,1.347050048828125,-0.036170214533805846,-0.004718954813294113,0.0007226517187431454
1783696370104012800,1.3570126953125,-0.020461188748478888,-0.003551737664826214,-0.01636434788890183
1783696370113975800,1.366975830078125,-0.021807927182316778,-0.0006258768133819103,-0.015673114221729338
1783696370123939800,1.37693994140625,-0.04065466647148132,-0.004534757352806627,0.0056784109625965355
1783696370133902800,1.38690283203125,-0.039457565641403194,-0.0019995763193815944,-0.0028494711469858884
1783696370143865900,1.396865966796875,-0.022997429227828978,0.01543678471520543,0.003985160646028816
1783696370153828900,1.406828857421875,-0.02733575069308281,0.009827676129154861,-0.00962568728365004
1783696370163793000,1.41679296875,-0.03302490224540233,-0.001478949978761375,-0.008576251295953989
1783696370173756000,1.426755859375,-0.027784663504362105,0.003336743207275867,-0.0022126345481723545
1783696370183719000,1.436718994140625,-0.041995559686422344,-0.0113252942757681,-0.0020614625744521616
1783696370193681700,1.446681640625,-0.01551321095228195,-0.00007262684479355811,-0.006029525955207646
1783696370203644700,1.456644775390625,-0.020450082832574844,-0.00655457274261862,-0.003004807839170098
1783696370213608700,1.466608642578125,-0.03660977499485016,-0.003962802683748305,0.0010844342358410357
1783696370223571700,1.47657177734375,-0.035866847673058505,-0.0012551876928657293,-0.0031149171501398086
1783696370233534700,1.48653466796875,-0.019256489133834837,-0.0017309154458343982,-0.004605265305750072
1783696370243497700,1.496497802734375,-0.04050327530205249,-0.003068959116563201,-0.009451682423613965
1783696370253461800,1.506461669921875,-0.02868774982392788,-0.000919781726039946,-0.013539390128664671
1783696370263424800,1.5164248046875,-0.030029812082648277,0.005777049031481146,-0.00584485357068479
1783696370273388000,1.526387939453125,-0.033172201761603355,0.004515431597828865,0.006153663791529834
1783696370283350800,1.536350830078125,-0.03378127357065677,0.007280950788408518,-0.022370712164230644
1783696370293314800,1.546314697265625,-0.02720072613656521,-0.005229863477498293,0.0019061258822679519
1783696370303277800,1.55627783203125,-0.03677987086474895,-0.009317717313021421,-0.008803484180569648
1783696370313240800,1.56624072265625,-0.010001754054427147,0.004668905126489699,-0.02156118587963283
1783696370323203800,1.576203857421875,-0.02989946370124817,0.00039378509055823085,-0.002405234510824084
1783696370333166800,1.586166748046875,-0.0376841262280941,-0.010032076127454638,-0.009542429446987808
1783696370343131000,1.596130859375,-0.022577157989144322,0.007827223026938735,-0.0052503948088735335
1783696370353094000,1.606093994140625,-0.02376549099087715,-0.00017334727291017768,0.005377199526317418
1783696370363057000,1.616056884765625,-0.02511749012172222,-0.009011975832097232,-0.009628975219279527
1783696370373020000,1.62602001953125,-0.027667174604535102,0.01001278690509498,-0.0021470950312912464
1783696370382984000,1.63598388671875,-0.03634732466638088,0.00825410666950047,-0.0012688874246552587
1783696370392946700,1.64594677734375,-0.03425765891075134,-0.01636694170478731,-0.013788834845088421
1783696370402909700,1.65590966796875,-0.014504910692572592,-0.001440261936187744,-0.02018770556934178
1783696370412872700,1.665872802734375,-0.03231412362754345,0.00288249663375318,-0.011468465606123208
1783696370422835700,1.675835693359375,-0.02932195607423782,-0.0030476240675896406,-0.013480682211369275
1783696370432799700,1.6857998046875,-0.009565116202831268,0.013006525360979139,-0.005685607888363302
1783696370442762800,1.6957626953125,-0.03365209423303604,-0.0057160030266270034,0.008562076640129089
1783696370452725800,1.705725830078125,-0.024379238975048064,-0.005757686743885279,0.004820478959009051
1783696370462689000,1.71568896484375,-0.014503157126903534,0.013664258617348967,-0.010553360055200755
1783696370472652800,1.72565283203125,-0.028573183533549307,-0.0002956950109452009,0.003935037893988192
1783696370482615800,1.73561572265625,-0.020498013627529142,-0.00041844460777938365,-0.010469444631412625
1783696370492578800,1.745578857421875,-0.022739070552587507,0.0001413081668317318,-0.016644297341443598
1783696370502541800,1.755541748046875,-0.04533142611086368,-0.00008965104483067988,0.001280029873177409
1783696370512504800,1.7655048828125,-0.016609189495444297,0.006758936208300292,-0.024818324512057004
1783696370522468900,1.77546875,-0.014061258578300475,0.016873539520055054,0.0005847410853952169
1783696370532432000,1.785431884765625,-0.03216390150189399,0.0005131006212905049,-0.0019032398054376243
1783696370542395000,1.795394775390625,-0.022888123634457587,0.0031637612605467436,-0.0252955866349861
1783696370552358000,1.80535791015625,-0.01810088935792446,0.0001353168174624443,-0.007558306425064802
1783696370562322000,1.815322021484375,-0.035309798312187196,0.005296060581505298,-0.006138612352870405
1783696370572284400,1.825284423828125,-0.03471767763793468,0.0014303250640630722,-0.017049480608850715
1783696370582247400,1.835247314453125,-0.036360184147953986,0.009175093971937894,0.0023452844845131037
1783696370592210400,1.84521044921875,-0.049077042379975316,0.006805588361620903,-0.006434563092142343
1783696370602173400,1.85517333984375,-0.027830840733647343,-0.00327883900757879,-0.004035210332833231
1783696370612137500,1.865137451171875,-0.033064649733901025,0.010027253821864724,-0.007128719368763268
1783696370622100500,1.8751005859375,-0.03920096053183079,-0.002170037515461445,-0.011526077544875443
1783696370632063500,1.8850634765625,-0.02438508419394493,-0.0073283335940912365,-0.011329166733287275
1783696370642026500,1.895026611328125,-0.03739887954592704,-0.002695851487852633,-0.0015893515506759286
1783696370651990500,1.904990478515625,-0.035900165420770645,-0.005543532536551356,-0.012867409151233732
1783696370661953500,1.91495361328125,-0.023175708404183388,-0.004943922675587236,-0.019711137566156684
1783696370671916500,1.92491650390625,-0.039625323423743246,0.005735365314222872,0.004060819698125124
1783696370681879600,1.934879638671875,-0.047259763824939724,0.007851626815833151,-0.00023048428762704134
1783696370691842600,1.944842529296875,-0.02766074486374855,0.015020714727602899,-0.0098333386849612
1783696370701806600,1.954806640625,-0.0129927525639534,0.003217245013453066,-0.0020270853808149695
1783696370711769300,1.964769287109375,-0.014494973820447921,-0.006418050348758697,-0.013804580403491853
1783696370721732400,1.974732421875,-0.02826689406335354,0.010552008348330855,0.008113090763613582
1783696370731695400,1.9846953125,-0.030808395239710806,0.005283420295640826,0.008680844181589781
1783696370741659400,1.994659423828125,-0.03080897976160049,-0.015822715292870996,-0.008337364506162702
1783696370751622400,2.004622314453125,-0.014051321706175804,0.006361242127604782,-0.01328271195385605
1783696370761585400,2.01458544921875,-0.027061025404930113,0.0009437105908989906,-0.0037672070464119314
1783696370771548400,2.02454833984375,-0.030060791742801664,-0.0007749298952519893,-0.0066602616067975755
1783696370781511400,2.034511474609375,-0.020779753178358076,0.009476816864870488,-0.006667239336855709
1783696370791475500,2.044475341796875,-0.040081250497698784,-0.013387268306873737,0.00955203752554953
1783696370801438200,2.054438232421875,-0.03349836497604847,0.007309775024093687,-0.0034423955388367174
1783696370811401500,2.0644013671875,-0.012248656198382377,0.00981883523557335,-0.0014926131779327988
1783696370821364500,2.074364501953125,-0.05953413898646831,-0.00925689050387591,-0.011173647378012538
1783696370831328500,2.08432861328125,-0.028116671937704084,-0.0021445377480238674,-0.013324797529913484
1783696370841291500,2.09429150390625,-0.02856616927087307,0.004793079495429993,-0.004714351703412831
1783696370851254500,2.104254638671875,-0.032006080591678615,-0.006123926240392029,-0.016299794752709568
1783696370861217500,2.114217529296875,-0.015546528699994086,-0.006146138072200119,-0.010865531276911497
1783696370871180500,2.1241806640625,-0.030651158851385116,-0.0051723976692184806,0.004397358176112175
1783696370881144600,2.13414453125,-0.0231663560539484,-0.005296608570776879,-0.00395304847471416
1783696370891107600,2.144107666015625,-0.019575638085603714,0.00887855871077627,-0.020491182027943432
1783696370901070300,2.1540703125,-0.03304185338020325,0.0003349675754085183,-0.00868603181336075
1783696370911033300,2.164033447265625,-0.031548399952054024,-0.013671528608351946,-0.010030834018439055
1783696370920996400,2.173996337890625,-0.01749006398320198,-0.008790697764232754,-0.01696618623957038
1783696370930960400,2.18396044921875,-0.03499240292608738,-0.003461173304542899,0.00031228081956505776
1783696370940923400,2.19392333984375,-0.03305062120854854,-0.0020823957646265625,-0.006947481050342321
1783696370950886400,2.203886474609375,-0.026771102547645566,-0.005351663226261735,-0.008479330260120332
1783696370960849400,2.213849365234375,-0.02676934898197651,0.0015522344106808305,0.004760675063170492
1783696370970813400,2.2238134765625,-0.04173895457684994,-0.012157763044536113,-0.007859956252761185
1783696370980776400,2.2337763671875,-0.021392916640639303,0.0005445917380973697,-0.00305734174400568
1783696370990739500,2.243739501953125,-0.04682897119224071,0.008740209686011075,0.00035531624369323253
1783696371000702500,2.253702392578125,-0.03950140478312969,-0.004079268670268357,-0.007498867855407297
1783696371010665500,2.26366552734375,-0.028880057525634766,0.004910568395256996,-0.019251593763008713
1783696371020629500,2.27362939453125,-0.045936406266689295,-0.007643135164305567,-0.014264599130675196
1783696371030592500,2.283592529296875,-0.02573532975912094,-0.008258344453200698,-0.019929456491954625
1783696371040555500,2.293555419921875,-0.03516249879598617,0.004471080999448895,-0.0016861629886552691
1783696371050518500,2.3035185546875,-0.04278934041261673,-0.003965104238688946,0.0022943214822560547
1783696371060482600,2.313482666015625,-0.027081483671069145,-0.0006414031760767102,-0.00585990500934422
1783696371070445600,2.323445556640625,-0.016003040295839308,-0.0010025646386668085,-0.003972995284199714
1783696371080408300,2.333408203125,-0.025427286723256108,-0.010229973319731652,-0.00862480314541608
1783696371090371300,2.343371337890625,-0.016160276684165,-0.0014450842417776583,-0.008010141845792532
1783696371100334300,2.353334228515625,-0.040703181788325306,-0.0017211247041821478,0.00010725976675748824
1783696371110298400,2.36329833984375,-0.04967676183879375,-0.018605806672759354,0.001429338683374226
1783696371120261400,2.373261474609375,-0.020651742884516714,-0.002001037624105811,-0.018181480313464997
1783696371130224400,2.383224365234375,-0.015710779350996018,0.012558379734680056,-0.0023963570846244693
1783696371140187400,2.3931875,-0.029477438896894453,-0.014197232982888818,-0.004845503802411258
1783696371150150700,2.403150634765625,-0.02544482237994671,0.00021415420733392237,-0.005723747941665351
1783696371160114400,2.413114501953125,-0.02784019308388233,0.008226743738539516,-0.006410561162047088
1783696371170077400,2.423077392578125,-0.03651858958005905,-0.011568491914495825,0.0034533187916502353
1783696371180040400,2.43304052734375,-0.029641105026006698,-0.0000050415012985467904,-0.008848200105130672
1783696371190003500,2.44300341796875,-0.030088264271616934,-0.007075929735600948,0.0041752033254131675
1783696371199967500,2.452967529296875,-0.039817046603560446,-0.007508987390622496,-0.010149309298954903
1783696371209930500,2.462930419921875,-0.026950550767779347,0.001138867836818099,-0.010032733714580536
1783696371219893500,2.4728935546875,-0.016328034466505048,0.004466587487421929,-0.008697466522827744
1783696371229856500,2.4828564453125,-0.03907528832554817,-0.007300605336949229,-0.012591259090974926
1783696371239819500,2.492819580078125,-0.025759879678487776,0.011110482481308281,-0.008927877745218575
1783696371249783600,2.502783447265625,-0.03293605491816997,-0.001972176855802536,-0.0005057940976694226
1783696371259746600,2.51274658203125,-0.03068973729610443,-0.002487798227742314,-0.008234159860014915
1783696371269709300,2.522709228515625,-0.015432546931505203,0.0023092267904430627,-0.013766367284953594
1783696371279672300,2.53267236328125,-0.03173310886919498,-0.005530417326651513,-0.01232537469640374
1783696371289636400,2.54263623046875,-0.022904490247368813,-0.010183101970702409,-0.007822692982293666
1783696371299599400,2.552599365234375,-0.020812486404180524,0.011808511215448379,-0.001896298607997596
1783696371309562400,2.562562255859375,-0.014971943682432173,-0.012279233999736607,-0.0069713368499651545
1783696371319525400,2.572525390625,-0.026345570611953733,-0.005420381080918014,-0.01035275944918394
1783696371329488600,2.582488525390625,-0.023504209706187246,0.010756079553067684,-0.01031366954781115
1783696371339452400,2.592452392578125,-0.03936228857338428,0.0020578823778778315,-0.0039641543906182046
1783696371349415400,2.60241552734375,-0.0244037888944149,-0.0027003449998795983,-0.0018997326740995048
1783696371359378400,2.61237841796875,-0.017077976050972936,0.01621617158986628,-0.01527428762987256
1783696371369341400,2.622341552734375,-0.04192307897210121,-0.004178454728424549,-0.001951499393954873
1783696371379304400,2.632304443359375,-0.02831073320508003,-0.008039148744568228,-0.016661138878390193
1783696371389268500,2.6422685546875,-0.023524083450436592,-0.0023611396407708526,-0.006277984290942549
1783696371399231500,2.6522314453125,-0.03968436013460159,-0.00999583577029407,0.0035818405421450734
1783696371409194500,2.662194580078125,-0.03639408641755581,0.0008854410650208592,-0.009918971141800284
1783696371419157500,2.672157470703125,-0.035193478456139564,0.0003020882191136479,0.00043784342799335716
1783696371429121500,2.68212158203125,-0.0242687643378973,-0.011452172058448194,-0.0009010770255699753
1783696371439084500,2.69208447265625,-0.023074586117267606,-0.005501337362639606,-0.016021781528927383
1783696371449047300,2.70204736328125,-0.040725978142023084,0.002960055381990969,-0.001887055855616927
1783696371459010300,2.71201025390625,-0.04551788859367371,-0.0027379735965281722,-0.0013822481386363506
1783696371468973300,2.721973388671875,-0.02696925546824932,0.000863229233212769,-0.011975976736843585
1783696371478937300,2.731937255859375,-0.014547580790519713,-0.00528689089436084,0.009700907944329082
1783696371488900400,2.741900390625,-0.03744505677521229,-0.007877638039924204,-0.010865056352876126
1783696371498863400,2.75186328125,-0.022782909694314003,0.0038888241320848465,-0.006230893746204674
1783696371508826400,2.761826416015625,-0.03265782249867916,0.00014116203635931014,0.004665251864679158
1783696371518789600,2.77178955078125,-0.02877075193226337,-0.012327274392545223,-0.016456154358200727
1783696371528753400,2.78175341796875,-0.02502162853181362,-0.010012348513677716,-0.01579122417606413
1783696371538716700,2.791716552734375,-0.04371989926099777,0.0005407923458144068,-0.00510671202186495
1783696371548679400,2.801679443359375,-0.04387421303987503,-0.005836816394701599,-0.0074412924492731685
1783696371558642400,2.811642333984375,-0.01873626465201378,0.013887838240154087,0.0016029416846111415
1783696371568606500,2.8216064453125,-0.028455694633722304,-0.0063694619666785,0.005809709192067384
1783696371578569500,2.831569580078125,-0.036084874337911604,-0.0035816944116726515,0.0014904577534645795
1783696371588532200,2.8415322265625,-0.017077976050972936,0.009901764278672636,-0.012932218015752731
1783696371598495200,2.8514951171875,-0.029489129334688186,0.0008334551494568585,-0.00947162923309952
1783696371608458200,2.861458251953125,-0.02785188352167606,0.0011758388463407755,-0.015118256817944348
1783696371618422300,2.87142236328125,-0.02396422843337059,0.012055435181222856,-0.01736077504772693
1783696371628385300,2.88138525390625,-0.035331425622105596,-0.004918824766948819,0.002783127912506461
1783696371638348300,2.891348388671875,-0.028600656062364577,-0.005421550124697387,-0.0064931614115834235
1783696371648311300,2.901311279296875,-0.02201835506260395,-0.0014044234378263354,-0.012994761857949197
1783696371658274300,2.9112744140625,-0.041916649231314655,0.0005446648033335805,-0.005310125639475882
1783696371668238300,2.92123828125,-0.033544542205333705,0.0006069529172033071,-0.012353504812344908
1783696371678201300,2.931201416015625,-0.02038052472770214,0.0058795960905030364,-0.005100428411550819
1783696371688164400,2.941164306640625,-0.0318979440420866,-0.009451828554086387,-0.0032096462288871406
1783696371698127400,2.95112744140625,-0.013941431590914726,-0.0007103036938235163,-0.006219970493391156
1783696371708091100,2.961091064453125,-0.024113281515240666,0.020764555609226226,-0.003987096874788403
1783696371718054400,2.971054443359375,-0.03204348999261856,0.00535257654171437,-0.012683686614781618
1783696371728017400,2.981017333984375,-0.026059739407896992,0.014605923381634056,-0.0015192454565316439
1783696371737980400,2.99098046875,-0.032495325413346286,0.0009455006891861558,0.0003691986385732889
1783696371747943400,3.000943359375,-0.04117255286574364,-0.0047349926326423885,-0.008371851297654212
1783696371757907500,3.010907470703125,-0.00974631798863411,-0.004003061628900468,-0.0070156509157270185
1783696371767870500,3.020870361328125,-0.028742694881558416,0.00025653204433619977,0.004705876136012375
1783696371777833200,3.030833251953125,-0.030987843459844587,-0.00020180618241429326,0.0011319631719961761
1783696371787796200,3.040796142578125,-0.02784896091222763,-0.00009801701437681913,-0.0031963483558967707
1783696371797759200,3.05075927734375,-0.030087095227837563,-0.013492884105816482,0.014989625469595194
1783696371807723300,3.06072314453125,-0.030834114202857015,-0.007850567369908095,-0.014314356556534766
1783696371817686300,3.070686279296875,-0.01766132889688015,0.004151164862699806,-0.00995093718264252
1783696371827649300,3.080649169921875,-0.03605331015586853,0.004000321682542563,-0.013430851720273494
1783696371837612300,3.0906123046875,-0.03844342016279697,0.014124533072859049,-0.0036129663327708838
1783696371847576300,3.100576416015625,-0.023185645276308058,0.011486183925904333,-0.010258030370436608
1783696371857539300,3.110539306640625,-0.03201075676679611,-0.0029210020132362843,0.007509023923240601
1783696371867502300,3.12050244140625,-0.04055237514078617,0.002734722193516791,0.00022737901508808136
1783696371877465300,3.13046533203125,-0.018863690423965452,0.016862177875824273,-0.004847878422588109
1783696371887428400,3.140428466796875,-0.041158524340391155,-0.015420673830620943,0.008079663418047129
1783696371897392400,3.150392333984375,-0.03682546357214451,-0.014184775360114872,0.0019410875977948308
1783696371907355400,3.16035546875,-0.02276069786250591,-0.00316609934810549,0.00008804360963404179
1783696371917318400,3.170318359375,-0.033524668461084366,-0.010446027223207055,-0.005287585014104843
1783696371927281400,3.180281494140625,-0.023655016353726386,-0.013713796847499906,-0.0015507365733385084
1783696371937245400,3.190245361328125,-0.013628712379932403,0.0033223858883604405,-0.00033072979170829054
1783696371947208400,3.20020849609375,-0.042505262774229044,-0.007411956756934523,0.0016048048481345175
1783696371957171200,3.210171142578125,-0.03308160086870193,-0.012207301274687051,-0.005460713091306388
1783696371967134200,3.22013427734375,-0.007639701098203658,0.013041925467923283,0.006155271226726472
1783696371977097200,3.23009716796875,-0.039811785906553265,-0.0011121990256011485,-0.01638250460010022
1783696371987061200,3.240061279296875,-0.03382628175616264,0.007497735344246029,0.0028796105569228528
1783696371997024300,3.250024169921875,-0.009730535897612571,0.008275624381564557,0.0021715353528037667
1783696372006987300,3.2599873046875,-0.04115092555582523,0.007529116863198578,-0.00945292453262955
1783696372016950300,3.2699501953125,-0.015408581534028052,0.004231025165878236,-0.008483677641674875
1783696372026914300,3.279914306640625,-0.027966449812054633,0.010822934244200586,0.0024429361727088686
1783696372036877300,3.289877197265625,-0.0366384165674448,-0.0023996084876358507,-0.0075633113937452435
1783696372046840300,3.29984033203125,-0.01898234836757183,0.0004949804427102208,0.0023254472728818656
1783696372056803300,3.30980322265625,-0.03752864340543747,0.008736008434928954,0.00419540586322546
1783696372066766300,3.319766357421875,-0.0403723423987627,-0.01112315929979086,-0.0031630306081846353
1783696372076730400,3.32973046875,-0.029153613770008087,-0.0018786533534526824,-0.0015151538033038377
1783696372086693400,3.339693359375,-0.04111410067677498,-0.006336874871328473,-0.00808770059403032
1783696372096656400,3.349656494140625,-0.036329204487800595,-0.01913863490782678,-0.0007398951144888997
1783696372106619400,3.359619384765625,-0.015235563054680823,0.00749199972320348,-0.003130954969488084
1783696372116583400,3.36958349609375,-0.03020049247443676,-0.0075872037259861825,-0.007038702997751533
1783696372126546400,3.37954638671875,-0.0324468100965023,-0.0051398105738684535,-0.0033122663531452417
1783696372136509400,3.389509521484375,-0.026463644033670426,-0.00007434387784451246,-0.013392455938644706
1783696372146472200,3.39947216796875,-0.04201894056200981,-0.005928951657563447,-0.011027809166535734
1783696372156435200,3.409435302734375,-0.013442834419012069,-0.0020829072212800383,-0.018899857715889812
1783696372166399200,3.419399169921875,-0.013746785801649094,0.005215981082618237,-0.00045998219456523654
1783696372176362200,3.4293623046875,-0.048158758491277695,-0.010663798159733414,-0.0035810733571648595
1783696372186325200,3.4393251953125,-0.03828209212124348,-0.008961816547438502,-0.008999956600740551
1783696372196288300,3.449288330078125,-0.03005319295823574,-0.002384812777303159,-0.001477817467600107
1783696372206252300,3.459252197265625,-0.04172200344204902,-0.007090433184988796,0.003416676575690508
1783696372216215300,3.46921533203125,-0.01973345899581909,-0.003292063815332949,-0.004651990524306893
1783696372226178300,3.47917822265625,-0.020932313391566277,0.007792699702829122,0.00002699760477989912
1783696372236141300,3.489141357421875,-0.03619125732183456,-0.010328063399344682,0.002314487487450242
1783696372246104300,3.499104248046875,-0.020331424888968466,-0.006503573207743465,0.0020095131915062667
1783696372256068400,3.509068359375,-0.018533435556292534,0.019785043052583932,-0.000693133363313973
1783696372266031400,3.51903125,-0.027356208959221837,0.009889635449461639,0.0008144216554239391
1783696372275994400,3.528994384765625,-0.027065701580047605,-0.011597206552326678,-0.014731595587916672
1783696372285957400,3.538957275390625,-0.017636194455623627,-0.0009646437810733913,0.008089125366136431
1783696372295921400,3.54892138671875,-0.03050678194463253,0.0033056904818862675,-0.004387932760640979
1783696372305884400,3.558884521484375,-0.014501403561234473,-0.002194222108647227,-0.005460640026070177
1783696372315847400,3.568847412109375,-0.011061492240428924,0.003252389392070472,0.007374474290758371
1783696372325810400,3.578810546875,-0.03574760520756244,0.007022774776257575,0.006163710261508822
1783696372335773200,3.588773193359375,-0.020931144347786902,0.011913688622973859,0.0016643530156463383
1783696372345737200,3.5987373046875,-0.01598550463914871,-0.008800378908030688,0.0019789719227701424
1783696372355700200,3.6087001953125,-0.03169628399014473,-0.01608001452218741,-0.009037621730007231
1783696372365663200,3.618663330078125,-0.023619945040345192,-0.00021280250046402214,-0.0033937340915203094
1783696372375626200,3.628626220703125,-0.026910218757390976,-0.0041057913510128856,0.004786795885115862
1783696372385590300,3.63859033203125,-0.0501104770809412,-0.008211765365116298,-0.012788169902563094
1783696372395553300,3.64855322265625,-0.016142156505584714,0.0037187282621860504,-0.007070011451467871
1783696372405516300,3.658516357421875,-0.030501521247625347,-0.0028865882869809865,0.003111665747128427
1783696372415479300,3.668479248046875,-0.03559621403813362,-0.0007140665534883737,-0.0036671807380393145
1783696372425442300,3.6784423828125,-0.02871639139652252,0.005423888212256134,-0.015390059496648609
1783696372435406300,3.68840625,-0.03963467577397823,-0.009538520456850528,-0.00043528614472597833
1783696372445369300,3.698369384765625,-0.02153203285038471,-0.0035178353952243922,-0.007563201795890927
1783696372455332400,3.708332275390625,-0.014206220006942749,0.004455079712718725,-0.00578800881691277
1783696372465295400,3.71829541015625,-0.03844868085980415,-0.003274308962933719,0.0097388288019225
1783696372475259400,3.72825927734375,-0.03725800977051258,0.008049304812401533,-0.01221687282063067
1783696372485222400,3.738222412109375,-0.01705517969727516,0.013398337690159677,0.0024607275577262044
1783696372495185400,3.748185302734375,-0.051767012116312974,-0.005447049892134964,-0.003812069101445377
1783696372505148400,3.7581484375,-0.03202127816081047,-0.007943871676549315,-0.01820113486200571
1783696372515111200,3.768111083984375,-0.013917466193437575,-0.0010519932709634303,0.0043030674887821075
1783696372525075500,3.778075439453125,-0.03232113789021969,-0.001357077164761722,-0.006668006521835923
1783696372535038200,3.7880380859375,-0.03591594751179218,-0.002775930986739695,-0.009312091289833187
1783696372545001200,3.798001220703125,-0.01884732381105423,0.002462956047430634,0.0045156873261556025
1783696372554964200,3.807964111328125,-0.0269178175419569,-0.0030204072671011087,0.006898015885427594
1783696372564928300,3.81792822265625,-0.018687164813280106,0.0020686229676008224,-0.008968721212260425
1783696372574891000,3.82789111328125,-0.014490297645330429,-0.0005312938651069999,0.004514226021431386
1783696372584854000,3.83785400390625,-0.0260159002661705,-0.014910788079723715,-0.0009513459080830216
1783696372594817300,3.8478173828125,-0.02153027928471565,0.0015283786110579967,-0.005462393591739237
1783696372604780000,3.857780029296875,-0.020320903494954107,0.0080139777706936,0.00448887238446623
1783696372614744000,3.867744140625,-0.042618075498938555,-0.0038354865096509455,-0.002691321443207562
1783696372624707000,3.87770703125,-0.021230419555306433,0.017376593671366573,-0.007612630428187548
1783696372634670000,3.887670166015625,-0.029451719933748243,0.00333298034761101,0.003221848123334348
1783696372644633000,3.897633056640625,-0.036187165668606754,0.007641819990053773,-0.01154847203977406
1783696372654597000,3.90759716796875,-0.022424597775936125,0.010652436515502631,0.0009623787587508558
1783696372664560000,3.91756005859375,-0.037231121763587,0.0005957739360630511,-0.004151237927936017
1783696372674523100,3.927523193359375,-0.022117723783850667,-0.005302672985382378,-0.008552724289894103
1783696372684486100,3.937486083984375,-0.02107318316698074,0.0019565774278715252,0.004638546520844102
1783696372694449200,3.94744921875,-0.031094810965657232,0.006261142753995955,-0.0020134221816435456
1783696372704413200,3.9574130859375,-0.03813362356126308,-0.008485760000906884,-0.006577149900607765
1783696372714376000,3.9673759765625,-0.04157821105718613,0.005712642025761306,-0.015282178675383328
1783696372724339000,3.9773388671875,-0.04112345302700996,-0.007610876862518489,-0.0004920213006436824
1783696372734302000,3.987302001953125,-0.028404256707429885,-0.0035572175575420257,-0.009327544587291776
1783696372744265000,3.997264892578125,-0.010147300004959106,0.010796923020109534,0.008003164115734398
1783696372754229000,4.00722900390625,-0.04470657221078873,-0.013774367928318678,0.007545191215164959
1783696372764192000,4.01719189453125,-0.03528992456793785,-0.0005204071449115873,-0.009482515953294933
1783696372774155300,4.0271552734375,-0.023020225581526756,0.010080079987645148,-0.007474025675095617
1783696372784118300,4.0371181640625,-0.04381634537279606,-0.013830555094964801,-0.0016358575735241174
1783696372794082000,4.04708203125,-0.028106735065579414,-0.005442556380107998,-0.015944076650217173
1783696372804045000,4.057045166015625,-0.03723462889492511,0.016597352927178143,-0.005835026296414435
1783696372814008000,4.067008056640625,-0.04246960693895817,-0.010432546687126159,0.0001498933320865035
1783696372823971000,4.07697119140625,-0.023321254354715347,0.003987644864059984,-0.014723521879315376
1783696372833934000,4.08693408203125,-0.0309568637996912,0.011122501712664962,0.0014072729820385575
1783696372843898000,4.096898193359375,-0.03859247324466705,-0.010871778354607523,-0.011088380247354507
1783696372853861000,4.106861083984375,-0.0403939697086811,-0.007551730553805828,-0.01934858786407858
1783696372863824100,4.11682421875,-0.03814823660850525,0.011302899780869484,0.011302278726361692
1783696372873787100,4.126787109375,-0.036056817287206645,-0.015991788249462843,-0.0014290464224293827
1783696372883751200,4.136751220703125,-0.029029110607504842,0.003786605866625905,-0.008642229204252361
1783696372893714000,4.1467138671875,-0.02887538135051727,-0.006400149365887045,0.0021605755673721433
1783696372903677000,4.156677001953125,-0.03515723809897899,-0.008103519217669964,-0.01354775609821081
1783696372913640000,4.166639892578125,-0.017204817301034927,0.011786408981494604,-0.018656039022654294
1783696372923603000,4.17660302734375,-0.027226445099711418,-0.00916574162170291,-0.003050948535837233
1783696372933567000,4.18656689453125,-0.03740355572104454,-0.011798245549760758,-0.009218129396066069
1783696372943530000,4.196530029296875,-0.03381459131836891,0.0056748672986403105,-0.001317402741499245
1783696372953493000,4.206492919921875,-0.031708558949828144,-0.004013765686005354,-0.003145312288403511
1783696372963456300,4.216456298828125,-0.0233276840955019,-0.011671331234462559,-0.003750475107319653
1783696372973420000,4.226419921875,-0.02931903346478939,-0.010895743752084672,-0.004509513313695788
1783696372983383300,4.23638330078125,-0.030812486892938612,-0.0001222746727988124,0.0019967998404055833
1783696372993346000,4.246345947265625,-0.02378478021323681,0.0002386310614645481,-0.01111081127487123
1783696373003309000,4.25630908203125,-0.015405074402689933,0.01322046037260443,0.007346271109580993
1783696373013272000,4.26627197265625,-0.04457797739505768,-0.0023932883447036145,0.004385959999263287
1783696373023236000,4.276236083984375,-0.03604863398075103,0.005050670985691249,-0.008726436888985336
1783696373033199000,4.28619921875,-0.03006196078658104,0.00180208098590374,0.0024536402298137544
1783696373043162000,4.296162109375,-0.02810848863124847,-0.0061428501365706325,-0.00135645611025393
1783696373053125000,4.306125,-0.03559562951624393,-0.005352247748151421,-0.020568192786909637
1783696373063089200,4.316089111328125,-0.03380114731490612,0.0028424934169277547,-0.01629497244711965
1783696373073052200,4.32605224609375,-0.050398061850666996,-0.00787241387553513,-0.0017378566432744264
1783696373083015000,4.336014892578125,-0.022264438778162,-0.005886427690088749,-0.007068952005542814
1783696373092978000,4.34597802734375,-0.016126958936452863,0.0006717252491042018,0.004708944875933229
1783696373102941000,4.35594091796875,-0.029740473747253415,-0.00876191006116569,-0.006900463570840657
1783696373112905000,4.365905029296875,-0.03363455857634544,0.007371734344400465,-0.011849062421545386
1783696373122868000,4.375867919921875,-0.013433482068777083,0.010373254247941076,-0.006629939533770084
1783696373132831000,4.3858310546875,-0.029594927796721456,-0.004777808861061931,-0.002570069683715701
1783696373142794200,4.395794189453125,-0.027203064224123955,0.01825527620203793,-0.012814911779016256
1783696373152757200,4.40575732421875,-0.022262100690603255,-0.0034302301770076154,-0.0012372867099940776
1783696373162721300,4.41572119140625,-0.02824409770965576,-0.014504180040210484,-0.012113083652593195
1783696373172684000,4.42568408203125,-0.023453356301784516,-0.013835304335318505,-0.01357387692015618
1783696373182647000,4.43564697265625,-0.030782676276564596,0.0015716697635129093,0.005056004747934639
1783696373192610000,4.445610107421875,-0.03931143516898155,-0.004229783056862652,-0.009983670408464967
1783696373202574000,4.455573974609375,-0.01626841323375702,-0.0007087693238630891,-0.008492847328819334
1783696373212537000,4.465537109375,-0.041702129697799684,0.002569192900881171,0.006788600694201887
1783696373222500000,4.4755,-0.02763794851005077,-0.002034501502290368,-0.004427680249139666
1783696373232463000,4.485463134765625,-0.03182721689343452,0.008640950562618672,-0.01268606123495847
1783696373242426000,4.495426025390625,-0.04618599711358547,0.001767301933467388,0.0023772139927372335
1783696373252390100,4.50539013671875,-0.024193945536017416,-0.014006423118524253,-0.007187135025113821
1783696373262353200,4.515353271484375,-0.012377835536003112,-0.0039315672952681775,0.0015714505678042767
1783696373272316000,4.52531591796875,-0.025090602114796638,-0.008169350995495915,0.0080463822029531
1783696373282279000,4.53527880859375,-0.030934067445993422,-0.016584456912986933,-0.007153561549074947
1783696373292242200,4.5452421875,-0.019715338817238807,0.0011294058887287974,-0.004563289327546954
1783696373302206000,4.5552060546875,-0.03542319555878639,0.0027929186541587113,-0.008461940733902155
1783696373312169000,4.5651689453125,-0.025102877074480057,-0.01255220572222024,-0.00452701243776828
1783696373322132200,4.57513232421875,-0.022705752804875374,-0.0072274670355021945,-0.0076554831892251965
1783696373332095200,4.58509521484375,-0.04290975192189216,-0.008025887404195964,0.0014179405065253376
1783696373342059000,4.59505908203125,-0.020768647262454032,-0.014986008740402757,-0.016192242725007234
1783696373352022300,4.605022216796875,-0.024206220495700835,-0.00006524725593626499,0.006497362662665545
1783696373361985000,4.614985107421875,-0.03198912945687771,-0.007572554146125912,-0.01187839811388403
1783696373371948000,4.624947998046875,-0.03034779199063778,0.004404518569260835,-0.017586583160236476
1783696373381911000,4.6349111328125,-0.0173234752446413,0.007598382707126438,0.0009353446213528513
1783696373391875000,4.644875,-0.02614975577890873,-0.00974463748820126,-0.00962576034888625
1783696373401838000,4.654838134765625,-0.026907880669832226,0.0021523557282984254,-0.018569858576543627
1783696373411801000,4.664801025390625,-0.02884849334359169,0.0021272212870419023,0.0009225582050159573
1783696373421764000,4.67476416015625,-0.03377952000498771,-0.009911810748651623,-0.0075621058173477645
1783696373431728000,4.68472802734375,-0.03318564576506614,0.012577413228712975,-0.0001571633230894804
1783696373441691100,4.694691162109375,-0.03347907575368881,0.00993230554740876,0.00803618960250169
1783696373451654000,4.70465380859375,-0.034971944659948344,0.006623692456074058,-0.010749795942753554
1783696373461617000,4.714616943359375,-0.022552608069777488,0.006676080230437219,-0.013741744300350547
1783696373471580000,4.724579833984375,-0.017904490002989767,0.00040076282061636445,0.009382051253505051
1783696373481544000,4.7345439453125,-0.04140110092461109,0.0018372984297573565,-0.018628420363366604
1783696373491507000,4.7445068359375,-0.030480478459596633,0.0039317134257406,-0.01944079619217664
1783696373501470200,4.75447021484375,-0.02074877351820469,-0.0032864377921447154,-0.007730448121577501
1783696373511433200,4.76443310546875,-0.040950434547662735,-0.012577194033004342,-0.012332973480969667
1783696373521396200,4.774396240234375,-0.026891514056921004,-0.003992942093685269,-0.007547711965814233
1783696373531360300,4.7843603515625,-0.034521862804889676,-0.00805569802056998,-0.0012762304808944464
1783696373541323300,4.7943232421875,-0.017169161465764044,-0.007645838578045368,-0.008159852514788507
1783696373551286000,4.8042861328125,-0.012529811227321623,-0.004712780800834298,-0.007337247552908956
1783696373561249000,4.8142490234375,-0.034817630881071086,-0.0007982377056032419,0.00411013873256743
1783696373571212500,4.824212646484375,-0.035567572465538974,-0.009436996311135589,-0.011899660097621381
1783696373581176600,4.834176513671875,-0.03242459826469421,-0.006834558727778494,-0.004018916785158217
1783696373591139600,4.8441396484375,-0.04289689244031906,-0.009252031665667891,0.0010439926275983451
1783696373601102300,4.854102294921875,-0.020156652843952176,-0.003725267600826919,-0.018715039200894533
1783696373611065300,4.8640654296875,-0.02165361340343952,0.005408215719088912,-0.0032986762192100286
1783696373621029400,4.874029296875,-0.04020341557264328,-0.004282536157406866,0.011773330304212867
1783696373630992400,4.883992431640625,-0.03840951789319515,-0.0021990444142371414,-0.009405249466001986
1783696373640955400,4.893955322265625,-0.020449498310685158,0.002858129377476871,-0.01126742660868913
1783696373650918400,4.90391845703125,-0.026885668838024138,0.0021802301159128544,-0.0009939794734120369
1783696373660881400,4.91388134765625,-0.027491818037629127,0.007491269070841372,-0.012086232178285717
1783696373670845400,4.923845458984375,-0.01821194851696491,0.001491480666771531,0.0002747983533889055
1783696373680808400,4.933808349609375,-0.04754208789765835,-0.009176153417862952,-0.008804762822203337
1783696373690771500,4.943771484375,-0.043210780695080754,-0.001848879269696772,-0.010506488706171511
1783696373700734500,4.953734375,-0.0170230309933424,-0.0020510873109102247,-0.0019434622179716823
1783696373710697500,4.963697509765625,-0.045609658530354494,-0.01139704433772713,-0.011908683654293418
1783696373720661500,4.97366162109375,-0.02945405802130699,-0.0009010039603337645,-0.0008596125040203332
1783696373730624500,4.98362451171875,-0.021376550027728078,0.0138055667841807,0.00036770080123096704
1783696373740587500,4.99358740234375,-0.0299111541390419,-0.006888079013302922,-0.016527319898270068
1783696373750550500,5.003550537109375,-0.029615970584750174,0.013293489076197146,-0.018331373645551503
1783696373760514600,5.0135146484375,-0.024828736308217046,0.004945128251984715,0.0008163944168016314
1783696373770477600,5.0234775390625,-0.03201894007325172,-0.00469126308877021,-0.006407930813543498
1783696373780440300,5.0334404296875,0.0031377135038375852,0.0012120792035013436,-0.005667743438109755
1783696373790403300,5.0434033203125,-0.02245148578286171,0.011189137208089232,-0.0005315130608156323
1783696373800366300,5.053366455078125,-0.029344167906045913,-0.020254925586655734,-0.006727956548146903
1783696373810330400,5.063330322265625,-0.010943418818712233,0.011134411346167326,0.007065408341586589
1783696373820293400,5.07329345703125,-0.02126315278112888,0.00832472422029823,0.0028393881443887947
1783696373830256400,5.08325634765625,-0.03817746270298958,-0.00823467131666839,-0.008754384341835975
1783696373840219400,5.093219482421875,-0.011248539245128631,0.005397182868421078,0.005162314666621387
1783696373850182700,5.1031826171875,-0.01124678567945957,0.009693528355471789,0.004570632383786142
1783696373860146400,5.113146484375,-0.026514497438073156,-0.0006411474477499723,-0.0038074294589459895
1783696373870109400,5.123109375,-0.014248305583000182,-0.0011974296236410735,0.0005992080021649599
1783696373880072400,5.133072509765625,-0.042678865775465966,0.0018287497971206902,0.011463387572206557
1783696373890035500,5.143035400390625,-0.011857026532292366,0.0051166488939896225,0.0003438450016081333
1783696373899998500,5.15299853515625,-0.025467618733644483,0.00497391595505178,-0.0016006035970523953
1783696373909962500,5.16296240234375,-0.047612815046310424,-0.004868555884435773,0.0010109306082129478
1783696373919925500,5.172925537109375,-0.026968670946359633,0.0012780205791816115,-0.005415449177473783
1783696373929888500,5.182888427734375,-0.013950199419260024,-0.0036306846525520084,0.003383249230124056
1783696373939851500,5.1928515625,-0.03204758164584637,-0.01251121612470597,0.0051323579197749495
1783696373949815600,5.202815673828125,-0.02577157011628151,0.010324483202770351,0.0031781916446983814
1783696373959778600,5.212778564453125,-0.04088263000845909,0.0005581088067963719,-0.010296937608718871
1783696373969741300,5.2227412109375,-0.025765724897384643,-0.006132986329682171,-0.0065715969426557415
1783696373979704300,5.232704345703125,-0.014697802916169166,0.002679959798976779,-0.007902626350708306
1783696373989667300,5.242667236328125,-0.028613515543937682,-0.0027285116484388706,0.004683262445405126
1783696373999631400,5.25263134765625,-0.034303836140036584,-0.01176598724797368,-0.0011492065677419303
1783696374009594400,5.262594482421875,-0.029824644899368286,-0.007630166084878146,-0.019096257070824504
1783696374019557400,5.272557373046875,-0.04298924689888954,-0.003296338131651282,0.012081884796731173
1783696374029520400,5.282520263671875,-0.033410102170705794,-0.00837137637361884,-0.014039375540055334
1783696374039483600,5.292483642578125,-0.010667524486780166,0.009600918168574571,-0.009203187555260955
1783696374049447400,5.302447509765625,-0.02772562679350376,0.010263254534825681,0.009534319205768405
1783696374061278500,5.314278564453125,-0.03161854257881641,0.0014016834914684295,-0.01569609323851764
1783696374071241500,5.324241455078125,-0.017850129467248916,-0.000859685569256544,-0.012572846651449799
1783696374081204500,5.33420458984375,-0.032357378247380254,-0.00027622312549501653,0.005025536544434726
1783696374091167500,5.34416748046875,-0.03909925372302532,-0.008116159503534436,-0.00338050928376615
1783696374101131500,5.354131591796875,-0.02308744559884071,0.0019212869187816976,0.000021152385883033274
1783696374111094500,5.364094482421875,-0.049565118157863616,0.004291632779315113,0.0037028000406920908
1783696374121057500,5.3740576171875,-0.02727203780710697,-0.005992847206629812,-0.005695325564779341
1783696374131020500,5.3840205078125,-0.02233107427358627,0.01469688960071653,0.0014065057970583438
1783696374140984600,5.393984619140625,-0.05434942982494831,-0.0017799787519499658,-0.0015280498174950479
1783696374150947300,5.403947265625,-0.03101122433543205,0.0014391659576445818,-0.0017792480995878577
1783696374160910300,5.413910400390625,-0.026075521498918532,0.0040229719057679175,0.0010794657997786998
1783696374170873300,5.423873291015625,-0.04867313775420189,-0.004452778157778084,0.008103592282906174
1783696374180836400,5.43383642578125,-0.026983868515491484,-0.011242109504342079,-0.01048723601642996
1783696374190800400,5.44380029296875,-0.022338088536262513,-0.00039743835236877203,-0.015982289768755435
1783696374200763400,5.453763427734375,-0.037000235617160794,-0.0057568830262869596,-0.002012947257608175
1783696374210726400,5.463726318359375,-0.04433598533272743,-0.0027478374034166334,-0.014201653429679571
1783696374220689400,5.473689453125,-0.022931378254294393,0.008864274457097053,-0.004581299908272922
1783696374230652400,5.48365234375,-0.032357378247380254,-0.0038379341950640082,-0.005090418474189937
1783696374240616400,5.493616455078125,-0.02204056689441204,0.005790894893743097,-0.01165189588163048
1783696374250579500,5.503579345703125,-0.03340834860503673,0.017900946339033542,0.004833849897235632
1783696374260542500,5.51354248046875,-0.03760346220731735,-0.0008212532550096512,-0.008660422448068857
1783696374270505500,5.52350537109375,-0.02668517782986164,-0.012506722612679004,0.003170519794896245
1783696374280468500,5.533468505859375,-0.040457682594656943,0.0004996931504458188,0.004055266740173101
1783696374290432500,5.5434326171875,-0.03926408889591693,-0.006916574455425143,-0.0016056816309690475
1783696374300395500,5.5533955078125,-0.019363456639647482,0.009399623442813754,-0.019539178532734514
1783696374310358500,5.563358642578125,-0.017262100446224213,0.017002755390293896,0.01532492183856666
1783696374320321500,5.573321533203125,-0.02594751120507717,-0.0067140376206487416,-0.007645728980191052
1783696374330284300,5.5832841796875,-0.016970424023270606,0.002240983859822154,-0.016696137126535178
1783696374340248300,5.593248291015625,-0.035516719061136244,-0.002158602805994451,-0.002362418282404542
1783696374350211300,5.60321142578125,-0.03342179260849953,0.0030791151843965053,0.001079210071451962
1783696374360174300,5.61317431640625,-0.03237082225084305,0.008126900093257427,0.0028335794581100344
1783696374370137300,5.623137451171875,-0.0263818109691143,0.005519201812893152,-0.005621164350025356
1783696374380723500,5.633723388671875,-0.0386602777838707,-0.005778071944788098,-0.015956388142518697
1783696374390686500,5.6436865234375,-0.023695932886004446,0.01090261188428849,0.003876987563818693
1783696374400649500,5.6536494140625,-0.030278233885765074,0.01035849507022649,0.0016522607190534472
1783696374410612200,5.6636123046875,-0.043747956311702724,-0.0032591113938018677,-0.01773074087128043
1783696374420576300,5.673576171875,-0.03536298980414867,-0.004704743624851107,-0.016697890692204235
1783696374430539300,5.683539306640625,-0.03520984506905079,-0.001812383184209466,-0.0017463687432929872
1783696374440502500,5.69350244140625,-0.021902619728446007,0.006049801558256149,-0.009185651898570358
1783696374450465500,5.703465576171875,-0.031924247527122494,0.012516878680512308,0.008662322144210338
1783696374460428500,5.713428466796875,-0.035808980005979534,-0.008949468522518872,0.000049720893241465086
1783696374470392600,5.723392578125,-0.004542904126644134,-0.002148117944598198,-0.010574548973701893
1783696374480355600,5.73335546875,-0.019209142860770224,0.006818082517012954,-0.00990801135636866
1783696374490318600,5.743318603515625,-0.046589317217469214,0.00681643854919821,0.0025688641073182226
1783696374500281300,5.75328125,-0.02968669773340225,0.005335881135240197,-0.007596921402402221
1783696374510244400,5.763244384765625,-0.03267652719914913,-0.01672963753733784,-0.0005494505763053894
1783696374520208400,5.77320849609375,-0.028192075261473656,-0.0015153729990124703,0.0015444894956424832
1783696374530171400,5.78317138671875,-0.03164133893251419,0.014880539071932434,-0.008368782557733356
1783696374540134400,5.793134521484375,-0.02385258475244045,0.0015228621857240796,0.012260383168794214
1783696374550097400,5.803097412109375,-0.03941664910912514,0.007998268744908273,0.009707739543914795
1783696374560060400,5.813060302734375,-0.02341127072572708,0.004309387631714344,-0.00545026476252824
1783696374570024400,5.8230244140625,-0.04360708653628826,0.0029143165441229938,-0.007189509645290673
1783696374579987200,5.8329873046875,-0.03717617670595646,0.001145516773313284,-0.008028810013644397
1783696374589950200,5.8429501953125,-0.01757423513531685,0.010195778789184987,-0.001616385688073933
1783696374599913200,5.852913330078125,-0.0251923089236021,0.004221197891607881,0.00013170008827000855
1783696374609877000,5.862876953125,-0.021445523610711097,-0.009553644960746168,-0.01628941948916763
1783696374619840300,5.87284033203125,-0.009919336467981339,0.006736249452456831,0.00223488291259855
1783696374629803300,5.88280322265625,-0.027570728492736816,0.0026477745624259113,0.02202774394545704
1783696374639766300,5.892766357421875,-0.03640402328968048,0.002971051700040698,-0.015882446123473344
1783696374649729300,5.902729248046875,-0.02637888835966587,0.0015574585750699043,-0.0007947305742651223
1783696374659693300,5.912693359375,-0.03715104226469993,0.0012816007757559418,0.016314773126132786
1783696374669656300,5.92265625,-0.02563771460354328,-0.011839344745129345,-0.01760861232895404
1783696374679619300,5.932619384765625,-0.028481413596868514,0.008469429920613765,-0.010338438662886619
1783696374689582000,5.94258203125,-0.024136077868938444,-0.026719116632081565,0.007327201082929969
1783696374699545000,5.952545166015625,-0.026833646389842033,0.0021919570863246918,-0.008165515070594846
1783696374709509000,5.962509033203125,-0.012612813335657119,-0.00025949118640273807,0.005232859152182937
1783696374719472000,5.97247216796875,-0.03310205913484096,-0.013784158669970929,0.0012438260486349463
1783696374729435100,5.98243505859375,-0.03863338977694511,-0.004301715781912207,-0.016895970547571776
1783696374739398100,5.992398193359375,-0.030544775867462157,0.002863645802810788,-0.007472125978954136
1783696374749361200,6.002361083984375,-0.03128945675492287,-0.003870338627323508,0.005891286528296768
1783696374759325200,6.0123251953125,-0.019926351219415665,0.013718071163818239,-0.00292772401496768
1783696374769288200,6.0222880859375,-0.024264672684669492,0.005468567604199052,0.006045746437646448
1783696374779251200,6.032251220703125,-0.03563479248285294,0.01288224139418453,0.00486563327498734
1783696374789214200,6.042214111328125,-0.020673954716324806,0.0030007892511785027,-0.00774900669157505
1783696374799178200,6.05217822265625,-0.02396072130203247,-0.007807093554362654,-0.0033750293910503387
1783696374809141200,6.062141357421875,-0.018125439277291298,-0.009558101940155028,-0.006564107755944132
1783696374819104300,6.072104248046875,-0.03369534885287285,0.012297317645698785,-0.01727309676427394
1783696374829067300,6.0820673828125,-0.03698445352613926,0.005276771359145641,-0.0021036942809820173
1783696374839030300,6.0920302734375,-0.040572248885035515,-0.005048442495986819,-0.01463018104005605
1783696374848994300,6.101994384765625,-0.014838088169693946,-0.0007552753467112779,-0.010729118480905889
1783696374858957300,6.111957275390625,-0.04011749085485935,0.004216558249108493,-0.007845197075046599
1783696374868920000,6.121920166015625,-0.03472410737872123,0.0017250702269375323,-0.014626527778245508
1783696374878883000,6.131883056640625,-0.025145547172427177,-0.0013174758067354558,-0.008918817655928432
1783696374888846000,6.14184619140625,-0.026639585122466086,-0.006694200409017503,0.0032552389362826943
1783696374898810000,6.15181005859375,-0.04295125297605991,-0.007878660953231155,0.007916033821552992
1783696374908773000,6.161773193359375,-0.02215221057534218,-0.002721241657435894,-0.004521934403851628
1783696374918736100,6.171736083984375,-0.0240945768147707,-0.007901566904783249,-0.007241385963000357
1783696374928699100,6.18169921875,-0.027993337818980217,-0.002383022679015994,-0.0016403145529329775
1783696374938662400,6.191662353515625,-0.011533785927295684,0.005544847710803151,-0.003414119292423129
1783696374948626200,6.201626220703125,-0.03367021441161632,0.002879427893832326,0.0021514789454638956
1783696374958589200,6.211589111328125,-0.032332828328013416,-0.010674904075637459,-0.013970292359218001
1783696374968552200,6.22155224609375,-0.01646831972002983,-0.0038238691370934244,-0.008623816764727234
1783696374978515200,6.23151513671875,-0.027536241701245308,-0.0031796529494225977,-0.0022672142796218396
1783696374988478200,6.241478271484375,-0.02694178293943405,-0.008399652620032429,-0.0065107701335102314
1783696374998442200,6.251442138671875,-0.01930734253823757,0.00889375627990812,0.003532192714139819
1783696375008405200,6.2614052734375,-0.042643794462084765,-0.01284991002716124,0.0012820391671732067
1783696375018368300,6.2713681640625,-0.022590017470717427,0.001435476163215935,-0.017378639497980474
1783696375028331300,6.281331298828125,-0.022888708156347273,0.021310170260630548,0.0007413564192131161
1783696375038294000,6.2912939453125,-0.03710077338218689,-0.00355360082834959,0.012657967651635408
1783696375048258300,6.30125830078125,-0.03680675887167453,0.001760105007700622,-0.009742993520386517
1783696375058221000,6.311220947265625,-0.03410919035077095,0.00560910858605057,0.005309869911149144
1783696375068184000,6.32118408203125,-0.038893502017855644,-0.009974025797285138,0.0026671733826398847
1783696375078147000,6.33114697265625,-0.024682021313905716,0.005161072557605803,-0.022524514486454424
1783696375088111000,6.341111083984375,-0.025130934125185012,0.0038518896551802753,0.008088029387593268
1783696375098074000,6.35107421875,-0.04084638965129852,-0.009733531572297215,-0.005912950370833277
1783696375108037000,6.361037109375,-0.022744915771484374,-0.007060878296941519,-0.009629961599968373
1783696375118000400,6.37100048828125,-0.024686697489023208,0.010726451599784194,-0.010913279408775269
1783696375127963400,6.38096337890625,-0.026634324425458905,-0.008794825950078666,-0.00406315778568387
1783696375137927200,6.39092724609375,-0.01511632058918476,0.005765468191541731,-0.011196699460037053
1783696375147890200,6.40089013671875,-0.01945464205443859,-0.00004336421769112348,0.006691570060513913
1783696375157853200,6.410853271484375,-0.04250584729611873,-0.009397431485727428,-0.009057203213311731
1783696375167816200,6.420816162109375,-0.02335632566809654,0.008710581732727587,-0.01059018493425101
1783696375177779200,6.430779296875,-0.03801379657387733,-0.0064876815188676116,0.0011394158260896801
1783696375187743200,6.4407431640625,-0.039514848786592484,-0.008326222057640551,-0.01578161609750241
1783696375197706200,6.450706298828125,-0.014679682737588882,0.0076581866029649965,-0.020698248907364904
1783696375207669200,6.460669189453125,-0.028593641799688336,-0.007273096275515854,0.009429397526569664
1783696375217632300,6.47063232421875,-0.025602058768272398,-0.003415032607875764,-0.00979972867630422
1783696375227595000,6.480594970703125,-0.01990823104083538,0.006847637405060231,-0.012331402578391134
1783696375237559000,6.49055908203125,-0.04593523722290992,-0.0053869537353515625,-0.0031952523773536084
1783696375247522000,6.50052197265625,-0.029478607940673827,0.00925162980686873,0.007273973058350384
1783696375257485000,6.510485107421875,-0.02185235084593296,0.002321246021799743,-0.0010902429221197963
1783696375267448000,6.520447998046875,-0.03547112635374069,-0.006983940603211522,-0.005247837525606155
1783696375277411300,6.530411376953125,-0.04565291315019131,-0.008703567470051347,-0.006818959299847483
1783696375287375000,6.540375,-0.023360417321324347,0.014854235586896539,-0.0015630115330219267
1783696375297338400,6.55033837890625,-0.040269466546177864,0.00500591852851212,0.0024257658421993253
1783696375307301400,6.56030126953125,-0.031893267866969104,0.0025787279142066833,-0.005798639808781445
1783696375317264100,6.57026416015625,-0.04236556204259395,0.0016011881189420818,0.01504720087572932
1783696375327228400,6.580228515625,-0.044156537112593645,-0.013015000928379594,-0.013440569396689533
1783696375337191200,6.590191162109375,-0.01752571981847286,-0.0005420709874480962,-0.007250555650144815
1783696375347154200,6.600154296875,-0.030092940446734426,0.009211078600771725,0.0040249446671456095
1783696375357117200,6.6101171875,-0.046402270212769506,-0.011057985109090805,-0.006593406915664672
1783696375367080200,6.620080078125,-0.02290682833492756,-0.011013232651911675,-0.014595438520237803
1783696375377044200,6.630044189453125,-0.025140286475419996,0.004216996640525758,0.0007348536131903529
1783696375387007200,6.64000732421875,-0.034710663375258445,-0.016962532977759837,0.00708816816266626
1783696375396970200,6.64997021484375,-0.026628479206562042,0.01273804715052247,-0.016184607407823202
1783696375406933200,6.659933349609375,-0.03620236323773861,0.003741195822320878,-0.002479139997251332
1783696375416896000,6.66989599609375,-0.039351182657480235,-0.0025801526863127944,-0.008733816477842628
1783696375426860000,6.679860107421875,-0.01601005455851555,0.00474533136356622,-0.009100384767912327
1783696375436823000,6.689822998046875,-0.022890461722016333,-0.002238499641790986,0.005252988624759018
1783696375446786000,6.6997861328125,-0.03366846084594726,0.006712284054979681,-0.0010710632976144551
1783696375456749300,6.709749267578125,-0.01930266636312008,0.001991283415071666,-0.01923895347714424
1783696375466712300,6.71971240234375,-0.037846038791537286,-0.010397986830398439,-0.0026633009251207113
1783696375476676400,6.72967626953125,-0.0371001888602972,0.0019504764806479215,-0.0032970687840133905
1783696375486639400,6.739639404296875,-0.016007716470956803,0.00578044656496495,-0.0059274903528392315
1783696375496602400,6.749602294921875,-0.027527473872900006,0.010458521378599107,-0.007687522295303642
1783696375506565000,6.759565185546875,-0.03321604090332985,0.006873539031296968,-0.01870638097040355
1783696375516528000,6.769528076171875,-0.030970892325043676,0.016124584316276013,-0.0044729441629722715
1783696375526492200,6.7794921875,-0.03350362567305565,0.0014974720161408184,0.0007425254629924892
1783696375536455200,6.789455078125,-0.025726561930775643,0.0020820669710636137,-0.01857858987227082
1783696375546418200,6.799418212890625,-0.026477088037133216,0.004050115641020239,0.0036219898894429203
1783696375556381200,6.809381103515625,-0.04233575142621994,-0.01718450516536832,0.0033502602759748696
1783696375566344200,6.81934423828125,-0.030366496691107747,-0.0034292437963187694,-0.017969335400126872
1783696375576309000,6.82930908203125,-0.013150573474168776,0.007183262567594647,-0.005853511801175773
1783696375586271700,6.839271728515625,-0.028258126235008237,-0.015651852237991988,-0.00336005101762712
1783696375596234800,6.84923486328125,-0.02766249842941761,-0.007324022745154798,-0.012780899911560117
1783696375606197800,6.85919775390625,-0.03334522024095058,0.00009984364528208971,0.006357588865794241
1783696375616160800,6.869160888671875,-0.03648234922289848,-0.010017864939011634,-0.0033956337876617907
1783696375626124800,6.879124755859375,-0.03484101175665855,-0.005108246391825378,-0.008904569934867322
1783696375636087800,6.889087890625,-0.036332711619138716,0.013068776942230761,0.005575973501428961
1783696375646050800,6.89905078125,-0.03348609001636505,-0.003738784669525921,-0.0011917305352166295
1783696375656014000,6.90901416015625,-0.027503508475422857,-0.014107143546640872,0.001647365348227322
1783696375665976800,6.918976806640625,-0.023309563916921613,-0.004837868485227227,0.005120740547217428
1783696375675940900,6.92894091796875,-0.02629997790455818,0.00912807649243623,-0.006527830866165459
1783696375685904000,6.93890380859375,-0.039625323423743246,-0.004709967789240181,-0.012852467310428618
1783696375695867000,6.948866943359375,-0.029745149922370907,-0.011865173306129873,0.01033014575857669
1783696375705830000,6.958829833984375,-0.04471124838590622,-0.001959134711138904,-0.004753332006931304
1783696375715793000,6.96879296875,-0.018828034588694573,0.0028055589400231835,-0.012687924398481844
1783696375725757000,6.9787568359375,-0.030341362249851227,0.0036841318728402257,0.0026568346517160534
1783696375735720000,6.988719970703125,-0.038570261412858964,-0.006954714508727192,-0.002452726914361119
1783696375745683000,6.998682861328125,-0.03124035691618919,0.001683934498950839,-0.010107990907877683
1783696375755645700,7.008645751953125,-0.033034839117527005,0.004615238710492849,0.01068699637223035
1783696375765608700,7.018608642578125,-0.028549218136072158,-0.005788337610475719,-0.01984046303424984
1783696375775572700,7.02857275390625,-0.024065350720286368,0.010361161951348185,-0.0017173983771353958
1783696375785535700,7.03853564453125,-0.03752513627409935,0.0064131184453144665,-0.004247209115698933
1783696375795498800,7.048498779296875,-0.030797873845696447,-0.0074577686600387095,-0.0000738689538091421
1783696375805461800,7.058461669921875,-0.025258944419026375,0.010239873659238218,0.004781535188108682
1783696375815425000,7.068425048828125,-0.030637714847922323,-0.00011865794360637664,0.00010539660323411226
1783696375825388800,7.078388916015625,-0.04560673592090606,-0.014545242702960967,-0.00016373919434845447
1783696375835352000,7.08835205078125,-0.022712767067551612,-0.012440488976053894,0.015861951324716208
1783696375845315000,7.098315185546875,-0.03991524628102779,-0.009743870303221047,-0.001374028299562633
1783696375855277800,7.10827783203125,-0.03587327741384506,-0.014449746439233422,-0.01945519004371017
1783696375865240800,7.11824072265625,-0.03512450487315655,0.00780760501101613,-0.0019033494032919406
1783696375875204900,7.128204833984375,-0.05008768072724342,-0.005779021792858839,-0.0013636165034025907
1783696375885167900,7.13816796875,-0.028236498925089833,0.005919489709474146,-0.017921952594444155
1783696375895131000,7.148130859375,-0.043942017579078674,0.009552402851730585,-0.0043570261657238
1783696375905094000,7.158093994140625,-0.041699207088351245,-0.01069320691730827,0.006922383141703904
1783696375915057000,7.168056884765625,-0.035417350339889526,-0.0026238456975668668,-0.003596051730588078
1783696375925021000,7.17802099609375,-0.03450900332331657,0.000816175221092999,0.007679923510737717
1783696375934984000,7.18798388671875,-0.03974222780168056,-0.00761358027625829,-0.0031523996163159607
1783696375944946700,7.19794677734375,-0.012214169406890869,0.0023366627866402267,0.0004991451611742377
1783696375954909700,7.20790966796875,-0.03420972811579704,0.009666165424510835,-0.004022350851260126
1783696375964873000,7.217873046875,-0.024181670576333997,-0.022060988627932966,-0.01425700034610927
1783696375974836700,7.227836669921875,-0.007421089911460876,0.003895253872871399,-0.01179473841842264
1783696375984799700,7.2377998046875,-0.024471593433618544,0.0011071940569207072,0.0029020415844395755
1783696375994763000,7.247762939453125,-0.0285123932570219,-0.015473207735456525,-0.011177958226948975
1783696376004726000,7.25772607421875,-0.027016017219424246,0.005239909947477281,-0.00508179677631706
1783696376014689000,7.26768896484375,-0.03778115686178207,-0.0057748936070129275,0.002129303646273911
1783696376024653000,7.277653076171875,-0.02491173841655254,-0.018942673944309353,-0.007912088298797608
1783696376034615800,7.28761572265625,-0.032092005309462546,0.01584467139635235,-0.0050386152217164635
1783696376044578800,7.297578857421875,-0.04166296673119068,-0.00272222803812474,0.0036410599160939454
1783696376054541800,7.307541748046875,-0.02655015327334404,-0.012009659810736775,-0.009805427764728664
1783696376064504800,7.3175048828125,-0.017872925820946694,0.004250789312273263,-0.012084734340943395
1783696376074468900,7.32746875,-0.04360767105817794,0.017272110383585094,0.0011576456025242806
1783696376084432000,7.337431884765625,-0.044807109975814816,0.0035531989695504304,-0.013202778585441409
1783696376094395000,7.347394775390625,-0.016974515676498412,0.006489069758355617,-0.009534721064567566
1783696376104358000,7.35735791015625,-0.03702127840518951,-0.0023282602844759822,0.004219955782592297
1783696376114320600,7.367320556640625,-0.030285832670331,-0.01255341129861772,-0.004890511987917125
1783696376124284700,7.37728466796875,-0.009933364993333816,-0.004412628810480237,-0.0015210720874369143
1783696376134247700,7.38724755859375,-0.0450952792674303,0.001573423329181969,0.005575681240484118
1783696376144210700,7.397210693359375,-0.03148468706607818,-0.0024319033220410345,-0.016889394676312803
1783696376154174000,7.407174072265625,-0.02683890708684921,0.009258315275982022,-0.0007560425316914916
1783696376164137000,7.417136962890625,-0.04209551292955875,0.004457819659076631,-0.006005743220821023
1783696376174101000,7.42710107421875,-0.011271335598826407,0.00500098662506789,-0.011890453877858817
1783696376184064000,7.43706396484375,-0.009921090033650397,-0.007160539279133081,-0.00804557848535478
1783696376194027000,7.447027099609375,-0.03789630767405033,-0.0029890257481485602,-0.01645472958609462
1783696376203989800,7.45698974609375,-0.02323474511504173,-0.005954889816418289,-0.0041308527270331975
1783696376213952800,7.466952880859375,-0.03265957606434822,0.002539711078070104,-0.0007192176526412367
1783696376223916800,7.476916748046875,-0.03775076172351837,-0.01315126759391278,-0.0030327187594026326
1783696376233879800,7.4868798828125,-0.02189502094388008,-0.004796148235350847,-0.018089564246311782
1783696376243842800,7.4968427734375,-0.02623158884346485,0.0049157925596460695,-0.003647781917825341
1783696376253805800,7.506805908203125,-0.04074468284249305,-0.0031481983652338385,-0.003868658126890659
1783696376263768800,7.516768798828125,-0.012167407655715941,0.0023806115262210367,-0.015868892522156237
1783696376273732900,7.52673291015625,-0.023537527453899382,-0.00010725976675748824,-0.0025500498089939356
1783696376283695900,7.53669580078125,-0.03910159181058406,-0.023374190118350086,-0.0047000674497336145
1783696376293659000,7.546658935546875,-0.018163433200120926,0.001374028299562633,-0.007749700811319053
1783696376303622000,7.556621826171875,-0.028482582640647885,0.000699709234572947,0.00744852590765804
1783696376313585000,7.5665849609375,-0.03895896846950054,-0.014098119989968835,-0.021694456870481372
1783696376323548700,7.576548583984375,-0.01965805567204952,0.0003978036785498261,-0.0102404216485098
1783696376333512000,7.586511962890625,-0.03401858945786953,-0.011001469148881733,0.01105849656574428
1783696376343475000,7.596474853515625,-0.03447217844426632,-0.006761383893713354,-0.018196349089033902
1783696376353438000,7.60643798828125,-0.01966506993472576,-0.0022225348876789212,0.003197955791093409
1783696376363401000,7.61640087890625,-0.03253799551129341,-0.004042407258599996,0.004942424838244914
1783696376373365000,7.626364990234375,-0.030454759496450424,-0.003107391430810094,-0.007389160403236747
1783696376383328000,7.636327880859375,-0.028211364483833313,0.007114362049847841,0.0005129179581999778
1783696376393290800,7.646290771484375,-0.04093114532530308,-0.011144311685673891,-0.0007175371522083878
1783696376403253800,7.656253662109375,-0.02582768421769142,-0.012108334412239491,-0.012814181126654148
1783696376413216800,7.666216796875,-0.015955694022774695,-0.007580079865455627,-0.0013811521600931881
1783696376423180800,7.676180908203125,-0.034956747090816497,-0.005184270770102739,-0.004157083146832883
1783696376433143800,7.686143798828125,-0.012214169406890869,-0.0032987127518281337,-0.012691577660292386
1783696376443106800,7.69610693359375,-0.019549334600567816,0.002368373099155724,-0.005992372282594442
1783696376453069800,7.70606982421875,-0.03555588202774525,-0.011441869860142468,0.0017128317998722194
1783696376463033000,7.716033203125,-0.026880992662906646,0.008082001505605877,0.003383431893214583
1783696376472996900,7.725996826171875,-0.02942132479548454,0.008300868420675397,0.003991736517287791
1783696376482960000,7.7359599609375,-0.019838672935962677,-0.006703625824488699,-0.0021206454157829285
1783696376492923000,7.7459228515625,-0.017896306696534157,-0.0011575725372880697,-0.004432466022111475
1783696376502886000,7.755885986328125,-0.016092472144961355,-0.0018282383404672146,-0.005171703549474478
1783696376512849000,7.765848876953125,-0.03314940540790558,-0.009601904549263417,-0.01302617990951985
1783696376522813000,7.77581298828125,-0.02073825212419033,0.010035948584973812,-0.011615801654942333
1783696376532776000,7.78577587890625,-0.013857260438799857,0.015000621787644922,-0.012469532407447696
1783696376542739000,7.795739013671875,-0.0369043740272522,0.0004160699876025319,-0.008909721034020185
1783696376552702000,7.805701904296875,-0.01715454841852188,0.0004129647150635719,0.0044882147973403334
1783696376562664700,7.815664794921875,-0.03136602912247181,-0.003639196752570569,-0.005953501576930284
1783696376572628500,7.82562841796875,-0.03286240516006946,-0.004898256902955472,-0.00906016235537827
1783696376582591500,7.835591552734375,-0.02628127320408821,-0.00579421936199069,-0.01511854907888919
1783696376592554500,7.845554443359375,-0.025831191349029538,-0.009787015325203537,0.015015819356776773
1783696376602517500,7.855517578125,-0.041992052555084224,-0.006515628971718252,-0.012186002758331597
1783696376612480800,7.865480712890625,-0.021195932763814925,0.004549772258847951,-0.014178236021474003
1783696376622444500,7.875444580078125,-0.024940379989147186,-0.003398154538311064,0.009235884248465298
1783696376632407600,7.885407470703125,-0.023751462465524672,-0.007342252521589398,0.0006694967593997717
1783696376642370600,7.89537060546875,-0.011633739170432091,0.004454239462502301,-0.0036882235260680316
1783696376652333600,7.90533349609375,-0.03377835096120834,-0.0033622429747134446,-0.0035458559133112427
1783696376662296600,7.915296630859375,-0.02496317634284496,-0.006541859391517937,-0.006007314123399555
1783696376672260600,7.925260498046875,-0.014191606959700584,0.007811148674972355,-0.008459456515870987
1783696376682223600,7.9352236328125,-0.029151860204339027,-0.005634389157779514,-0.0097921664243564
1783696376692186600,7.9451865234375,-0.02571311792731285,-0.002133833690918982,-0.015472732811421155
1783696376702149600,7.955149658203125,-0.02661094354987144,-0.005730652606487274,-0.006933415992371738
1783696376712112600,7.965112548828125,-0.03753507314622402,0.0009343582406640053,0.0016499226314947008
1783696376722076700,7.97507666015625,-0.01688566834926605,0.006557385754212736,-0.016053163047879935
1783696376732039400,7.985039306640625,-0.029297406154870986,0.0005543824797496199,-0.010968041803315282
1783696376742002400,7.99500244140625,-0.03677811729907989,-0.006447934030368924,-0.0023809768524020907
1783696376751965400,8.00496533203125,-0.020325579670071602,0.004401632492430508,-0.01856602265164256
1783696376761928400,8.014928466796874,-0.021820202142000197,0.01202346914038062,-0.0009355638170614838
1783696376771891700,8.0248916015625,-0.037675942921638485,0.001060943762399256,-0.01064797953609377
1783696376781855500,8.03485546875,-0.006261983004212379,-0.002234152260236442,-0.008152217197604478
1783696376791818500,8.044818603515624,-0.015239070186018944,-0.005096117562614381,-0.0012757190242409706
1783696376801781800,8.05478173828125,-0.03469312771856785,-0.01340779963824898,-0.007629289302043617
1783696376811744500,8.06474462890625,-0.03485153315067291,0.009888466405682266,-0.009148900084756315
1783696376821707500,8.07470751953125,-0.034843934366106985,0.0025419761003926396,0.008157477894611655
1783696376831671600,8.084671630859376,-0.03993453550338745,-0.01925740244928747,-0.0023095921166241167
1783696376841634600,8.094634521484375,-0.020633038184046743,0.002243358479999006,-0.01849971594978124
1783696376851597600,8.10459765625,-0.030955694755911825,-0.0053928354868665335,0.011817205978557467
1783696376861560600,8.114560546875,-0.030507366466522214,-0.007311017133109271,-0.006753529380820691
1783696376871523600,8.124523681640625,-0.016890344524383545,-0.007712035682052374,-0.003032937955111265
1783696376881487600,8.134487548828124,-0.042775896409153934,-0.0008887290006503462,-0.0045454979425296185
1783696376891450600,8.14445068359375,-0.03155424517095089,-0.005827281381376087,-0.01229059564396739
1783696376901413600,8.15441357421875,-0.025727146452665328,-0.0038799832385033365,-0.01044734239745885
1783696376911376400,8.16437646484375,-0.028267478585243224,0.007591003118269145,-0.000816978938691318
1783696376921339400,8.17433935546875,-0.03814414495527744,-0.00465304997023195,-0.01459737474899739
1783696376931303400,8.184303466796875,-0.008216624203324318,-0.00012084990069270134,-0.012958594566024838
1783696376941266400,8.194266357421874,-0.02497194417119026,0.005413951340131461,0.003378974913805723
1783696376951229700,8.204229736328125,-0.03784136261641979,-0.003327938846312463,0.0008951222088187932
1783696376961192700,8.214192626953125,-0.027218261793255805,-0.003055661243572831,-0.0005255217114463448
1783696376971155700,8.22415576171875,-0.03663783204555511,-0.0078755922133103,0.010211414749734103
1783696376981119700,8.23411962890625,-0.02496317634284496,-0.015177841518074274,-0.00004329115245491266
1783696376991082800,8.244082763671875,-0.01837503012418747,0.0056846945729106665,0.00789016872793436
1783696377001045500,8.25404541015625,-0.03976853128671646,0.0028183088237419725,-0.003289689195156097
1783696377011008500,8.264008544921875,-0.03722703011035919,0.005802293070591985,-0.0126302393944934
1783696377020971500,8.273971435546875,-0.03213467540740966,0.007484693199582397,-0.0006380056425929069
1783696377030935600,8.283935546875,-0.03317804698050022,0.0008936609040945768,0.010759769347496331
1783696377040898600,8.293898681640625,-0.03363163596689701,0.0032860724659636614,-0.0063073565158993
1783696377050861600,8.303861572265625,-0.039466333469748496,-0.006120528706908226,0.005154350555874407
1783696377060824600,8.313824462890626,-0.04425707487761974,-0.017736184231378137,-0.015204108470492065
1783696377070787600,8.32378759765625,-0.03258534178435802,-0.0016672025598585606,-0.020912366582080722
1783696377080751600,8.333751708984375,-0.024499065962433814,0.007985518861189485,0.003108998866006732
1783696377090714400,8.34371435546875,-0.05143325011730194,-0.012799166220612824,-0.016073146389983594
1783696377100677400,8.353677490234375,-0.02046469587981701,-0.010414061182364822,-0.016922347097843883
1783696377110640600,8.363640625,-0.04993219790458679,0.0002323109185323119,0.0058074441697448485
1783696377120603600,8.373603759765626,-0.033318332234025,-0.005791917807050049,-0.0027791093245148656
1783696377130567400,8.3835673828125,-0.02254676285088062,0.011816475326195359,-0.016862871995568275
1783696377140530700,8.39353076171875,-0.04110299476087093,0.0006253653567284346,0.009761296362057328
1783696377150493700,8.40349365234375,-0.03871346927583218,-0.016807671209611,-0.006661101857014
1783696377160456700,8.413456787109375,-0.023004443490505216,-0.001435549228452146,-0.0006871420139446854
1783696377170419500,8.42341943359375,-0.031232758131623267,-0.010096044741757213,0.006420899892970919
1783696377180383700,8.4333837890625,-0.036327450922131535,0.010643412958830594,-0.004855659870244562
1783696377190346500,8.443346435546875,-0.022715689677000044,0.005142075596190988,0.002567220139503479
1783696377200309500,8.4533095703125,-0.031983284237980844,-0.007956950353831052,0.008381349778361618
1783696377210272500,8.4632724609375,-0.028691841477155682,-0.00423584747146815,-0.00010784428864717483
1783696377220235500,8.473235595703125,-0.021958149307966232,0.00406984325479716,-0.004201981734484434
1783696377230199600,8.483199462890624,-0.03572013267874718,0.001945361914113164,0.005889569495245814
1783696377240162600,8.49316259765625,-0.029442952105402945,-0.01038509081620723,-0.017814035240560768
1783696377250125600,8.50312548828125,-0.01911737292408943,0.00813029762674123,0.0030249738443642853
1783696377260088600,8.513088623046874,-0.028840894559025762,0.0006095102004706859,0.007926737878657877
1783696377270051600,8.523051513671875,-0.0334837519288063,-0.01076948702391237,0.0002812646267935633
1783696377280015400,8.533015380859375,-0.030194062733650207,0.003755480076000094,0.0027303382793441413
1783696377289978600,8.542978515625,-0.031987960413098336,0.0012469313211739062,0.0023366993192583323
1783696377299941600,8.552941650390625,-0.03154138568937778,0.0022813524028286337,-0.0074585723776370285
1783696377309904600,8.562904541015625,-0.03049450698494911,0.004378434279933572,-0.00728745359443128
1783696377319867600,8.57286767578125,-0.04455985721647739,-0.008752959569729863,0.0019100714050233362
1783696377329831700,8.582831787109376,-0.03288987768888473,-0.005820595912262797,-0.023236206419765947
1783696377339794700,8.592794677734375,-0.021514497193694113,-0.0033240663887932893,-0.00663936494924128
1783696377349757700,8.6027578125,-0.03183072402477264,-0.001905797088705003,-0.008589622234180569
1783696377359720400,8.612720458984375,-0.031081951484084127,-0.005698942293971777,-0.00779072694145143
1783696377369683500,8.622683349609375,-0.027479543077945708,-0.0060157166255638,0.001684738216549158
1783696377379647500,8.6326474609375,-0.03645487669408321,-0.011947006370685994,-0.013882979401946067
1783696377389610500,8.642610595703125,-0.020001754543185233,0.004145429241657257,-0.016784765258058904
1783696377399573500,8.652573486328125,-0.018656185153126715,-0.0030147812439128754,0.006406506041437387
1783696377409536500,8.66253662109375,-0.04544190074801445,-0.004939940620213747,-0.015742708859220148
1783696377419499500,8.67249951171875,-0.017767711880803106,0.011153444840200245,-0.0018259367855265735
1783696377429463600,8.682463623046875,-0.039762686067819596,0.0028238617816939947,-0.0020982874535024165
1783696377439426600,8.692426513671874,-0.037222353935241696,-0.010022723777219652,-0.010851027827523648
1783696377449389600,8.7023896484375,-0.02211421665251255,-0.0004437251795083284,-0.0054732437793165445
1783696377459352600,8.7123525390625,-0.04066401882171631,-0.004088401824794709,-0.008395560966804622
1783696377469315600,8.722315673828126,-0.030041502520442007,-0.008749927362427115,-0.009502462762780488
1783696377479279600,8.732279541015625,-0.020621932268142698,-0.013464973185583949,-0.001601553445123136
1783696377489242600,8.74224267578125,-0.0258504805713892,0.00470901794116944,-0.01776172053143382
1783696377499205600,8.75220556640625,-0.024349428358674048,-0.010322729637101293,-0.02274765571784228
1783696377509168600,8.762168701171875,-0.01582008494436741,0.01251249476633966,-0.0029004341492429374
1783696377519131600,8.772131591796875,-0.0367646732956171,-0.013056428917311132,0.0002237257532775402
1783696377529095700,8.782095703125,-0.03183072402477264,-0.009704743869230151,-0.016648863918706774
1783696377539058700,8.79205859375,-0.020609657308459282,-0.0025345965115353463,-0.0004208557605743408
1783696377549021400,8.802021484375,-0.033172201761603355,-0.0029042335415259,-0.00024064035546034573
1783696377558984400,8.811984375,-0.041108255457878114,-0.005895962703414261,-0.008904533402249216
1783696377568947500,8.821947509765625,-0.03242868991792202,0.000023307810351252554,0.00851732418294996
1783696377578911700,8.831911865234375,-0.040056700578331945,-0.0029344460166990756,0.0064347457552328706
1783696377588874500,8.84187451171875,-0.024645780956745147,-0.008507716104388236,0.0012845964504405855
1783696377598837500,8.85183740234375,-0.03242868991792202,0.0069048109523952,-0.0014994813101366162
1783696377608800800,8.86180078125,-0.03212649210095406,-0.009031959174200892,0.00593760988805443
1783696377618763800,8.871763671875,-0.017612813580036163,-0.011873027819022535,-0.00689724870044738
1783696377628727600,8.8817275390625,-0.022996844705939292,0.002571129129640758,-0.006883110577240586
1783696377638690800,8.89169091796875,-0.030178280642628667,-0.00766373956091702,-0.01243486295286566
1783696377648653800,8.90165380859375,-0.03676350425183773,-0.0005169365461915732,-0.011591105605103074
1783696377658616800,8.911616943359375,-0.024491467177867886,0.005730396878160536,-0.009208521317504346
1783696377668579600,8.92157958984375,-0.03511164539158344,0.006149279877357185,-0.0025538857338950035
1783696377678544000,8.9315439453125,-0.020893150424957273,0.0007930866064503789,-0.01369290018994361
1783696377688506600,8.941506591796875,-0.03346037105321884,0.006569660713896155,0.0038267552139237522
1783696377698469600,8.9514697265625,-0.03795300629734993,0.006145699680782854,0.005695069836452603
1783696377708432600,8.9614326171875,-0.037357963013648986,0.0004504471812397241,-0.0058702437402680515
1783696377718395600,8.971395751953125,-0.03690495854914188,-0.004558284358866512,-0.003046089697629213
1783696377728359700,8.981359619140624,-0.03840601076185703,-0.018122991591878235,-0.010766089490428567
1783696377738322700,8.99132275390625,-0.027490064471960066,-0.00040441608242690563,-0.018695567315444347
1783696377748285700,9.00128564453125,-0.034064182165265085,-0.013352270058728754,-0.011700338133238255
1783696377758248700,9.011248779296874,-0.021796236744523047,0.005959529458917677,-0.004619038102775812
1783696377768211700,9.021211669921875,-0.02239829429090023,0.007890935912914574,0.0023961378889158368
1783696377778175500,9.031175537109375,-0.031069092002511022,0.00046443917397409677,0.0019855843266472217
1783696377788138800,9.041138671875,-0.025987843215465545,-0.005425934038870036,-0.02684336406625807
1783696377798101800,9.051101806640625,-0.038113165295124055,-0.003163359401747584,-0.006973565339669585
1783696377808064800,9.061064697265625,-0.0378103829562664,-0.006426050992123782,0.001565788011997938
1783696377818028800,9.07102880859375,-0.043650341156125066,-0.009647570321895182,-0.002145743324421346
1783696377827991800,9.08099169921875,-0.031080782440304756,0.003932553675957024,-0.005390387801453471
1783696377837954800,9.090954833984375,-0.01776245118379593,-0.010125818825513123,-0.0034699411328881977
1783696377847917800,9.100917724609374,-0.03168225546479225,-0.004340294226631522,0.004032433853857219
1783696377857880600,9.110880615234375,-0.025698504880070683,0.00428235349431634,-0.001970934746786952
1783696377867844600,9.1208447265625,-0.04455108938813209,-0.001542261005938053,-0.009228358529135585
1783696377877807600,9.1308076171875,-0.02375847672820091,-0.004754172257147729,-0.015421989004872738
1783696377887770600,9.1407705078125,-0.02555062084197998,0.011459405516833067,0.004971723997965455
1783696377897733600,9.150733642578125,-0.03541618129611015,-0.01121416205149144,-0.00271689427588135
1783696377907696600,9.160696533203126,-0.022547931894659996,-0.007061426286213099,-0.008638539409823716
1783696377917660700,9.17066064453125,-0.021201777982711792,0.009370799207128584,0.011317841621674596
1783696377927623700,9.180623779296875,-0.04724164364635944,-0.0066747650561854235,0.0037585122833028433
1783696377937586700,9.190586669921874,-0.04230944794118404,-0.003026033290289342,-0.012596410190127789
1783696377947549700,9.2005498046875,-0.030336101552844046,-0.006069309976324439,0.0037079146072268483
1783696377957512700,9.2105126953125,-0.033925650477409364,-0.01008366018421948,0.0001793751548975706
1783696377967476500,9.2204765625,-0.013579028019309044,0.001006765889748931,-0.0007716054270043969
1783696377977439700,9.230439697265625,-0.0415530766159296,0.004358706666156649,-0.0043223201785236596
1783696377987402800,9.24040283203125,-0.0414005164027214,-0.008656951849348843,-0.009214330003783106
1783696377997365800,9.25036572265625,-0.01132218900322914,0.010287439128011465,-0.023680844914726912
1783696378007328800,9.260328857421875,-0.03346329366266727,0.004437434458173811,0.0013187909809872507
1783696378017292800,9.270292724609375,-0.04333411481380462,-0.02265387648716569,0.00493091706354171
1783696378027255800,9.280255859375,-0.019842764589190483,0.003527845332585275,-0.022396321529522537
1783696378037218800,9.29021875,-0.048121933612227434,-0.013294511989504099,-0.0009848097862675785
1783696378047181600,9.300181640625,-0.051262569725513456,-0.01365603877827525,-0.005136778366565704
1783696378057144600,9.31014453125,-0.03135843033790588,0.013187434885837138,-0.00973188760448247
1783696378075203600,9.32820361328125,-0.04182955546975135,0.00948269861638546,-0.005831519165076315
1783696378085166600,9.33816650390625,-0.014600772282481193,-0.004314977122284472,-0.013280848790332674
1783696378095130600,9.348130615234375,-0.02701075652241707,0.0053720484271645545,-0.011558774238079786
1783696378105093600,9.35809375,-0.037783494949340815,-0.014530118199065327,-0.001582556483708322
1783696378115056600,9.368056640625,-0.026267244678735733,-0.02299940198920667,0.002465148004516959
1783696378125020000,9.37802001953125,-0.02087503024637699,0.013644092612154782,-0.009037037208117544
1783696378134982700,9.387982666015626,-0.022374913415312767,-0.0048659986011683936,-0.015286745252646505
1783696378144946700,9.39794677734375,-0.025968553993105888,0.00017477204501628875,-0.011559431825205684
1783696378154909700,9.40790966796875,-0.03194353674948215,0.0021215221986174582,0.004499686039425433
1783696378164872700,9.417872802734376,-0.03194412127137184,-0.002643390648253262,-0.0010626973280683158
1783696378174835700,9.427835693359375,-0.01937222446799278,-0.005139956704340875,-0.021785459622181952
1783696378184798700,9.437798828125,-0.027755437409877775,0.005539806209504604,-0.00814461841303855
1783696378194762800,9.4477626953125,-0.03764379421770572,-0.01729706216175109,-0.0031257673377171158
1783696378204725800,9.457725830078125,-0.02058569191098213,0.0023104688994586464,-0.020330913432314992
1783696378214688800,9.467688720703125,-0.021336802539229392,0.004607932186871767,0.004375219409540295
1783696378224651800,9.47765185546875,-0.02732639834284782,-0.013628712379932403,0.00043071956746280193
1783696378234614500,9.487614501953125,-0.032116555228829384,-0.000020129472576081752,-0.009982793625630438
1783696378244578600,9.49757861328125,-0.023885902500152587,0.0005169000135734677,0.0058878524621948595
1783696378254541600,9.50754150390625,-0.037514030358195304,-0.010873678050749003,0.009776347800716758
1783696378264504600,9.517504638671875,-0.02539338445365429,0.0011056596869602798,-0.02359280130509287
1783696378274467600,9.527467529296874,-0.033168694630265234,-0.008385843290388583,-0.003774111711233854
1783696378284430800,9.537430908203126,-0.038860184270143504,-0.009014021658711135,0.00045523295421153305
1783696378294394600,9.54739453125,-0.017159224593639374,0.0011204188646748662,0.002047945505753159
1783696378304358000,9.55735791015625,-0.027032968354225157,-0.0011074132526293396,0.00031739538609981536
1783696378314321000,9.56732080078125,-0.028237083446979522,-0.013473193024657666,-0.006578318944387138
1783696378324283600,9.57728369140625,-0.016557167047262192,0.004555032955855131,0.00046699645724147554
1783696378334247700,9.58724755859375,-0.029274025279283522,-0.007977737413533031,0.0002043634656816721
1783696378344210700,9.597210693359376,-0.04513327319025993,-0.0028585312362760305,-0.005247435666806996
1783696378354173700,9.607173583984375,-0.034200960287451745,-0.007143843872658908,-0.010916823072731494
1783696378364136700,9.61713671875,-0.038842064091563225,-0.005866773141548037,0.00012592793460935355
1783696378374099700,9.627099609375,-0.031660628154873846,0.0009610270518809556,-0.010688603807426988
1783696378384685800,9.637685791015626,-0.018186814075708387,0.0013688406677916645,0.004437397925555706
1783696378394648800,9.64764892578125,-0.05081131882667541,-0.005168671342171728,-0.0007630567943677306
1783696378404611600,9.657611572265624,-0.0283773687005043,-0.009250862621888518,-0.010293247814290226
1783696378414575600,9.66757568359375,-0.01744505579769611,0.010277794516831636,-0.008800817299447953
1783696378424538600,9.67753857421875,-0.024928105029463767,-0.0021495792493224143,0.001871967884339392
1783696378434501600,9.687501708984374,-0.020443068569898606,-0.008567446934990584,-0.018391798595897853
1783696378444464600,9.697464599609376,-0.03270692233741283,-0.007134637652896344,-0.004264269848354161
1783696378454427600,9.707427734375,-0.03809913676977157,-0.004884155312366784,0.007096570664830506
1783696378464391700,9.7173916015625,-0.02702712313532829,-0.00012377251014113424,-0.013625132183358072
1783696378474354700,9.727354736328126,-0.020596797826886174,0.006026274552196264,-0.004752053365297615
1783696378484317700,9.737317626953125,-0.03780862939059734,-0.010769267828203737,-0.002215264896675944
1783696378494280700,9.74728076171875,-0.03287000394463539,-0.013827047963626682,-0.005128229733929038
1783696378504243700,9.75724365234375,-0.031821956196427345,0.0018353622009977697,-0.003261449481360614
1783696378514207500,9.76720751953125,-0.07829378451406956,0.005769121453352272,-0.0021177228063344955
1783696378524170800,9.777170654296874,-0.055419689404964445,0.09966204163748771,-0.0976380615292117
1783696378534133800,9.7871337890625,0.11948445755839347,0.054289114472456275,-0.02892539450470358
1783696378544096800,9.7970966796875,0.10145429534912109,-0.09781144533473998,0.08845719540361315
1783696378554059800,9.807059814453124,-0.1425228033185005,-0.09520849629472941,0.05519771721735596
1783696378564023800,9.81702392578125,-0.28795944825708863,0.005346292931400239,-0.028073563448339698
1783696378573986800,9.82698681640625,-0.08654898716211318,-0.0012372501773759723,-0.061928523309715086
1783696378583949000,9.836948974609374,0.17777239587604998,-0.009424209894798696,0.04907433896623552
1783696378593912000,9.846912109375,0.08482990828454494,-0.03298248787578195,0.046805371120944614
1783696378603875000,9.856875,-0.12186813782453536,0.022762195699848234,-0.017726722283288837
1783696378613839000,9.866839111328124,-0.13741583556830883,0.05714921661131084,-0.06344290992803871
