time,seconds_elapsed,z,y,x
1783696326077025000,0.06502490234375,-0.11020049638450145,-0.00047609307914972304,-0.013524959744513034
1783696326086988800,0.07498876953125,-0.19396949743926523,0.02200567824412137,-0.04503288155570626
1783696326096952000,0.0849521484375,0.03496551491916179,0.027951982895284888,0.009125957600586116
1783696326106915000,0.0949150390625,0.125613754093647,-0.05426708530373871,0.04253814213052392
1783696326116879000,0.104879150390625,-0.05439969870746136,0.01436933814678341,-0.02808057771101594
1783696326126842000,0.114842041015625,-0.1965413937538862,0.017492073277197775,-0.0485321583809331
1783696326136805000,0.12480517578125,-0.02744680985212326,-0.007348061207868159,-0.016238748747855424
1783696326146769200,0.13476904296875,0.09689794721901417,-0.012595095015875994,0.030304098979383704
1783696326156732200,0.144732177734375,-0.008904606467485428,-0.022136209288612006,-0.0021153116535395384
1783696326166695000,0.15469482421875,-0.12802666045427322,0.015182846486754715,-0.03885985547658056
1783696326176659000,0.164658935546875,-0.03868015152812004,0.002808335418999195,0.00010978051740676164
1783696326186622000,0.1746220703125,0.03405424529314041,-0.01979446846805513,0.019579218282178044
1783696326196585000,0.1845849609375,-0.029398528441786764,0.006468246166035533,-0.0064723743518814445
1783696326206548000,0.1945478515625,-0.07475216638445854,0.020900420415960252,-0.012910554173216224
1783696326216512000,0.204511962890625,-0.03869184196591377,-0.005254778723046184,0.009849705297872423
1783696326226475000,0.21447509765625,-0.0063648588567972175,-0.007498721724934876,0.004026661700196564
1783696326236438000,0.22443798828125,-0.04735445637106895,-0.00002659574598073959,0.00527494472824037
1783696326246402000,0.234402099609375,-0.05514437959492206,0.0028025997979566454,-0.012880670491605996
1783696326256365000,0.244364990234375,-0.007113046875596046,-0.00962265507634729,-0.012803988526202738
1783696326266328000,0.254328125,-0.006201192727684974,-0.011761164942383766,-0.006008848493359983
1783696326276292000,0.2642919921875,-0.06724865888655185,-0.0011787979884073138,-0.012819186095334589
1783696326286254800,0.2742548828125,-0.04330138158798218,0.019642894635535774,-0.01645783485863358
1783696326296217900,0.2842177734375,-0.007830839756131172,-0.0064229457195848225,0.003304667568579316
1783696326306180900,0.294180908203125,-0.012168576699495314,-0.008758585592918098,0.012112353000231087
1783696326316145000,0.304144775390625,-0.05092003989815712,0.007274922906421124,-0.008357567043974995
1783696326326108000,0.31410791015625,-0.04717033197581768,0.0006002309154719114,-0.0031585736287757754
1783696326336071000,0.32407080078125,-0.0027244565278291702,0.001373224581964314,-0.0015977175202220677
1783696326346035000,0.334034912109375,-0.015445990934967993,-0.004346906630508601,-0.010252477412484586
1783696326355998000,0.343998046875,-0.06317980201244354,-0.011597498813271523,-0.002597323016822338
1783696326365961000,0.3539609375,-0.04358136757314205,0.0025859248399734496,-0.021783048469386994
1783696326375925000,0.363925048828125,-0.017388357174396515,-0.0025653204433619976,-0.02063428029306233
1783696326385887700,0.3738876953125,-0.020827683973312378,-0.002401325520686805,0.0026222747949883342
1783696326395851000,0.38385107421875,-0.04447393249869346,0.01024210214894265,-0.009503193415142596
1783696326405814800,0.393814697265625,-0.029956162324547765,0.002053498463705182,-0.014131876129098235
1783696326415778000,0.403778076171875,-0.03458382212519646,-0.005038761352188885,0.0025884090580046175
1783696326425741000,0.413740966796875,-0.02994038023352623,-0.013332505912333726,-0.005637384832464158
1783696326435704000,0.4237041015625,-0.024251228681206702,0.011706073754280805,-0.004732289218902588
1783696326445668000,0.433668212890625,-0.028593641799688336,0.0036348493710160255,-0.0006868497529998422
1783696326455631000,0.443631103515625,-0.028450433936715123,0.0013692790592089294,-0.004515796924009919
1783696326465594000,0.453593994140625,-0.009444120171666145,0.003568506136536598,0.0013135302839800715
1783696326475558100,0.46355810546875,-0.027846622824668883,-0.007608100383542478,-0.0025590368330478666
1783696326485521200,0.473521240234375,-0.03847147721350193,-0.0011682400617748499,-0.012587423166073858
1783696326495484000,0.48348388671875,-0.011240355938673018,0.0034340661019086837,0.0011660115720704197
1783696326505448000,0.493447998046875,-0.025310382345318794,-0.015103936031647025,-0.0026305676992982624
1783696326515411000,0.503410888671875,-0.042673020556569095,0.00803173262309283,-0.017872998886182902
1783696326525374700,0.513374755859375,-0.030254268488287925,0.0010726342001929879,-0.009118139620311558
1783696326535338800,0.5233388671875,-0.04416822755038738,-0.02021203629299998,-0.0012025441901758313
1783696326545301800,0.5333017578125,-0.026653613647818562,-0.0047793066984042525,-0.01649699782524258
1783696326555264800,0.5432646484375,-0.038916882893443104,0.011782025067321955,0.004015373121201992
1783696326565228800,0.553228759765625,-0.028149405163526535,-0.010277721451595424,0.003633497664146125
1783696326575191800,0.56319189453125,-0.016329203510284423,-0.00003890723828226328,0.00004997662156820297
1783696326585154800,0.57315478515625,-0.025600305202603337,0.0044372152624651785,0.0018315262760967015
1783696326595117600,0.58311767578125,-0.03742459850907325,-0.009271174757555126,-0.008799136799015105
1783696326605081900,0.593081787109375,-0.011686346140503883,0.010656528168730438,-0.00778944829981774
1783696326615044600,0.603044677734375,-0.028750293666124343,-0.01575008844807744,0.009150397922098636
1783696326625007600,0.613007568359375,-0.029954993280768394,-0.008078494374267756,-0.01672134463302791
1783696326634971600,0.6229716796875,-0.03369476433098316,0.010932751294225454,-0.0034487887470051643
1783696326644934700,0.6329345703125,-0.03533785536289215,-0.013579028019309044,0.004663790559954941
1783696326654897700,0.642897705078125,-0.04805705168247223,-0.0014846855998039245,-0.005329670590162277
1783696326664861700,0.65286181640625,-0.02875555436313152,0.01274641312006861,-0.0003564852874726057
1783696326674824700,0.66282470703125,-0.026956395986676214,-0.012684161538816987,0.0116412283571437
1783696326684787700,0.67278759765625,-0.023363924452662468,-0.008307700020261108,-0.018017887249588964
1783696326694750700,0.682750732421875,-0.018126023799180983,0.009026187020540238,-0.0024345702031627297
1783696326704714800,0.69271484375,-0.038324177697300905,-0.01955638539586216,0.003908186419680715
1783696326714677500,0.702677490234375,-0.022917349728941917,-0.006984086733683943,-0.018657244599051773
1783696326724640500,0.712640625,-0.021266075390577316,0.003984685721993446,0.007959872963279485
1783696326734604500,0.7226044921875,-0.03382686627805233,-0.0070623761342838405,0.007875665278546511
1783696326744567600,0.732567626953125,-0.029192776736617087,-0.005416618221253156,-0.007250519117526709
1783696326754530600,0.742530517578125,-0.03143441818356514,0.012967691187933087,-0.005360175326280295
1783696326764494600,0.75249462890625,-0.04580021266639232,-0.0034923356277868148,-0.003684899057820439
1783696326774457600,0.76245751953125,-0.03921908071041107,0.0014233473340049384,-0.01240421208627522
1783696326784420600,0.772420654296875,-0.043261634099483484,-0.0013180603286251425,0.0021843948343768715
1783696326794384000,0.7823837890625,-0.04595511096715927,-0.00141282593999058,0.0006184972245246172
1783696326804347600,0.79234765625,-0.030091186881065365,0.001650214892439544,-0.009214037742838263
1783696326814311000,0.802310791015625,-0.026940613895654678,-0.006530205486342311,0.007143003622442483
1783696326824273700,0.812273681640625,-0.03322773134112358,-0.01396050161756575,-0.017110636211559175
1783696326834237700,0.82223779296875,-0.026046295404434202,0.008298311137408018,-0.00654350335933268
1783696326844200700,0.83220068359375,-0.04265022420287132,0.0030281887147575615,0.01069496048297733
1783696326854163700,0.842163818359375,-0.04310205962359905,-0.005309175791405141,-0.008892916029691696
1783696326864127700,0.852127685546875,-0.02769464713335037,0.007501461671292781,0.0031047976149246093
1783696326874090800,0.8620908203125,-0.03367605963051319,-0.004273549133352935,0.012207155144214629
1783696326884053800,0.8720537109375,-0.02665069103837013,-0.014378836627490817,-0.009813538005948067
1783696326894016800,0.882016845703125,-0.024102760121226308,0.008628821733407675,-0.005693791194818914
1783696326903980800,0.891980712890625,-0.04519640155434608,-0.005601181007921696,-0.008221190780587494
1783696326913943800,0.90194384765625,-0.024102760121226308,-0.015908713075891135,-0.014971432225778698
1783696326923906800,0.91190673828125,-0.020656419059634206,0.0017744257939979434,-0.004617503732815385
1783696326933870800,0.921870849609375,-0.04249649494588375,-0.004130779661796987,-0.0012952274423092603
1783696326943833600,0.93183349609375,-0.030230303090810776,-0.008759462375752628,-0.01285261344090104
1783696326953796600,0.941796630859375,-0.033225393253564835,0.008728738443925976,0.0038496246328577396
1783696326963760600,0.9517607421875,-0.04250818538367748,0.01003039562702179,-0.005569178434461355
1783696326973723600,0.9617236328125,-0.04311082745194435,-0.0023224515981972215,-0.011225194902159273
1783696326983686700,0.971686767578125,-0.019462240839004514,0.014524382578022778,-0.006671586718410253
1783696326993649700,0.981649658203125,-0.04325520435869693,0.0006803104143589735,-0.008088796572573482
1783696327003613700,0.99161376953125,-0.034279286220669745,-0.019226788115315138,-0.02329104187954217
1783696327013576700,1.00157666015625,-0.0357715706050396,-0.0062170113513246176,-0.011423420887999237
1783696327023539700,1.011539794921875,-0.0311310513228178,-0.01697294477391988,0.0013783391484990715
1783696327033503700,1.021503662109375,-0.02530219903886318,-0.020031455561704933,-0.025616087293624877
1783696327043466500,1.031466552734375,-0.04444529092609882,-0.007377579563297331,-0.003237301420792937
1783696327053429500,1.041429443359375,-0.043995793592929835,-0.013629041173495351,0.007165653845667839
1783696327063393500,1.0513935546875,-0.020203999117016792,0.002633198047801852,-0.00801978645697236
1783696327073356500,1.0613564453125,-0.03680851243734359,0.009911080096289515,0.008515862878225743
1783696327083319600,1.071319580078125,-0.021700375154614447,-0.007527838221564888,-0.003549837968684733
1783696327093282800,1.08128271484375,-0.026341478958725927,0.008572086577489972,-0.0036843876011669633
1783696327103246600,1.09124658203125,-0.025441899770498273,-0.000030796997062861915,0.0072317778844386334
1783696327113209600,1.101209716796875,-0.04325812696814537,-0.013667546552978456,-0.001051883673109114
1783696327123172900,1.1111728515625,-0.019022680377960205,-0.006762881731055676,-0.007654935199953615
1783696327133136600,1.12113671875,-0.027247487887740132,0.0062428764449432485,-0.0032925752719864245
1783696327143100000,1.131099853515625,-0.025003508353233336,-0.003976977339573204,-0.022229148269072175
1783696327153062700,1.141062744140625,-0.024846271964907643,0.01232745705563575,-0.006228994050063192
1783696327163026700,1.151026611328125,-0.0402589451521635,-0.001946969349309802,-0.0021478256836533543
1783696327172989700,1.16098974609375,-0.03966565543413162,-0.014306721239350735,-0.000431084893643856
1783696327182952700,1.17095263671875,-0.023800562304258345,-0.0043905265765264625,-0.011768252270296216
1783696327192915700,1.180915771484375,-0.028732173487544057,-0.004243775049597024,0.00032024493031203744
1783696327202879700,1.190879638671875,-0.041755905711650845,-0.013370171041600406,-0.017932802782021463
1783696327212842800,1.2008427734375,-0.031576457002758976,-0.006506203556247055,-0.009500307338312268
1783696327222805800,1.2108056640625,-0.029926936230063438,-0.005520370856672525,-0.005168452146463096
1783696327232769800,1.220769775390625,-0.030220366218686102,-0.004665032668970525,-0.009276143193617463
1783696327242732800,1.23073291015625,-0.023035423150658606,0.0038163434177637097,-0.0028481559727340936
1783696327252695800,1.24069580078125,-0.04248597355186939,-0.004078136159107089,0.006169044023752212
1783696327262658600,1.250658447265625,-0.042190789997577666,-0.008217062594741583,-0.003066694094240665
1783696327272622600,1.26062255859375,-0.031414544439315795,0.013153751811943948,0.008127301952056586
1783696327282585600,1.270585693359375,-0.047427521607279775,-0.005968553015589714,0.011426453095301985
1783696327292548600,1.280548583984375,-0.03636252223551273,-0.005336136863566935,-0.012312369084358215
1783696327302512600,1.2905126953125,-0.03785013044476509,-0.00006199585292488337,0.0019411606630310415
1783696327312475600,1.3004755859375,-0.04532967254519462,-0.01220277123004198,-0.006316124344244599
1783696327322438700,1.310438720703125,-0.03351239350140094,-0.021768873813562094,-0.01849262862186879
1783696327332402700,1.320402587890625,-0.028114333850145338,0.010897022393718361,0.0028821678401902318
1783696327342365700,1.33036572265625,-0.03470131102502346,-0.0009232523247599601,0.0055081324296072124
1783696327352328700,1.34032861328125,-0.019889526340365407,0.0019026187509298324,0.000508132185228169
1783696327362291500,1.35029150390625,-0.032308278408646585,0.007598930696398019,0.018723441703058778
1783696327372255700,1.360255859375,-0.038000937092304225,-0.009373173827305436,-0.0008216185811907052
1783696327382218500,1.370218505859375,-0.025582185024023055,0.0015015271367505192,-0.018526640489324925
1783696327392181800,1.380181640625,-0.0296235693693161,0.0066739978712052105,0.00548131748791784
1783696327402145500,1.3901455078125,-0.02499415600299835,0.0014669672800227999,-0.006255699393898248
1783696327412108500,1.400108642578125,-0.021552491116523742,-0.009658347444236277,-0.005281593664735555
1783696327422071800,1.41007177734375,-0.035466450178623196,-0.0049609468756243585,-0.003329107890091836
1783696327432035600,1.42003564453125,-0.030832360637187955,-0.0027360373677685853,-0.014541808636859058
1783696327441998800,1.429998779296875,-0.01840893239378929,-0.0030904402960091827,-0.0015504808450117705
1783696327451961900,1.4399619140625,-0.019902385821938512,0.004758263910375535,-0.004274243253096938
1783696327461924900,1.4499248046875,-0.04294949941039085,-0.00527932864241302,-0.0014727394336834549
1783696327471889000,1.459888916015625,-0.029333646512031554,0.011621391145512461,0.00006634323447942733
1783696327481851600,1.4698515625,-0.031128713235259054,0.009732800919935107,-0.0060161184843629594
1783696327491814700,1.479814697265625,-0.03277940305173397,0.0011187383642420172,-0.00984974183049053
1783696327501778700,1.48977880859375,-0.01766132889688015,-0.004298866237699985,0.0039566652039065954
1783696327511741700,1.49974169921875,-0.03665536770224571,-0.009051175331324338,0.0075718965590000145
1783696327521704700,1.50970458984375,-0.03201835555136204,-0.0059012234004214405,-0.00525543631017208
1783696327531667700,1.519667724609375,-0.026022330006957053,0.011912227318249643,0.0015160305861383675
1783696327541630700,1.529630615234375,-0.04173135579228401,-0.006219532101973891,-0.00857201351225376
1783696327551593700,1.53959375,-0.03425298273563385,-0.006904920550249516,-0.004459828953072428
1783696327561556700,1.549556640625,-0.017045827347040174,0.014450367493741213,0.011645831467024982
1783696327571520800,1.559520751953125,-0.023485505005717278,0.006851838656142354,0.015641586572304366
1783696327581483800,1.56948388671875,-0.03501695284545421,0.011519319010525941,-0.012099858844839035
1783696327591446800,1.57944677734375,-0.03890811506509781,0.007853088120557367,-0.005745119523257017
1783696327601410800,1.589410888671875,-0.02410042203366756,-0.002027304576523602,-0.0044105099186301224
1783696327611373800,1.599373779296875,-0.02844108158648014,0.0025384324364364145,0.0014086246889084577
1783696327621336600,1.609336669921875,-0.03636661388874054,-0.0027570436231791973,-0.004048435140587389
1783696327631300900,1.61930078125,-0.038763153636455536,-0.01412508106213063,-0.002499123339354992
1783696327641263600,1.629263671875,-0.020209844335913656,-0.009508855970948934,-0.014836334604024887
1783696327651227000,1.639226806640625,-0.029477438896894453,0.005527312054112553,-0.007836319648846983
1783696327661190000,1.64918994140625,-0.045184711116552354,-0.023429463969543575,-0.0059278922116383906
1783696327671153700,1.659153564453125,-0.01555938818156719,-0.0075393459962680934,-0.018594810354709623
1783696327681117000,1.669116943359375,-0.02243745725750923,0.003574972409941256,-0.02194923534914851
1783696327691080000,1.679079833984375,-0.03785246853232384,-0.0063519263099879025,-0.004803747019916773
1783696327701044000,1.6890439453125,-0.03396422892212868,0.0033951953962445256,-0.0002811550289392471
1783696327711007000,1.699007080078125,-0.03156885821819305,0.004345956782437861,0.015177256996184586
1783696327720970000,1.708969970703125,-0.03786182088255882,-0.005144267553277314,-0.011639182530529797
1783696327730934000,1.71893408203125,-0.023048867154121397,0.014016213860176503,-0.010563735318742691
1783696327740896800,1.728896728515625,-0.028137130203843116,0.011207841908559203,-0.0029590324686840173
1783696327750859800,1.73885986328125,-0.023211364239454267,-0.011101787718199193,-0.005332045210339129
1783696327760822800,1.74882275390625,-0.008550970724225044,0.005258358919620514,-0.01187697334177792
1783696327770786800,1.758786865234375,-0.042215339916944504,0.0054021878371015184,-0.006887421426177025
1783696327780749800,1.768749755859375,-0.037431612771749494,-0.005190737043507397,-0.008438450260460376
1783696327790712800,1.778712890625,-0.0178290866792202,0.007947963329777121,-0.01438296481333673
1783696327800676900,1.7886767578125,-0.040426118412613864,0.0011440554685890674,-0.014140717022679746
1783696327810640000,1.798639892578125,-0.018286767318844793,-0.003024754648655653,-0.01202792611978948
1783696327820603000,1.808602783203125,-0.02995382423698902,0.00011354337707161903,0.0008597221018746495
1783696327830567000,1.81856689453125,-0.039675592306256294,-0.0204187378462404,-0.00447327295653522
1783696327840530000,1.828530029296875,-0.03982522991001606,-0.007768332446552812,-0.012612630672566592
1783696327850492700,1.83849267578125,-0.035030396848917005,-0.0012109832249581813,-0.00781436354536563
1783696327860455700,1.84845556640625,-0.04325637340247631,-0.012878478534519672,0.010021518200822173
1783696327870419700,1.858419677734375,-0.018121932145953177,0.00025408435892313716,-0.0068572089510038495
1783696327880382700,1.8683828125,-0.02948679124712944,-0.0004518719533458352,0.009536584228090941
1783696327890345700,1.878345703125,-0.02245440839231014,-0.013161825520545243,-0.007373743638396262
1783696327900309800,1.888309814453125,-0.0269482126802206,-0.0056842927141115066,-0.011722257704101503
1783696327910272800,1.898272705078125,-0.040111061114072796,-0.005551898506097495,0.0049044309154152865
1783696327920235800,1.90823583984375,-0.04176058188676834,-0.004141995175555348,-0.0028556816920638083
1783696327930199800,1.91819970703125,-0.03577800034582615,-0.001330627549253404,-0.003624693303182721
1783696327940162800,1.928162841796875,-0.03502221354246139,-0.004560841642133892,0.01318016489483416
1783696327950125600,1.93812548828125,-0.02319733571410179,-0.012705679250881076,-0.002996807195805013
1783696327960088800,1.9480888671875,-0.03442600121498108,0.0024616408731788397,-0.015763861245103178
1783696327970052600,1.958052490234375,-0.048047699332237244,0.004058846936747432,-0.000051766719855368137
1783696327980015900,1.968015869140625,-0.027854806131124496,-0.0019847440764307975,-0.002341960016265511
1783696327989979000,1.977978759765625,0.0022264438778162,-0.005978672550804913,-0.00396506770607084
1783696327999942700,1.987942626953125,-0.05028992530107498,-0.0027424305759370326,-0.003020151538774371
1783696328009906000,1.997906005859375,-0.044758010137081146,-0.0037905879219993946,-0.017267945665121076
1783696328019869000,2.007868896484375,-0.0064461073994636535,0.013205591597035526,-0.006836312293447553
1783696328029833000,2.0178330078125,-0.03457797690629959,-0.009614325639419257,0.00010093962382525205
1783696328039796000,2.0277958984375,-0.03458382212519646,0.008252681897394358,-0.013283296475745736
1783696328049759000,2.037759033203125,-0.028595395365357396,-0.00016501783598214386,-0.011063793795369564
1783696328059721700,2.0477216796875,-0.03487959020137787,-0.004191752601414919,0.0008625716460868715
1783696328069685800,2.057685791015625,-0.035187633237242694,-0.0068069766011089085,-0.01215874942522496
1783696328079648800,2.067648681640625,-0.008994622838497161,0.0056403439745306965,-0.012171864635124803
1783696328089611800,2.07761181640625,-0.0245563491076231,-0.000008000643365085124,-0.007905841221101582
1783696328099575800,2.087575927734375,-0.03099778033196926,0.003433225851692259,-0.011441723729670047
1783696328109538800,2.097538818359375,-0.01737549769282341,0.005009316061995923,-0.002072239696793258
1783696328119501800,2.107501708984375,-0.03502805876135826,-0.0047408743841573595,0.000820084211230278
1783696328129465900,2.1174658203125,-0.02769990783035755,0.01262402884941548,-0.01717654105462134
1783696328139428900,2.127428955078125,-0.022310031485557553,0.011730039151757955,-0.006944010451622307
1783696328149392000,2.137391845703125,-0.020509704065322876,0.01061415033172816,0.007227649698592722
1783696328159356000,2.14735595703125,-0.01810615005493164,-0.011846432073041795,-0.008820471847988665
1783696328169319000,2.15731884765625,-0.016599837145209313,-0.0032827845303341745,0.004198072744347155
1783696328179281700,2.16728173828125,-0.040540684702992436,-0.012274009835347533,0.00014397504795342684
1783696328189244700,2.17724462890625,-0.012564298018813133,0.004670914420485496,-0.011541823103278875
1783696328199208700,2.187208740234375,-0.027669512692093848,0.010590111869014799,0.008945924858562647
1783696328209171700,2.197171630859375,-0.021389409509301183,-0.016159692162275315,0.0027565321665257215
1783696328219134700,2.207134765625,-0.011218144106864928,0.011213760192692279,-0.009228139333426953
1783696328229098800,2.2170986328125,-0.03470423363447189,0.002618183141760528,0.010259783936105668
1783696328239061800,2.227061767578125,-0.01899929950237274,-0.0034870018655434247,-0.0025997341696172953
1783696328249024800,2.237024658203125,-0.023338790011405944,0.013240772508271038,-0.008086568082869052
1783696328258987800,2.24698779296875,-0.026186580657958983,0.004183496229723096,-0.005059913738071918
1783696328268951800,2.256951904296875,-0.029335400077700614,-0.0018985270977020263,-0.013621077062748371
1783696328278914800,2.266914794921875,-0.04130582385659218,-0.003406337844766676,-0.001649411174841225
1783696328288877800,2.2768779296875,-0.03815817348062992,-0.006964468717761337,-0.007835260202921926
1783696328298841600,2.286841552734375,-0.0427992772847414,-0.016379180131852626,-0.011821589892730116
1783696328308804900,2.296804931640625,-0.017056348741054533,-0.0001860240913927555,-0.0007442424960434436
1783696328318767900,2.306767822265625,-0.04443827666342258,-0.0046294498989358545,0.006171674372255802
1783696328328731600,2.316731689453125,-0.03366436919271946,-0.00451276471670717,-0.011444207947701216
1783696328338695000,2.32669482421875,-0.016454291194677353,0.010575170028209686,0.005004347625933587
1783696328348658000,2.336657958984375,-0.03949965121746063,0.0013426833132281898,0.0042214901525527235
1783696328358621000,2.346620849609375,-0.029324878683686256,-0.008457081895694137,-0.009876593304798006
1783696328368585000,2.3565849609375,-0.023787118300795555,0.014264306869730353,-0.004038936659879982
1783696328378548000,2.3665478515625,-0.04488134425580501,0.01177307457588613,-0.005381364244781434
1783696328388510700,2.3765107421875,-0.03515899166464805,-0.0033809111425653097,-0.009698350661061703
1783696328398474800,2.386474853515625,-0.021691022804379463,-0.00473736725281924,-0.008664294905588031
1783696328408437800,2.396437744140625,-0.04144201745688915,0.002046922592446208,0.0029181159364059565
1783696328418400800,2.40640087890625,-0.020949264526367185,-0.008943367575295269,-0.003107062637247145
1783696328428364800,2.41636474609375,-0.024089900639653203,0.00031421704832464457,-0.00015146423466503618
1783696328438327800,2.426327880859375,-0.03710720312297344,-0.011696063816919922,-0.003272701527737081
1783696328448290800,2.436290771484375,-0.0276847102612257,-0.004071377624757588,-0.008967442570626736
1783696328458253800,2.44625390625,-0.020348960545659062,0.0027479470012709496,0.004783252221159637
1783696328468217900,2.4562177734375,-0.03277297331094742,-0.010491510332748293,-0.005967164776101708
1783696328478180900,2.466180908203125,-0.004792494973540306,0.0018986366955563425,-0.0031797990798950195
1783696328488144000,2.476143798828125,-0.022293080350756642,0.010820011634752155,0.004760346269607543
1783696328498108000,2.48610791015625,-0.03995207116007805,0.0013920023476704955,-0.010285210638307035
1783696328508070700,2.496070556640625,-0.027234628406167027,-0.002255852635391056,-0.011809424530901015
1783696328518033700,2.50603369140625,-0.039196284356713296,0.001875073156878352,0.0005738178325816989
1783696328527997700,2.515997802734375,-0.03351531611084938,-0.01363970869798213,-0.019996749574504792
1783696328537960700,2.525960693359375,-0.03306698782145977,0.003109181529097259,-0.022657822009921072
1783696328547923700,2.535923828125,-0.03829495160281658,0.012900726898945867,0.011010236977227032
1783696328557886700,2.54588671875,-0.04473696734905243,-0.008126753962785005,-0.011622925515472888
1783696328567850800,2.555850830078125,-0.02243921082317829,0.0025645167257636785,-0.018436843314021824
1783696328577813800,2.565813720703125,-0.03964110551476478,0.0028402649272233245,0.011777714218385516
1783696328587777000,2.575777099609375,-0.05101531696617603,0.003715403793938458,-0.004306099696084857
1783696328597740800,2.58574072265625,-0.025129765081405638,0.007311309394054114,-0.0003628419630229473
1783696328607703800,2.595703857421875,-0.034710078853368756,-0.001822685382515192,0.002679448342323303
1783696328617666800,2.605666748046875,-0.02858078231811523,-0.0004835822658613324,0.008411964112333952
1783696328627629800,2.6156298828125,-0.037709260669350625,0.01747135928273201,-0.005792356198467314
1783696328637593900,2.62559375,-0.0441454311966896,-0.007188596329838037,0.006940685983374714
1783696328647556900,2.635556884765625,-0.022904490247368813,0.006790281194634735,-0.0060891471879556775
1783696328657519900,2.645519775390625,-0.027235797449946402,0.007587824780493974,-0.0005025061620399355
1783696328667484000,2.65548388671875,-0.0399585009008646,0.007375241475738584,-0.00830306037776172
1783696328677447000,2.665447021484375,-0.04715045823156833,-0.00903484525103122,-0.010039747977256774
1783696328687410000,2.675409912109375,-0.035627193698287006,0.007450900527834892,-0.008610263163410127
1783696328697374000,2.6853740234375,-0.03801905727088451,-0.008449044719710946,0.0006391016211360692
1783696328707337000,2.6953369140625,-0.02785188352167606,0.001947152012400329,-0.008945888325944543
1783696328717299700,2.7052998046875,-0.02410802081823349,0.009852079918049275,-0.0031596696073189377
1783696328727262700,2.7152626953125,-0.028747371056675908,-0.01364664989542216,-0.0001458016788586974
1783696328737226800,2.725226806640625,-0.02979132715165615,-0.005590623081289232,0.005091733648441732
1783696328747189800,2.735189697265625,-0.025748189240694046,0.005568301651626825,-0.010930449739284812
1783696328757152800,2.74515283203125,-0.035329672056436535,-0.005166187124140561,-0.0003687237145379185
1783696328767116800,2.75511669921875,-0.033684242936968804,0.0019578560695052145,-0.016447349997237324
1783696328777079800,2.765079833984375,-0.031439678880572315,-0.001934548259153962,0.00016472557503730058
1783696328787042800,2.775042724609375,-0.02635492296218872,0.0022886223938316107,-0.015497027002461253
1783696328797005800,2.785005859375,-0.018425299006700514,0.011081219854205846,-0.010634864326193929
1783696328806969900,2.794969970703125,-0.031738954088091846,-0.004295578302070498,-0.0055599722146987916
1783696328816932900,2.804932861328125,-0.036081367206573484,-0.0028853461779654024,-0.015137838301248848
1783696328826895600,2.8148955078125,-0.019318448454141615,0.009911262759380042,-0.002716090558283031
1783696328836859600,2.824859619140625,-0.028143559944629668,0.008144654945656657,0.005976663256809115
1783696328846822700,2.83482275390625,-0.021561843466758726,-0.0014326631516218184,0.000499437422119081
1783696328856785700,2.84478564453125,-0.006598083090782165,0.004973769824579358,-0.0017000819161534309
1783696328866749700,2.854749755859375,-0.030686814686655996,0.0018145386086776852,0.0015292553938925264
1783696328876712700,2.864712646484375,-0.03188566908240318,-0.010476349296234547,-0.01605382063500583
1783696328886675700,2.87467578125,-0.023805823001265526,0.011978935878910123,-0.006021488779224455
1783696328896639000,2.884638916015625,-0.03353402081131935,-0.007149981352500617,-0.003313106603361666
1783696328906602800,2.894602783203125,-0.04476327083408832,-0.008769106986932456,-0.005406681349128485
1783696328916566000,2.90456591796875,-0.014682605347037315,-0.0044117154950276015,0.0032015725202858445
1783696328926528800,2.91452880859375,-0.03024140900671482,-0.005116173969954252,-0.003990640538744628
1783696328936492800,2.924492919921875,-0.014239537754654884,-0.005732479237392544,-0.02260360760465264
1783696328946455800,2.934455810546875,-0.004358195209503174,0.008766220910102129,-0.0058270987182855605
1783696328956418800,2.944418701171875,-0.04131634525060653,-0.006469524807669222,-0.0002516366735100746
1783696328966381800,2.9543818359375,-0.03518412610590458,-0.014692578751780093,-0.01663837905731052
1783696328976345900,2.964345947265625,-0.02934942860305309,-0.0025730288257822392,0.002843589395470917
1783696328986308900,2.974308837890625,-0.04999883340001106,-0.00585018733292818,0.0011748159330338239
1783696328996271900,2.98427197265625,-0.04236848465204238,0.0028658377598971127,-0.0022888050569221377
1783696329006236000,2.99423583984375,-0.025901918497681618,0.0035844343580305575,0.0022040859155356882
1783696329016199000,3.004198974609375,-0.04191431114375591,-0.00012399170584976674,0.003832783095911145
1783696329026162000,3.014161865234375,-0.024409634113311766,0.006755465609580278,-0.0034057533228769895
1783696329036126000,3.0241259765625,-0.019917583391070366,-0.0021686858085915445,-0.0017692746948450803
1783696329046088700,3.034088623046875,-0.038487259304523465,-0.015132468006387352,-0.017477789023518563
1783696329056051700,3.0440517578125,-0.029063012877106664,-0.004795819441787899,-0.0030406098049134012
1783696329066014700,3.0540146484375,-0.014694880306720733,0.008967734831571579,-0.004028744059428572
1783696329075978800,3.063978759765625,-0.028912790751457213,-0.017030885506235063,0.0009334083925932645
1783696329085941800,3.073941650390625,-0.03774199389517307,0.00023746201768517494,0.0027113047853112218
1783696329095904800,3.08390478515625,-0.02456862406730652,0.0011280176492407918,0.0045168929025530815
1783696329105868800,3.093868896484375,-0.02891162170767784,-0.006071392335556447,0.008674633636511862
1783696329115831800,3.103831787109375,-0.02607026080191135,0.006301840090565383,-0.01350603584833443
1783696329125794800,3.113794921875,-0.04791676642894745,-0.0057686099966987965,0.0019716288665309546
1783696329135757800,3.1237578125,-0.02921791117787361,-0.01665708375778049,-0.007321538527123629
1783696329145721900,3.133721923828125,-0.007373159116506576,-0.009700177291966974,-0.005118913916312158
1783696329155684600,3.1436845703125,-0.03475391799509525,0.004115253299102187,0.013447400996275245
1783696329165648000,3.15364794921875,-0.029970190849900245,-0.006370996336638927,-0.015435725269280373
1783696329175611600,3.163611572265625,-0.028915713360905645,-0.006321494639106095,-0.013116853867657482
1783696329185574700,3.17357470703125,-0.04492342983186245,0.0018097893683239816,0.00467080482263118
1783696329195538000,3.183537841796875,-0.03310615078806877,-0.005973302255943417,-0.00957059609554708
1783696329205501000,3.1935009765625,-0.03145429192781448,-0.008235438501648604,-0.0043262291686609385
1783696329215464700,3.203464599609375,-0.0411783980846405,-0.005376249678246676,-0.002017623432725668
1783696329225428000,3.213427978515625,-0.02891512883901596,-0.013611322853714226,-0.010341361272335052
1783696329235391000,3.223390869140625,-0.024871406406164167,-0.0019492709042504429,0.014415296180360018
1783696329245355000,3.23335498046875,-0.038490766435861586,-0.009988602311909197,0.005885843168199062
1783696329255318000,3.243318115234375,-0.04103694378733635,-0.0009044745590537786,-0.009098558137007056
1783696329265280800,3.25328076171875,-0.02217909858226776,0.005422061581350863,-0.006107303899154067
1783696329275243800,3.263243896484375,-0.04073533049225807,0.0017197364646941422,0.004190218231454492
1783696329285207800,3.273207763671875,-0.025179449442028996,0.0017380393063649534,-0.017637692292965947
1783696329295170800,3.2831708984375,-0.02172901672720909,0.005844122918322682,0.009012998745404184
1783696329305133800,3.2931337890625,-0.04746610005199909,0.0004912541156634688,-0.0013866685854271054
1783696329315097900,3.303097900390625,-0.028168109863996503,0.004843275312706828,-0.009184007930755614
1783696329325060900,3.313060791015625,-0.024123802909255025,-0.003192877757176757,0.006362776497565209
1783696329335023900,3.32302392578125,-0.036545477586984634,-0.014665800342708825,0.006795834152586758
1783696329344988000,3.33298779296875,-0.01844458822906017,0.012413162577711046,-0.006369498499296605
1783696329354951000,3.342950927734375,-0.029366379737854,0.014031630625016986,0.000495090040564537
1783696329364913700,3.35291357421875,-0.029670331120491025,-0.010922302965447305,-0.006885923588834703
1783696329374876700,3.362876708984375,-0.012160393393039703,0.007184175883047282,-0.018029906480945646
1783696329384840700,3.3728408203125,-0.03879471781849861,-0.005366641599684954,0.017214060053415595
1783696329394803700,3.3828037109375,-0.030719547912478447,0.0021921762820333243,0.007237440440244972
1783696329404766700,3.3927666015625,-0.020694412982463835,0.0016345058666542172,-0.007610767264664173
1783696329414730800,3.402730712890625,-0.0286257905036211,-0.004899900870770216,-0.009610453181900083
1783696329424693800,3.41269384765625,-0.04927461077868938,0.0005921206742525101,-0.005690722454898059
1783696329434656800,3.42265673828125,-0.025770401072502135,0.0002399097030982375,0.0018880787689238786
1783696329444619800,3.432619873046875,-0.03728255968987942,-0.0007361322548240423,0.005448218935914338
1783696329454583800,3.442583740234375,-0.04581248762607574,-0.006062587974593043,0.005732296574302017
1783696329464546800,3.452546875,-0.02860007154047489,0.002371661034785211,0.0011031389363110064
1783696329474509800,3.462509765625,-0.03996493064165115,-0.0078013579333201044,0.010922339498065411
1783696329484473600,3.4724736328125,-0.04401216020584106,-0.0026855127569288015,-0.006436170527338981
1783696329494436900,3.482436767578125,-0.026951135289669036,0.013254545305296779,-0.0014589666366577147
1783696329504400000,3.49239990234375,-0.034732290685176845,-0.0058753217741847035,0.0116790396168828
1783696329514363000,3.50236279296875,-0.02905190696120262,-0.008817220444977283,-0.008124050549045204
1783696329524327000,3.512326904296875,-0.01902034229040146,0.004129647150635719,0.0060074967864900825
1783696329534290200,3.522290283203125,-0.03249123376011848,-0.012538286794722079,-0.00702416301574558
1783696329544253000,3.5322529296875,-0.03323708369135856,-0.011142886913567782,-0.01518248116057366
1783696329554217000,3.542217041015625,-0.039512510699033734,0.00035323388446122404,0.005084317526966333
1783696329564180000,3.552179931640625,-0.04533785585165023,-0.009079232382029295,-0.005497830231301486
1783696329574143000,3.56214306640625,-0.02408230185508728,-0.006521218462288379,-0.01734006105326116
1783696329584106000,3.57210595703125,-0.03409925347864628,0.003256554110534489,0.0018428879203274844
1783696329594070000,3.582070068359375,-0.04098492133915424,-0.01586984237022698,-0.005902830835618079
1783696329604033000,3.592032958984375,-0.01644552336633205,-0.0035776758236810563,-0.011688172771409154
1783696329613996000,3.60199609375,-0.034250060126185415,0.0052370604032650585,0.0027862697176635263
1783696329623960000,3.6119599609375,-0.03739829502403736,-0.010237572104297578,-0.012269041399285197
1783696329633923000,3.621923095703125,-0.03231237006187439,0.006490896389260888,0.0021847236279398203
1783696329643886000,3.631885986328125,-0.04233282881677151,0.008585603646188975,0.016251863957755266
1783696329653848800,3.641848876953125,-0.03142331226766109,0.005916165241226554,0.002647153507918119
1783696329663812900,3.651812744140625,-0.020355390286445618,0.0038346827920526265,-0.009630582654476165
1783696329673775900,3.66177587890625,-0.04220189591348171,-0.0007633855879306793,0.004808678923361003
1783696329683739000,3.67173876953125,-0.052986324778199194,0.00184204767011106,-0.0011082535028457642
1783696329693703000,3.681702880859375,-0.013635142120718955,0.007575330625101923,0.001330883277580142
1783696329703666000,3.691666015625,-0.02635433844029903,-0.000716039314866066,0.005689663008973002
1783696329713629000,3.70162890625,-0.030395722785592078,0.004690970827825367,-0.015091040017455815
1783696329723592000,3.711592041015625,-0.031140988194942473,0.010932787826843558,0.0005912804240360856
1783696329733556000,3.721555908203125,-0.043704117169976235,-0.007689860382862388,0.008286693764850497
1783696329743519000,3.73151904296875,-0.03712123164832592,-0.012374401469901203,-0.008230397000350057
1783696329753482000,3.74148193359375,-0.01886252138018608,0.007760258737951517,0.00044606326706707474
1783696329763446000,3.751446044921875,-0.031283027014136315,-0.00670943451076746,0.003252389392070472
1783696329773408800,3.76140869140625,-0.030543606823682783,-0.009160444392077624,-0.01997216312251985
1783696329783372000,3.7713720703125,-0.021408698731660843,0.008708864699676633,-0.019306210027076304
1783696329793335000,3.7813349609375,-0.03906418240964413,-0.008065598360076547,0.00011745236720889805
1783696329803299000,3.791299072265625,-0.04177051875889301,0.0065888768710196015,-0.00539206830188632
1783696329813262000,3.801261962890625,-0.02650222247838974,0.013632073380798101,0.006415054674074053
1783696329823225000,3.81122509765625,-0.04565875836908817,-0.003648950961604714,0.007596884869784116
1783696329833189000,3.821189208984375,-0.021268998000025748,-0.003129603262618184,-0.0037821488872170446
1783696329843152100,3.831152099609375,-0.019616554617881775,0.002951543281972408,0.0023849223751574752
1783696329853115100,3.841115234375,-0.025903672063350675,-0.010011654393933712,0.0038769510312005877
1783696329863078000,3.851077880859375,-0.02950198881626129,0.0034709275135770437,-0.025867687434516846
1783696329873042000,3.8610419921875,-0.012893968364596366,-0.00041647184640169143,-0.0075758055491372935
1783696329883005000,3.8710048828125,-0.027865327525138855,-0.000899981047026813,-0.0037638460455462334
1783696329892968000,3.880968017578125,-0.04342880735993385,0.011191804089210926,-0.00533968052752316
1783696329902932000,3.890931884765625,-0.029951486149430273,-0.003852766438014805,0.0010722323413938284
1783696329912895000,3.90089501953125,-0.04118190521597862,-0.016630122685618698,-0.012756386524811387
1783696329922858000,3.91085791015625,-0.030410335832834243,-0.00902147431280464,-0.009814560919255018
1783696329932822000,3.920822021484375,-0.02621463770866394,0.012325666957348585,0.005797616895474493
1783696329942785000,3.930784912109375,-0.04327800071239471,-0.004134213727898895,-0.004839402855187654
1783696329952748000,3.940748046875,-0.018139467802643774,-0.003990859734453261,-0.010950615744479
1783696329962711000,3.9507109375,-0.02112520561516285,-0.006388678123801946,0.0021717545485123993
1783696329972675000,3.960675048828125,-0.03279693870842457,-0.0013823942691087723,-0.0022131460048258303
1783696329982637800,3.970637939453125,-0.01977788265943527,-0.007994432820007204,-0.00578132334779948
1783696329992600800,3.980600830078125,-0.018885317733883855,-0.0002025003021582961,0.00792885677050799
1783696330002564900,3.99056494140625,-0.023382629153132436,-0.00687861706521362,0.0031527284098789095
1783696330012527900,4.00052783203125,-0.024425416204333306,0.00921199191622436,-0.007516732305660844
1783696330022491000,4.010490966796875,-0.02786708109080791,-0.017115312386676667,-0.00947751098461449
1783696330032454000,4.020453857421875,-0.018596563920378683,-0.006425576068088412,-0.011456994364038109
1783696330042418000,4.03041796875,-0.03415536758005619,0.011811726085841655,-0.009432393201254307
1783696330052381000,4.040380859375,-0.056148003679513926,-0.001526551980152726,0.012026464815065264
1783696330062344200,4.05034423828125,-0.025626024165749547,-0.013030235030129551,0.00043729543872177596
1783696330072308000,4.060307861328125,-0.039386253970861436,0.007694938416779041,-0.005484788086637854
1783696330082271000,4.07027099609375,-0.033250527694821355,-0.014080547800660132,0.009227700942009687
1783696330092234000,4.08023388671875,-0.03834054431021213,-0.0017237185200676321,-0.003645370765030384
1783696330102197000,4.090197021484375,-0.00706102442741394,0.012256218450330198,0.004699409862607717
1783696330112161000,4.1001611328125,-0.028313071292638776,0.0019958499923348424,-0.005762655179947614
1783696330122124000,4.1101240234375,-0.03490530916452408,0.014448065938800573,0.0013224077101796864
1783696330132087000,4.120087158203125,-0.009014496582746506,-0.0017356281535699963,0.0013890797382220626
1783696330142051000,4.130051025390625,-0.046426820132136344,-0.009497384728863835,-0.010062617396190762
1783696330152014000,4.14001416015625,-0.02802373295724392,-0.0012924144307151436,-0.0027808994228020307
1783696330161977000,4.14997705078125,-0.03893734115958213,0.003165149500034749,0.0016028320867568252
1783696330171941000,4.159941162109375,-0.03864098856151104,-0.01099138614628464,-0.0078096143050119275
1783696330181904100,4.169904052734375,-0.03100830172598362,-0.0016173355361446737,-0.001930639269016683
1783696330191867000,4.179866943359375,-0.039222003319859505,0.00001768178716301918,0.00019961422532796858
1783696330201830000,4.189829833984375,-0.03457973047196865,-0.00483417869079858,-0.014179660793580113
1783696330211794000,4.1997939453125,-0.0019628245055675507,-0.0047117944201454515,-0.008202120753936469
1783696330221757000,4.2097568359375,-0.02829553563594818,-0.0067732569945976135,0.00497797107566148
1783696330231720000,4.219719970703125,-0.042968788632750506,-0.0075409534314647315,-0.00316745105497539
1783696330241684000,4.22968408203125,-0.013939678025245665,-0.0010344576142728328,-0.005592267049103975
1783696330251647000,4.23964697265625,-0.023068156376481054,0.005751878057606518,0.004081168366409838
1783696330261610000,4.24960986328125,-0.03429448378980159,-0.010843757836520671,0.004909216688387096
1783696330271574000,4.259573974609375,-0.02906418192088604,0.012714410546608268,-0.010384835087880491
1783696330281537000,4.269537109375,-0.02262918043732643,-0.01464658418558538,-0.0031111908230930566
1783696330291500000,4.2795,-0.035654081705212594,-0.005630370569787919,-0.0017659502265974878
1783696330301462800,4.289462890625,-0.029217326655983922,0.004466952813602983,-0.00038494419697672125
1783696330311426800,4.2994267578125,-0.031010639813542365,-0.005345306550711393,-0.0006935352221131325
1783696330321389800,4.309389892578125,-0.03086217125356197,0.0034875863874331116,0.0035319735184311863
1783696330331352800,4.319352783203125,-0.023975334349274634,0.005715126243792474,0.0024070976743474602
1783696330341316900,4.32931689453125,-0.037891631498932835,-0.01935151047352701,-0.003978730905242264
1783696330351279900,4.33927978515625,-0.01859071870148182,-0.008365896480903029,-0.012468874820321798
1783696330361243100,4.3492431640625,-0.017237550526857374,0.018780469119921324,-0.00221577635332942
1783696330371206100,4.3592060546875,-0.040429625543951984,0.005174041637033224,-0.004373758104816079
1783696330381170000,4.369169921875,-0.030108722537755966,0.0012342545026913284,0.0016443331409245728
1783696330391133200,4.37913330078125,-0.017235796961188314,0.00017824264373630285,0.015305376887880265
1783696330401096000,4.389095947265625,-0.04192541705965996,-0.0044627515625208615,0.0022665932251140475
1783696330411060000,4.39906005859375,-0.01933481506705284,-0.007181289806216955,-0.007136756544746458
1783696330421023000,4.40902294921875,-0.01753624121248722,0.007930902597121894,-0.0066159475410357115
1783696330430986000,4.418986083984375,-0.02951192568838596,-0.010850443305633962,-0.0023875892562791705
1783696330440949000,4.428948974609375,-0.024725860455632208,0.0031382980257272717,-0.0002816664855927229
1783696330450913000,4.4389130859375,-0.030700258690118786,0.002717697993479669,-0.002535546359606087
1783696330460876000,4.4488759765625,-0.05104980375766754,-0.00391538334544748,-0.001300707335025072
1783696330470839000,4.458839111328125,-0.021864625805616378,-0.002679083016142249,-0.005371683100983501
1783696330480803000,4.468802978515625,-0.027552023792266844,0.0010407046919688582,0.006908208485879004
1783696330490766000,4.47876611328125,-0.02934942860305309,-0.009105353203974664,-0.008183014194667338
1783696330500729000,4.48872900390625,-0.021423896300792694,0.002892396973259747,-0.01853624856788665
1783696330510693000,4.498693115234375,-0.03654080141186714,-0.0005773614965379238,0.00608808774203062
1783696330520656000,4.50865576171875,-0.027717443487048146,-0.02266300964169204,-0.012107676825113593
1783696330530619600,4.51861962890625,-0.003773673319816589,0.006167400055937469,-0.005042268483527005
1783696330540582700,4.528582763671875,-0.03624269524812698,0.006354885452054441,0.010242942399159074
1783696330550546700,4.538546630859375,-0.048369770893454546,-0.012097886083461344,-0.0030248277138918635
1783696330560509700,4.548509765625,-0.03370294763743877,0.007018902318738401,-0.009933803384751081
1783696330570472700,4.55847265625,-0.029213819524645804,0.010950104287825524,0.005586641025915742
1783696330580436700,4.568436767578125,-0.04432897107005119,-0.010145546439290045,-0.0038087446331977843
1783696330590399500,4.5783994140625,-0.027416999235749244,0.00729669634681195,-0.00021163345668464897
1783696330600362500,4.588362548828125,-0.03280219940543175,0.002059818606637418,0.006626249739341438
1783696330610326500,4.598326416015625,-0.02397474982738495,-0.015211451526731251,-0.011508066964149475
1783696330620289500,4.60828955078125,-0.030849896293878555,0.00018562223259359597,-0.0013486746625974773
1783696330630252500,4.61825244140625,-0.034438860696554184,-0.006864552007243037,0.001742167492210865
1783696330640215600,4.628215576171875,-0.03129588649570942,-0.0013840017043054104,-0.005069704479724169
1783696330650179600,4.6381796875,-0.024855039793252945,0.0006548106469213963,-0.005638042419590056
1783696330660142600,4.648142578125,-0.03712590782344341,-0.008001337484829127,-0.004161978517659008
1783696330670105600,4.658105712890625,-0.02036182002723217,0.004726553597860038,-0.0030433862838894128
1783696330680069600,4.668069580078125,-0.025142624562978742,-0.002969188536517322,0.0002653729379177093
1783696330690032600,4.67803271484375,-0.039808863297104834,-0.0011083631007000802,-0.013093728720396757
1783696330699995400,4.687995361328125,-0.015419687449932098,-0.0095430505014956,0.00244834300018847
1783696330709958700,4.697958740234375,-0.022592355558276177,-0.009669051501341163,-0.0002123275764286518
1783696330719922400,4.70792236328125,-0.039055414581298825,-0.003915164149738848,-0.006807305394671857
1783696330729885700,4.7178857421875,-0.011231003588438034,0.0011195786144584416,-0.01612732426263392
1783696330739848700,4.7278486328125,-0.026042203751206396,-0.007083784248493611,-0.00457629493959248
1783696330749812500,4.7378125,-0.04160685262978077,-0.00045673079155385493,-0.012939707202464342
1783696330759775700,4.747775634765625,-0.028741525837779044,0.0026725802101194855,-0.018809768279641866
1783696330769738800,4.75773876953125,-0.03666998074948787,0.0012252309460192919,0.012477752246521413
1783696330779701800,4.76770166015625,-0.0381762936592102,0.007484072145074606,0.004960837277770042
1783696330789665800,4.777665771484375,-0.024708909320831297,-0.006295008490979671,-0.00909223799407482
1783696330799628500,4.787628662109375,-0.04012099798619747,-0.0027806802270933986,0.0042555750852450724
1783696330809591600,4.797591552734375,-0.046859950852394104,-0.003745433606021106,-0.0031815891781821846
1783696330819555600,4.8075556640625,-0.006758242088556289,-0.008200622916594147,-0.016513291372917592
1783696330829518600,4.8175185546875,-0.019175825113058088,-0.00850132289621979,0.009619111412391065
1783696330839481600,4.827481689453125,-0.029217326655983922,0.004207315496727824,-0.0038898470453917976
1783696330849445600,4.837445556640625,-0.02113689605295658,0.0011208937887102364,-0.007856229925714433
1783696330859408600,4.84740869140625,-0.03983516678214073,-0.00808243989702314,0.006276413388364017
1783696330869371600,4.85737158203125,-0.02950724951326847,-0.008313727902248502,0.0004791618190705776
1783696330879334700,4.867334716796875,-0.01828384470939636,-0.0044148938328027725,0.0019329773565754293
1783696330889298700,4.877298583984375,-0.04207680822908878,-0.004004924792423844,0.0031443989729508758
1783696330899261700,4.88726171875,-0.034303836140036584,0.003393953287228942,-0.0062778016278520225
1783696330909224400,4.897224365234375,-0.017543255475163458,0.0033866467636078593,0.0038747956067323682
1783696330919188500,4.9071884765625,-0.05001403096914291,0.009963614001125097,-0.0006237944541499018
1783696330929151500,4.9171513671875,-0.0211404031842947,-0.011702383959852158,-0.014392134500481187
1783696330939114500,4.927114501953125,-0.022929040166735647,0.0011169117333367465,0.0016292817022651434
1783696330949077500,4.937077392578125,-0.04088613713979721,-0.006008044775761664,0.011441650664433835
1783696330959041500,4.94704150390625,-0.032066286346316336,-0.008009155465103685,-0.009082629915513098
1783696330969004500,4.957004638671875,-0.014407295536994933,-0.001815232728421688,0.005912840772978961
1783696330978967600,4.966967529296875,-0.04328618401885032,-0.005203961851261556,-0.00033675767369568347
1783696330988931600,4.976931640625,-0.02308744559884071,0.006141060038283467,0.002914280011504888
1783696330998894600,4.98689453125,-0.025176526832580565,-0.002273315226845443,-0.0022929697753861543
1783696331008857600,4.996857666015625,-0.0368517670571804,-0.015816358617320656,-0.006035846098139882
1783696331018821600,5.006821533203125,-0.024139585000276565,0.0028018326129764315,-0.00711516576744616
1783696331028784600,5.01678466796875,-0.03490647820830345,-0.007742248157225549,-0.008429792029969393
1783696331038747600,5.02674755859375,-0.042837855729460715,-0.00938325682990253,-0.003776705527119338
1783696331048710700,5.036710693359375,-0.021579963645339012,0.0008495295014232396,-0.00765895378794521
1783696331058674700,5.0466748046875,-0.03114683341383934,-0.0027631080377846953,0.01901325496248901
1783696331068637700,5.0566376953125,-0.03384206384718418,-0.007668050409853458,-0.007622932626493275
1783696331078600700,5.0666005859375,-0.016333879685401915,0.007125285302661359,-0.0028234964555129407
1783696331088564700,5.076564697265625,-0.03294014657139778,-0.007220671968534588,-0.0012929989526048302
1783696331098527700,5.08652783203125,-0.03863455882072449,-0.003527333875931799,-0.005980389583855867
1783696331108490800,5.09649072265625,-0.03025309944450855,0.001088270160742104,-0.006163892924599349
1783696331118453500,5.10645361328125,-0.043859599992632864,0.008219400682300329,-0.0036971740175038574
1783696331128417500,5.11641748046875,-0.02994213379919529,-0.012704802468046545,-0.012687266811355949
1783696331138380500,5.126380615234375,-0.02410042203366756,-0.007146985677815973,-0.011329933918267488
1783696331148343600,5.136343505859375,-0.03307634017169475,-0.01657733305245638,0.0026671733826398847
1783696331158307600,5.1463076171875,-0.0423591323018074,-0.007556845120340585,-0.007417582780122756
1783696331168270600,5.1562705078125,-0.0245563491076231,0.008008497877977788,0.007809760435484349
1783696331178233600,5.166233642578125,-0.03652560384273529,-0.0008380582593381404,0.005542473090626299
1783696331188196600,5.176196533203125,-0.030544775867462157,-0.01160356322787702,-0.01184058685414493
1783696331198160600,5.18616064453125,-0.025900164932012557,-0.0022603096147999165,0.010248751085437834
1783696331208123600,5.19612353515625,-0.03518120349645614,-0.00001629354767501354,0.00042180560864508147
1783696331218086700,5.206086669921875,-0.019034370815753935,-0.0018327683851122854,-0.01969564773607999
1783696331228050700,5.21605078125,-0.024418401941657064,-0.008722199105285107,0.004761076921969652
1783696331238013400,5.226013427734375,-0.03474398112297058,-0.011112382177449762,0.0011899769695475698
1783696331247976400,5.2359765625,-0.032057518517971034,-0.00031293840669095513,-0.0010357362559065223
1783696331257939500,5.245939453125,-0.018433482313156127,0.004405797210894524,-0.00234404237549752
1783696331267903500,5.255903564453125,-0.040433717197179794,-0.023495259214751422,-0.006839490631222724
1783696331277866500,5.265866455078125,-0.0203822782933712,0.0035401568248867987,-0.005586421830207109
1783696331287829800,5.275829833984375,-0.015437223106622695,-0.0008129238180816173,-0.0030746216723695394
1783696331297793500,5.28579345703125,-0.025764555853605268,-0.011107377208769321,-0.006487316192686558
1783696331307756500,5.295756591796875,-0.021577625557780266,-0.006278751475922763,-0.013791720921918748
1783696331317719800,5.3057197265625,-0.023074586117267606,-0.009174947841465473,-0.004473346021771431
1783696331327682600,5.3156826171875,-0.03729132751822471,-0.0057584173962473865,-0.013686653112247586
1783696331345741600,5.333741455078125,-0.04746434648633003,-0.013088431490771471,-0.0008341858018189668
1783696331355705600,5.34370556640625,-0.026667642173171042,0.004943776545114815,-0.006544672403112054
1783696331365668600,5.353668701171875,-0.010806640696525573,0.010167137216590344,0.0114508568841964
1783696331375631600,5.363631591796875,-0.024569208589196204,-0.004277385058254003,-0.0008794131830334663
1783696331385594600,5.3735947265625,-0.038196751925349236,-0.014631459681689739,-0.0086708342442289
1783696331395558700,5.38355859375,-0.01739595595896244,0.004746646537818014,-0.00725187082439661
1783696331405521700,5.393521728515625,-0.03444821304678917,-0.010738397765904665,0.006866853562183678
1783696331415484700,5.403484619140625,-0.025925883895158767,-0.005554126995801926,-0.011906162903644144
1783696331425448700,5.41344873046875,-0.0232318225055933,0.011804090768657623,-0.00205422911606729
1783696331435411700,5.42341162109375,-0.05195639720857143,0.007132811021991074,-0.006958696564100682
1783696331445374500,5.43337451171875,-0.03340717956125736,0.013896679133735596,-0.0105671693848446
1783696331455337500,5.44333740234375,-0.026525018832087514,0.011782901850156485,0.004898403033427894
1783696331465301500,5.453301513671875,-0.040588615497946734,-0.009017821050994098,-0.005195668946951627
1783696331475264500,5.463264404296875,-0.03580781096220016,-0.008246179091371595,-0.010396927384473382
1783696331485227500,5.4732275390625,-0.028769582888484,-0.0035080081209540367,0.0005972717734053731
1783696331495191600,5.483191650390625,-0.032955344140529634,-0.012616649260558187,-0.010627886596135795
1783696331505154600,5.493154541015625,-0.02368190436065197,-0.006881941533461213,-0.008029284937679767
1783696331515117600,5.50311767578125,-0.03759995507597923,0.00019314795192331075,-0.009074848467856646
1783696331525080600,5.51308056640625,-0.02772913392484188,-0.01253160132560879,-0.004329626702144742
1783696331535043000,5.52304296875,-0.02399111644029617,0.0031423531463369726,-0.01930127812363207
1783696331545006000,5.533006103515625,-0.019497896674275397,0.007991108351759611,0.0014976181466132403
1783696331554969000,5.542968994140625,-0.037754853376746174,-0.005462503189593553,0.006887677154503762
1783696331564933000,5.55293310546875,-0.036411622074246405,-0.0004174947597086429,-0.00626779169049114
1783696331574896000,5.562896240234375,-0.02144318552315235,-0.004004011476971209,-0.0031077932896092534
1783696331584859100,5.572859130859375,-0.04538520212471485,-0.008984722498990594,-0.004898585696518421
1783696331594822100,5.582822265625,-0.017556699478626252,-0.005744096609950065,-0.013694544157758354
1783696331604786200,5.5927861328125,-0.03431143492460251,0.005286817829124629,-0.004646474098972976
1783696331614749200,5.602749267578125,-0.043292613759636875,-0.009967559523880481,-0.00413147378154099
1783696331624712000,5.6127119140625,-0.020102292308211325,-0.0036945436690002677,-0.010148322918266058
1783696331634676200,5.62267626953125,-0.03236731511950493,-0.0028435163302347063,0.0051762701267376535
1783696331644639000,5.632638916015625,-0.03551145836412906,0.002094524593837559,-0.013474800459854304
1783696331655225000,5.64322509765625,-0.03267126650214195,0.00839311328139156,-0.003973762469179928
1783696331665188000,5.65318798828125,-0.02997954320013523,-0.0009838599381968378,-0.004885287823528051
1783696331675151000,5.663151123046875,-0.03866963013410568,0.0021200243612751364,-0.011458309538289904
1783696331685115100,5.673115234375,-0.03478080600202083,-0.0024029694885015487,-0.006416698641888797
1783696331695078100,5.683078125,-0.037621582385897634,0.0039059944625943897,0.004105133763886988
1783696331705041200,5.693041259765625,-0.03792670281231403,-0.003973324077762663,-0.002526997726969421
1783696331715005200,5.703005126953125,-0.031495208460092544,0.009792970141954719,-0.006633885056525468
1783696331724968200,5.71296826171875,-0.03374327964782715,-0.0014864391654729843,0.00022577157989144323
1783696331734931000,5.722930908203125,-0.025671032351255417,-0.004092603075876832,-0.007736549068801104
1783696331744894000,5.73289404296875,-0.020879121899604797,0.005698905761353671,-0.005019106803648174
1783696331754858000,5.74285791015625,-0.032547347861528395,-0.00019380553904920815,-0.01103540795110166
1783696331764821000,5.752821044921875,-0.02312543952167034,0.002204743502661586,-0.0075934873363003134
1783696331774784000,5.762783935546875,-0.03299859876036644,-0.001822868045605719,0.002775675258412957
1783696331784748000,5.772748046875,-0.0461585245847702,-0.019561974886432288,-0.005881166993081569
1783696331794711000,5.7827109375,-0.023867197799682615,-0.01148629352375865,-0.0014057020794600247
1783696331804674000,5.792674072265625,-0.022517536756396294,-0.004987652219459415,0.000963547802530229
1783696331814637300,5.80263720703125,-0.03898118030130863,-0.0009838599381968378,0.0043650268090888854
1783696331824601000,5.81260107421875,-0.027613983112573622,-0.0004051467347890138,-0.006972140567563474
1783696331834564000,5.822564208984375,-0.026111177334189415,-0.014199571070447564,0.004101005578041076
1783696331844527000,5.832527099609375,-0.03599193535745144,-0.008735131652094424,-0.011129662105813622
1783696331854491000,5.842490966796875,-0.007118307572603225,0.017217201858572662,0.0090158117569983
1783696331864454100,5.8524541015625,-0.03286006707251072,0.011288615527190267,0.003967369261011481
1783696331874417200,5.862417236328125,-0.03151917385756969,-0.014955759732611476,-0.0022736074877902864
1783696331884380200,5.872380126953125,-0.014914660537242889,0.004243921180069447,-0.004423771259002387
1783696331894344200,5.88234423828125,-0.0396013580262661,-0.005009937116503715,-0.0006677066611126065
1783696331904307200,5.89230712890625,-0.03062836249768734,-0.003930909708142281,-0.008797164037637412
1783696331914270200,5.902270263671875,-0.015368834045529365,-0.0022872341543436047,-0.000007306523621082306
1783696331924234200,5.912234130859375,-0.03347264601290226,-0.0017083017552271484,0.005190335184708237
1783696331934197200,5.922197265625,-0.026001287218928335,-0.004003865346498787,0.014342486672475932
1783696331944160000,5.932159912109375,-0.02600537887215614,0.0031708485884591937,-0.008877791525796055
1783696331954123000,5.942123046875,-0.042611645758152,-0.002630640764534473,-0.004983560566231608
1783696331964087000,5.952087158203125,-0.023912205985188482,-0.004661452472396195,-0.010747238659486173
1783696331974050000,5.962050048828125,-0.01837619916796684,0.01089033692460507,-0.014305661793425678
1783696331984013000,5.972012939453125,-0.037376667714118954,-0.0019863880442455408,0.009986556485295296
1783696331993977000,5.98197705078125,-0.032892800298333164,-0.004042480323836207,-0.009370360815711319
1783696332003940000,5.991940185546875,-0.015235563054680823,0.0005213935256004333,-0.006572546790726483
1783696332013903000,6.001903076171875,-0.04141980562508106,-0.006343889134004712,0.007862842329591512
1783696332023866000,6.0118662109375,-0.015242577317357063,0.0031768034052103754,-0.012198241185396908
1783696332033830100,6.021830078125,-0.028856676650047302,0.008197481111437081,-0.0065033540120348335
1783696332043793200,6.031793212890625,-0.056234512919187546,-0.0022937004277482627,-0.004109883004240691
1783696332053756000,6.041755859375,-0.021669980016350746,-0.0117661333784461,-0.010441862504743039
1783696332063720000,6.051719970703125,-0.029740473747253415,0.007402714004553854,0.00846351163648069
1783696332073683000,6.061682861328125,-0.03602349953949451,0.0016178469927981495,-0.0018399287782609461
1783696332083646000,6.07164599609375,-0.01851882250905037,0.008956994241848587,-0.007146072362363338
1783696332093609200,6.081609130859375,-0.037516368445754046,0.01322188514471054,-0.00289667128957808
1783696332103573000,6.091572998046875,-0.032279636836051936,0.004711940550617874,-0.009935191624239087
1783696332113536000,6.101535888671875,-0.021965748092532156,-0.00027998598515987394,-0.009732545191608368
1783696332123499300,6.111499267578125,-0.02555588153898716,-0.0005475874127820134,0.000660473202727735
1783696332133463000,6.121463134765625,-0.012999182304739952,-0.011696831001900136,-0.003618555823341012
1783696332143426300,6.13142626953125,-0.013608254113793372,0.012926993851363658,-0.009703355629742144
1783696332153389300,6.141389404296875,-0.05400689999759197,-0.009472688679024576,0.0015110256174579262
1783696332163352000,6.15135205078125,-0.03410217608809471,-0.02031809048335999,-0.00013056757710874079
1783696332173316000,6.161316162109375,-0.019435352832078933,0.004110723254457116,-0.010969576173275708
1783696332183279000,6.171279052734375,-0.03513911792039871,0.002842603014782071,-0.0015265885127708316
1783696332193242000,6.1812421875,-0.035440146693587304,-0.00941573432739824,-0.005995112228952348
1783696332203206100,6.1912060546875,-0.010452420431375503,-0.011017470435611904,-0.0010648527525365353
1783696332213169200,6.201169189453125,-0.03663490943610668,-0.00945482422877103,0.0068217723114416
1783696332223132200,6.211132080078125,-0.039782559812068935,0.0016652297984808683,-0.014338029693067073
1783696332233095200,6.22109521484375,-0.02317161675095558,0.0036953473865985868,-0.006058934712782502
1783696332243059200,6.23105908203125,-0.033794717574119566,-0.0018021540511399506,0.014655498144403098
1783696332253022200,6.241022216796875,-0.034252398213744165,0.004967376616410911,-0.009684504798799752
1783696332262985000,6.25098486328125,-0.03904080153405666,0.008509104343876242,-0.0054280894633382554
1783696332272949200,6.26094921875,-0.03529810787439346,-0.0021215221986174582,0.007253953183628618
1783696332282912000,6.270912109375,-0.03245850053429603,0.009678696112520993,0.0008040829245001077
1783696332292875000,6.280875,-0.017343933510780334,-0.008061652837321161,0.0008703896263614297
1783696332302838000,6.290838134765625,-0.0299111541390419,-0.0010073138790205121,0.005862571890465915
1783696332312802000,6.300802001953125,-0.040241409495472905,0.01295198216214776,-0.0067590823387727135
1783696332322765000,6.31076513671875,-0.03110883949100971,-0.0020775369264185426,0.0023253742076456544
1783696332332728000,6.32072802734375,-0.03305179025232792,-0.0049259851600974795,0.004801737725920975
1783696332342692000,6.330692138671875,-0.025275311031937597,-0.004152954960986972,-0.012747180305048823
1783696332352655000,6.340655029296875,-0.027663082951307295,-0.00511778140515089,-0.0032602439049631356
1783696332362618000,6.3506181640625,-0.04127601324021816,-0.020403028820455072,-0.003958893693611025
1783696332372581000,6.3605810546875,-0.02242342873215675,-0.005475362671166658,-0.000864032950811088
1783696332382545000,6.370544921875,-0.034090485650300976,0.005241261654347181,-0.006614011312276125
1783696332392508000,6.3805078125,-0.0435182392090559,-0.007025660853087902,-0.00720171153973788
1783696332402471200,6.39047119140625,-0.03245090174973011,0.0026932576719671487,0.0013721286034211516
1783696332412435000,6.40043505859375,-0.033195582637190815,0.004791398994997143,-0.0002437090953812003
1783696332422398200,6.410398193359375,-0.0424766212016344,-0.002932071396522224,-0.0014118030266836285
1783696332432361200,6.420361328125,-0.035004093363881106,0.012885675460286438,-0.01219743746779859
1783696332442324200,6.43032421875,-0.03006137626469135,-0.005818878879211843,0.005608852857723832
1783696332452288300,6.440288330078125,-0.024529461100697515,-0.004229746524244547,-0.0005102876096963882
1783696332462251300,6.450251220703125,-0.028569676402211187,0.022911760238371787,-0.013403013865277171
1783696332472214000,6.460214111328125,-0.03514437861740589,-0.010029409246332943,-0.002867116401530802
1783696332482178300,6.47017822265625,-0.025711948883533477,-0.009797573251836002,-0.00023337036445736885
1783696332492141000,6.48014111328125,-0.01734276446700096,-0.004898731826990843,-0.00113495884668082
1783696332502104000,6.49010400390625,-0.03574702068567276,-0.0014194018112495541,0.00012848521787673235
1783696332512067000,6.500067138671875,-0.019590835654735565,0.011368402765132487,-0.0025181568333879113
1783696332522031000,6.510031005859375,-0.023334113836288452,0.009272964855842291,-0.015163886057958006
1783696332531994600,6.51999462890625,-0.03500175527632236,-0.003593786708265543,-0.0033181115720421076
1783696332541957600,6.52995751953125,-0.027971125987172125,0.006060030691325664,-0.012883885361999272
1783696332551921700,6.539921630859375,-0.027521628654003143,0.004412848006188869,0.0016198197541758418
1783696332561884700,6.549884765625,-0.02976853079795837,-0.005932458788901567,-0.007610401938483119
1783696332571847700,6.55984765625,-0.03157002726197242,-0.005178827410005033,-0.005961136894114315
1783696332581810700,6.569810791015625,-0.021244448080658913,-0.001306662151776254,0.00048672407101839777
1783696332591774700,6.579774658203125,-0.027526304829120635,-0.013582425552792847,-0.0058741161977872245
1783696332601737700,6.58973779296875,-0.017204817301034927,0.006414908543601632,-0.009293130861036478
1783696332611700700,6.59970068359375,-0.03486322358846664,0.001473104759864509,0.011844203583337366
1783696332621663500,6.60966357421875,-0.037862405404448504,-0.016703699378482997,-0.0018466507799923418
1783696332631627800,6.619627685546875,-0.016624971586465833,0.006623838586546481,-0.007380757901072501
1783696332641590500,6.629590576171875,-0.025155484044551847,-0.008801584484428167,-0.008541143449954687
1783696332651553500,6.639553466796875,-0.051043958538770674,-0.012687376409210263,-0.011656060600094496
1783696332661517600,6.649517578125,-0.022463760742545125,-0.004071560287848114,-0.0024237200155854226
1783696332671480600,6.65948046875,-0.032924949002265926,-0.0052872927531599995,-0.004380078247748315
1783696332681443600,6.669443603515625,-0.03262333570718765,0.002490830435045063,-0.00787950120344758
1783696332691406800,6.67940673828125,-0.03591770107746124,0.002276566629856825,-0.004728416761383414
1783696332701370600,6.68937060546875,-0.031572949871420855,0.009137100049108266,0.002482720193825662
1783696332711333600,6.699333740234375,-0.03262333570718765,0.0036480741787701843,-0.005440912412293255
1783696332721297000,6.709296875,-0.0028489596903324126,0.0067536389786750075,-0.00752575586233288
1783696332731260700,6.7192607421875,-0.030981413719058035,0.0019469328166916964,-0.010771496317908167
1783696332741223700,6.7292236328125,-0.04595452644526958,-0.00661492462772876,-0.005725355376861989
1783696332751186700,6.739186767578125,-0.0259112708479166,0.012698116998933254,-0.0008679784735664724
1783696332761149700,6.749149658203125,-0.03279460062086582,-0.003423617773130536,0.0005788228012621403
1783696332771113700,6.75911376953125,-0.04671674298942089,-0.01572762088794261,-0.007179791968874633
1783696332781076700,6.76907666015625,-0.02262742687165737,-0.00359309258852154,-0.00024915245547890664
1783696332791039700,6.779039794921875,-0.04147124355137348,-0.006512706362269818,0.005226027552597224
1783696332801003800,6.789003662109375,-0.04222469226717949,0.008389460019581019,-0.007015322122164071
1783696332810966800,6.798966796875,-0.030105215406417845,0.006283062324859202,0.008752923037111759
1783696332820929800,6.8089296875,-0.04356909261345863,0.0009861980257555843,0.002390292670018971
1783696332830892800,6.818892822265625,-0.02860883936882019,0.012791129044629633,-0.001515446064248681
1783696332840856800,6.82885693359375,-0.02037701759636402,0.0052268678028136485,0.0012301993820816278
1783696332850819600,6.838819580078125,-0.03683247783482074,0.003738054017163813,-0.0011635638866573572
1783696332860782600,6.848782470703125,-0.012446224597096442,0.0012089373983442783,-0.005836524133756757
1783696332870745600,6.85874560546875,-0.02351882275342941,0.004039557714387774,-0.0032896161299198865
1783696332880709600,6.868709716796875,-0.05075345115959644,-0.020761121543124317,-0.0015195011848583816
1783696332890672600,6.878672607421875,-0.02861000841259956,0.001224171500094235,-0.0020211305640637873
1783696332900635600,6.8886357421875,-0.02442074002921581,0.009204685392603277,0.01004862540345639
1783696332910599700,6.898599609375,-0.038489012870192525,-0.0020815189817920327,-0.012897694691643117
1783696332920562700,6.908562744140625,-0.01874094082713127,0.0017699322819709777,-0.0043501580335199835
1783696332930525700,6.918525634765625,-0.02547229490876198,0.0026187676636502144,0.004481894654408097
1783696332940488700,6.92848876953125,-0.05854337438344955,-0.008250416875071822,-0.0028865152217447754
1783696332950452700,6.93845263671875,-0.013951368463039397,-0.0008276829957962036,-0.0052131680710241195
1783696332960415500,6.94841552734375,-0.017839608073234557,-0.004891169575043023,-0.004488908917084336
1783696332970378800,6.958378662109375,-0.03220598707795143,-0.0059443318897858255,-0.008346716856397688
1783696332980342500,6.968342529296875,-0.014104513198137282,0.004391549489833414,0.0012070011695846914
1783696332990305500,6.978305419921875,-0.037595278900861735,-0.0009727540222927928,0.002457330024242401
1783696333000268800,6.988268798828125,-0.033410102170705794,-0.00044960693102329965,-0.0054547217419371
1783696333010231800,6.998231689453125,-0.0235322667568922,0.010650829080305993,-0.008316065989807248
1783696333020195800,7.00819580078125,-0.02638064192533493,-0.009616919455304742,-0.0017117723539471625
1783696333030158800,7.018158935546875,-0.018912790262699125,-0.01549936509002,-0.006729198657162487
1783696333040121900,7.028121826171875,-0.015623101067543029,-0.007718136629275977,-0.001578209102153778
1783696333050084600,7.038084716796875,-0.021161445972323417,0.0029303543634712696,0.0032312735388055442
1783696333060048600,7.048048583984375,-0.01921849521100521,-0.009907024975679813,-0.007510485227964818
1783696333070011600,7.05801171875,-0.01936754829287529,-0.0032040567383170124,0.01240698856525123
1783696333079974700,7.067974609375,-0.03687514793276787,0.006092910047620534,0.008199307742342352
1783696333089938700,7.077938720703125,-0.03747954356670379,-0.00999853918403387,-0.005950323239155114
1783696333099901700,7.087901611328125,-0.021916648253798483,-0.0017704802712425589,-0.008355119358561933
1783696333109864700,7.09786474609375,-0.030747604963183402,-0.010514270153827965,-0.004215498803183436
1783696333119827700,7.10782763671875,-0.03434475267231464,-0.000856836025044322,-0.004591492508724332
1783696333129791700,7.117791748046875,-0.0229746328741312,0.010855448274314403,0.0009526610823348164
1783696333139754800,7.127754638671875,-0.03779050921201706,-0.00419810927696526,-0.007166603693738579
1783696333149717500,7.137717529296875,-0.032710429468750954,0.008535371296294033,-0.0008162482863292098
1783696333159680500,7.147680419921875,-0.024331308180093762,0.014755232191830872,0.004662073526903987
1783696333169644500,7.15764453125,-0.04722352346777916,-0.003499349890463054,-0.003179579884186387
1783696333179607600,7.167607666015625,-0.018346388551592825,-0.007555310750380158,-0.02134009047485888
1783696333189570600,7.177570556640625,-0.02028466313779354,0.0018595833268016575,-0.0009604790626093745
1783696333199534600,7.18753466796875,-0.026125790381431577,-0.00386737948525697,-0.0015566183248534797
1783696333209497600,7.19749755859375,-0.027634441378712654,0.003448642616532743,0.006846724089607596
1783696333219460600,7.207460693359375,-0.03182604784965515,-0.0022351021083071828,0.004342741912044585
1783696333229423900,7.217423828125,-0.041399931880831714,-0.009554010286927223,-0.016498057271167633
1783696333239387600,7.2273876953125,-0.025686814442276953,-0.0023475495068356394,-0.005284991198219359
1783696333249351000,7.237350830078125,-0.02373334228694439,-0.00618084405940026,-0.006751702749915421
1783696333259313700,7.247313720703125,-0.040948096460103986,-0.005657148978859185,-0.009957293858192861
1783696333269277700,7.257277587890625,-0.02868424269258976,0.01680321423020214,-0.01159512419309467
1783696333279240700,7.26724072265625,-0.02942658549249172,-0.002502009416185319,-0.004113828526996076
1783696333289203700,7.27720361328125,-0.03421849594414234,0.010433825328759848,0.00606762947589159
1783696333299166700,7.287166748046875,-0.024050153151154517,0.01199234334975481,-0.002200323055870831
1783696333309130800,7.297130859375,-0.0393090970814228,0.0022986323311924932,0.00542717614788562
1783696333319093800,7.30709375,-0.04020575366020202,-0.0017565978763625025,-0.012692052584327757
1783696333329056800,7.317056884765625,-0.024348259314894673,0.01049074314776808,0.010652436515502631
1783696333339019800,7.327019775390625,-0.025841712743043897,-0.010871522626280784,0.012765300483629108
1783696333348983800,7.33698388671875,-0.04230944794118404,0.002014335497096181,0.006371763521619141
1783696333358946800,7.34694677734375,-0.02690086640715599,0.012884725612215696,0.01478343537300825
1783696333368909600,7.35690966796875,-0.04095978689789772,-0.005267236345820128,0.0041681159975007175
1783696333378873600,7.36687353515625,-0.026447861942648886,-0.0032067236194387077,0.0007123860530555248
1783696333388836600,7.376836669921875,-0.04201017273366451,-0.004595876422896981,-0.0014810323379933832
1783696333398799600,7.386799560546875,-0.03812017955780029,-0.0051241015480831265,-0.0006458601554855704
1783696333408762600,7.3967626953125,-0.028100889846682547,-0.005122128786705434,-0.0012266557181254028
1783696333418726700,7.4067265625,-0.029742227312922476,-0.0023631124021485446,0.008938399139232934
1783696333428689700,7.416689697265625,-0.041405777099728584,-0.013512903980538248,-0.009304419440031051
1783696333438652700,7.426652587890625,-0.014316694644093513,0.006257854818366468,-0.011652005479484796
1783696333448615700,7.43661572265625,-0.022989245921373365,0.009321480172686279,0.005022979261167347
1783696333458579700,7.446579833984375,-0.04063537724912166,-0.007837269496917725,0.0072255308067426085
1783696333468542500,7.45654248046875,-0.01564706646502018,0.0018504136396571994,-0.0009137173114344478
1783696333478505700,7.466505615234375,-0.02851122421324253,0.0013728227231651544,0.006168897893279791
1783696333488469500,7.476469482421875,-0.04064005342423915,-0.00666866410896182,-0.0004351765468716621
1783696333498432500,7.4864326171875,-0.03017301994562149,0.010545103683508932,-0.005611154412664473
1783696333508395800,7.496395751953125,-0.028525252738595006,0.006644150722213089,-0.00039787674378603696
1783696333518358800,7.50635888671875,-0.04079845885634422,-0.00361395271345973,0.004228175621666014
1783696333528322800,7.51632275390625,-0.03691080376803875,-0.0000903451645746827,-0.011165464071556925
1783696333538286000,7.5262861328125,-0.029271687191724776,0.003609166940487921,-0.003082293522171676
1783696333548249000,7.5362490234375,-0.029723522612452504,-0.0038002690657973287,-0.016279847943224013
1783696333558212000,7.546212158203125,-0.02553893040418625,0.005945647064037621,-0.0022307912593707443
1783696333568176000,7.556176025390625,-0.03525952942967415,-0.007492986103892326,0.01656776150651276
1783696333578139000,7.566138916015625,-0.0295756385743618,-0.00015153729990124702,-0.005667633840255439
1783696333588102000,7.576101806640625,-0.021198855373263357,0.00683507018443197,-0.011820713109895586
1783696333598066000,7.58606591796875,-0.022388941940665243,-0.003617167583853006,-0.0030700550951063632
1783696333608029000,7.59602880859375,-0.022982816180586813,-0.013983261438645422,0.005684256181493401
1783696333617992000,7.605991943359375,-0.029418986707925796,-0.0020653715645894406,0.0010175430120900272
1783696333627955000,7.615954833984375,-0.031207623690366743,-0.009339892612211406,0.007075418278947472
1783696333637919000,7.6259189453125,-0.03644903147518635,-0.0005341068767011166,-0.012830255478620529
1783696333647882000,7.635882080078125,-0.03899403978288173,0.011530607589520514,-0.0031518516270443793
1783696333657845000,7.645844970703125,-0.050964463561773296,0.0026016338657587766,0.013688808536715804
1783696333667809000,7.65580908203125,-0.028974165549874305,0.005656929783150554,-0.006271554550155997
1783696333677772000,7.66577197265625,-0.026875731965899465,-0.004558649685047567,0.007894406511634589
1783696333687734800,7.67573486328125,-0.04767302080094814,-0.015278744609281419,-0.004210384236648678
1783696333697697800,7.68569775390625,-0.026128128468990323,-0.012796389741636813,-0.01586275504231453
1783696333707661800,7.695661865234375,-0.026577041280269623,-0.00003634995501488447,0.011455861852876842
1783696333717624800,7.705624755859375,-0.042133506852388376,0.003686543025635183,0.0014391659576445818
1783696333727587800,7.715587890625,-0.03405541433691978,0.007704436897486447,-0.003389715503528714
1783696333737550800,7.72555078125,-0.03569850536882877,0.0005007891289889812,0.017194588167965413
1783696333747515000,7.735514892578125,-0.02866027729511261,-0.001609809816814959,-0.013162921499088405
1783696333757478000,7.745477783203125,-0.0316582900673151,0.002543510470353067,-0.005934979539550841
1783696333767441200,7.755441162109375,-0.02611702255308628,0.010396087134256958,0.01454864023644477
1783696333777405000,7.765405029296875,-0.03464402787983417,-0.014579327635653316,0.0009811565244570374
1783696333787368000,7.775367919921875,-0.03075461922585964,0.01858863634224981,-0.01805431026984006
1783696333797331000,7.7853310546875,-0.025217443364858625,-0.015219050311297177,0.014677454247884452
1783696333807294000,7.7952939453125,-0.028812837508320806,-0.003925795141607523,-0.002502520872838795
1783696333817258000,7.805258056640625,-0.027018355306982992,0.003095408732071519,-0.014871625113114713
1783696333827221000,7.815220947265625,-0.021176059019565582,0.010023417896963656,0.006179528885148465
1783696333837184000,7.82518408203125,-0.0421282461553812,-0.001485270121693611,0.005049246213585138
1783696333847147000,7.83514697265625,-0.01638765569925308,0.0004988894328474998,-0.0008677227452397346
1783696333857111000,7.845111083984375,-0.03733282857239246,-0.008864968576841057,0.002265570311807096
1783696333867074000,7.855073974609375,-0.035383448070287704,-0.006409720911830663,-0.011206344071216881
1783696333877037000,7.865037109375,-0.0316407544106245,0.009738792269304394,-0.014079853680916129
1783696333886999800,7.874999755859375,-0.04315291302800178,-0.00842160872351378,0.006054916124790906
1783696333896963800,7.8849638671875,-0.03133855659365654,-0.0025864362966269254,-0.005311038954928517
1783696333906926800,7.8949267578125,-0.02355681667625904,0.014277750873193143,-0.01424808638729155
1783696333916889900,7.904889892578125,-0.03506897529363632,-0.005086874810233712,-0.0023309636982157826
1783696333926854000,7.91485400390625,-0.008131284007430076,-0.018411818470619616,-0.009878967924974858
1783696333936817000,7.92481689453125,-0.01142331129014492,0.0005571224261075257,0.00212660023253411
1783696333946780000,7.93477978515625,-0.04913491004705429,-0.00905260010343045,0.007290376203879714
1783696333956743000,7.944742919921875,-0.024895956325531005,0.003363996540382504,-0.014483685241453348
1783696333966707000,7.95470703125,-0.02429974399805069,0.01575582406911999,0.008221154247969388
1783696333976670000,7.964669921875,-0.03642272799015045,-0.01214647446554154,-0.00828388075325638
1783696333986632700,7.9746328125,-0.02460895607769489,0.0005284443208947777,-0.003569309854134917
1783696333996596000,7.984595947265625,-0.01637771882712841,-0.0006537877336144447,0.007750467996299267
1783696334006559700,7.994559814453125,-0.02550561265647411,-0.006397774745710193,-0.0032874972380697726
1783696334016523000,8.00452294921875,-0.0328477921128273,0.0020389219490811227,-0.007865764939039946
1783696334026486000,8.014486083984375,-0.025368250012397765,0.001387618433497846,-0.007478482654504477
1783696334036449800,8.02444970703125,-0.030906010395288466,-0.00891023249067366,-0.011526844729855656
1783696334046413000,8.0344130859375,-0.028513562300801275,-0.010325286920368671,0.011970058452710508
1783696334056376000,8.0443759765625,-0.022522212931513786,-0.009220796277187764,0.01984334911108017
1783696334066339000,8.054339111328124,-0.027752514800429343,-0.016535978128761054,0.005713591873832046
1783696334076303000,8.06430322265625,-0.030747020441293713,-0.0014351473696529865,-0.006787796976603568
1783696334086266000,8.07426611328125,-0.02729600320458412,-0.0003443929908797145,0.004152735765278339
1783696334096228900,8.084228759765624,-0.014120879811048507,-0.0008493103057146072,-0.009437909626588225
1783696334106192000,8.09419189453125,-0.027733810099959372,0.011932685584388673,-0.006745126878656447
1783696334116156000,8.104156005859375,-0.028178631258010862,-0.005743439022824168,0.013803155631385743
1783696334126119000,8.114118896484374,-0.02983224368393421,-0.01129329170230776,-0.011899148640967906
1783696334136082000,8.12408203125,-0.026696868267655372,0.005124832200445234,-0.009749642456881702
1783696334146045000,8.134044921875,-0.02789163101017475,0.008897226878628135,0.006762041480839252
1783696334156009000,8.144009033203124,-0.026400515669584273,-0.007063837439008056,-0.000935490751825273
1783696334165972000,8.153971923828125,-0.0323947876483202,-0.0021637173725292083,-0.0015888035614043472
1783696334175935000,8.16393505859375,-0.040621348723769185,-0.012634331047721206,0.0033942820807918903
1783696334185899000,8.17389892578125,-0.03583352992534637,-0.005309614182822406,-0.004212466595880687
1783696334195862000,8.183862060546875,-0.020126257705688474,0.0059741790387779475,-0.004598981695435941
1783696334205824800,8.19382470703125,-0.03613338965475559,-0.0021483736729249357,-0.010958835583552717
1783696334215787800,8.203787841796874,-0.02401858896911144,-0.0006027151335030793,-0.012952310955710708
1783696334225751800,8.213751708984375,-0.0271574715167284,0.00801054370459169,0.004250423986092209
1783696334235714800,8.22371484375,-0.031191257077455518,-0.007588117041438818,-0.006506678480282426
1783696334245677800,8.233677734375,-0.025506197178363797,0.005072773219645023,-0.008336231995001435
1783696334255641000,8.24364111328125,-0.019967267751693725,0.009038608110696077,0.008006671247072517
1783696334265604900,8.25360498046875,-0.03252630507349968,-0.0005517886638641358,-0.00599708499033004
1783696334275568000,8.263568115234374,-0.021160276928544042,0.00624700463078916,-0.0036522388972342014
1783696334285531100,8.27353125,-0.022806290569901466,0.0016365882258862255,0.0024442513469606635
1783696334295495000,8.283494873046875,-0.040614334461092944,-0.011324709753878413,-0.006879055456630885
1783696334305458000,8.2934580078125,-0.029096915146708487,-0.0028969635505229235,0.001875146222114563
1783696334315421000,8.3034208984375,-0.04060965828597545,-0.005296645103394985,0.003910232246294617
1783696334325384000,8.313384033203125,-0.045239071652293204,-0.00690218060389161,-0.003405972518585622
1783696334335348000,8.323347900390624,-0.02144318552315235,-0.007464527194388211,-0.00933722573108971
1783696334345311000,8.33331103515625,-0.01724339574575424,0.0022779914019629356,-0.0003057780135422945
1783696334355274000,8.34327392578125,-0.03939093014597893,-0.004501731866039336,0.004376278855465352
1783696334365237000,8.353237060546874,-0.016801497197151183,-0.0031504999201744793,-0.010288498573936522
1783696334375201000,8.363200927734376,-0.031761750441789624,0.007739654341340064,0.016743045008182526
1783696334385164000,8.3731640625,-0.04134323325753212,0.01309719931911677,0.004899572077207267
1783696334395126800,8.383126708984374,-0.019653964018821714,-0.002025258749909699,0.0037918300310149787
1783696334405091000,8.393091064453126,-0.02892681927680969,-0.0016033800760284066,0.012074651338346301
1783696334415053800,8.4030537109375,-0.04179799128770828,-0.002458243339695036,-0.005416289427690207
1783696334425016800,8.413016845703124,-0.025941081464290618,0.00873651989158243,-0.011530461459048092
1783696334434979800,8.422979736328125,-0.03267009745836258,-0.007665054735168814,-0.005561287388950586
1783696334444944000,8.43294384765625,-0.03043137862086296,-0.007353358437493443,-0.0018243293503299354
1783696334454907000,8.442906982421874,-0.02220657111108303,0.004458659909293055,-0.0031462621364742515
1783696334464870000,8.452869873046875,-0.04060907376408577,0.010304536393284797,-0.0036937399514019487
1783696334474833000,8.4628330078125,-0.04225391836166382,-0.00854972861520946,0.0019634455600753427
1783696334484797000,8.472796875,-0.00753682524561882,-0.005581928318180144,-0.0023835706682875752
1783696334494760000,8.482760009765625,-0.033279169267415996,-0.0033470454055815934,0.0017525062231346963
1783696334504723000,8.492722900390625,-0.037626258561015126,-0.008530548990704118,-0.0015409092990681529
1783696334514686700,8.502686767578124,-0.03807575589418411,0.0032804829753935337,0.008967588701099156
1783696334524650000,8.51264990234375,-0.042861236605048175,-0.011662526873499154,0.0045207653600722545
1783696334534612500,8.522612548828125,-0.03807341780662536,0.00547368217073381,-0.007794124474935233
1783696334544575500,8.532575439453124,-0.027144027513265608,-0.002830876044370234,0.008296995963156223
1783696334554539500,8.54253955078125,-0.04165069177150726,-0.006457615174166858,-0.0034144480859860777
1783696334564502500,8.55250244140625,-0.0302770648419857,-0.0017300386629998683,-0.0020148469537496568
1783696334574465500,8.562465576171874,-0.01740413926541805,0.01172028494272381,0.005227488857321441
1783696334584428500,8.572428466796875,-0.032361469900608064,-0.00789550249017775,-0.008103336554579437
1783696334594392600,8.582392578125,-0.016948212191462517,0.014913235765136777,0.000675743837095797
1783696334604355300,8.592355224609374,-0.020537176594138146,0.010872107148170471,0.006146174604818225
1783696334614318300,8.602318359375,-0.04403144942820072,0.000052278176508843894,0.005280826479755342
1783696334624282400,8.612282470703125,-0.0049812955439090725,0.0015460969308391213,0.0009519669625908135
1783696334634245400,8.622245361328124,-0.023080431336164473,0.00997855584193021,0.009265840995311737
1783696334644208400,8.63220849609375,-0.05001403096914291,-0.010945537710562349,-0.0053237888386473056
1783696334654171400,8.64217138671875,-0.022929040166735647,-0.002717880656570196,0.0037965427387505767
1783696334664135400,8.652135498046874,-0.02996025397777557,-0.0003121712217107415,-0.007040346965566277
1783696334674098400,8.662098388671875,-0.030112814190983772,-0.019271394442021847,-0.012269187529757619
1783696334684061400,8.6720615234375,-0.014252397236227989,-0.010632599303871393,0.011913980883918701
1783696334694024400,8.6820244140625,-0.03624444881379604,-0.004794029343500733,0.004302446434274316
1783696334703988500,8.691988525390625,-0.030712533649802205,-0.012598382951505482,-0.007553520652092993
1783696334713951200,8.701951171875,-0.007818564796447753,0.005588650319911539,-0.002217566451616585
1783696334723914500,8.71191455078125,-0.03459258995354175,-0.0015913973772898316,-0.007118526768311858
1783696334733878300,8.721878173828125,-0.034893618726730344,-0.009552329786494373,-0.008237666991353034
1783696334743841500,8.731841552734375,-0.035792028871178626,0.007865691873803734,-0.0025537761360406876
1783696334753804500,8.741804443359374,-0.03758592655062675,0.002035670546069741,0.0006826850345358252
1783696334763767600,8.751767578125,-0.03130173171460628,-0.006022073301114142,-0.009070172292739152
1783696334773731600,8.761731689453125,-0.023819267004728317,0.009339892612211406,-0.002872157902829349
1783696334783694600,8.771694580078124,-0.04342003953158855,0.0020060425927862524,0.008290529689751564
1783696334793657600,8.78165771484375,-0.02771568992137909,0.0021445377480238674,-0.003791428172215819
1783696334803621600,8.79162158203125,-0.03759294081330299,0.0028820947749540206,-0.0023968320086598396
1783696334813584400,8.80158447265625,-0.04088555261790752,-0.0035264570930972692,0.006562938712164759
1783696334823547400,8.81154736328125,-0.030709026518464088,-0.003997362540476024,-0.006149206812120974
1783696334833510400,8.821510498046875,-0.026969839990139004,0.007080971236899495,0.005405293109640478
1783696334843474400,8.831474365234374,-0.040588615497946734,-0.007274119188822805,-0.001742532818391919
1783696334853437400,8.8414375,-0.036108839735388754,0.0007497223887592553,0.00020337708499282598
1783696334863400400,8.851400390625,-0.031021161207556724,-0.0032386531276628375,0.013899638275802135
1783696334873363500,8.861363525390624,-0.0477794037848711,-0.005002265266701579,-0.003691109602898359
1783696334883327500,8.871327392578126,-0.016058569875359533,-0.0006021306116133928,-0.019369192260690032
1783696334893290500,8.88129052734375,-0.02055003607571125,0.005449241849221288,0.011739683762937783
1783696334903253200,8.891253173828124,-0.028178046736121176,-0.01762150834314525,0.0013446926072239874
1783696334913217500,8.901217529296876,-0.020401567515730856,0.005441533466801047,-0.010071494822390377
1783696334923180300,8.91118017578125,-0.039244215151667594,-0.009062354312464594,-0.0003244827140122652
1783696334933143300,8.921143310546874,-0.036998482051491734,-0.01195420329645276,-0.003441847549565136
1783696334943106300,8.931106201171875,-0.020244915649294853,0.0013984686210751533,-0.004971029878221452
1783696334953070300,8.9410703125,-0.03864508021473884,-0.007924070997536182,-0.007153123157657683
1783696334963033300,8.951033447265624,-0.025924130329489706,-0.009026917672902346,-0.016713161326572298
1783696334972996400,8.960996337890625,-0.03685001349151134,0.004689765251427888,0.004069331798143685
1783696334982960400,8.97096044921875,-0.02936345712840557,0.0020345380349084735,-0.0013427563784644007
1783696334992923400,8.98092333984375,-0.03250876941680908,-0.013345840317942202,-0.0027964623181149363
1783696335002886700,8.99088671875,-0.0202384859085083,0.0038014381095767017,0.008350150922499596
1783696335012849400,9.000849365234375,-0.03864098856151104,-0.006644735244102776,0.0007559694664552808
1783696335022813400,9.0108134765625,-0.02577157011628151,-0.023115064258128402,-0.010328392192907631
1783696335032776400,9.0207763671875,-0.02742109088897705,-0.0038424277070909737,0.015699308108910917
1783696335042739500,9.030739501953125,-0.03609481121003628,0.0019328312261030077,0.013841661010868847
1783696335052702500,9.040702392578124,-0.03086275577545166,-0.006865684518404304,0.000032440964877605434
1783696335062666500,9.05066650390625,-0.024279870253801343,-0.00916135770753026,-0.011845591822825371
1783696335072629500,9.06062939453125,-0.0344470440030098,-0.007374730019085109,0.003657536126859486
1783696335082592500,9.070592529296874,-0.02592179224193096,-0.005263875344954431,0.0010541121628135442
1783696335092556500,9.080556640625,-0.03968319109082222,0.005411394056864083,0.009262406929209828
1783696335102519600,9.09051953125,-0.035194647499918935,-0.006592091741412878,0.0022351751735433935
1783696335112482600,9.100482666015624,-0.03161620449125767,-0.0068599123647436495,0.0010216711979359387
1783696335122445300,9.1104453125,-0.02638005740344524,0.009370762674510478,0.0007968129334971309
1783696335132409300,9.120409423828125,-0.03595686404407024,-0.009568659866787493,0.009837832196988165
1783696335142372400,9.130372314453124,-0.025793781948089598,-0.008242927688360213,-0.0011903788283467293
1783696335152335400,9.14033544921875,-0.01936228759586811,0.010693754906579851,0.006417173565924167
1783696335162299400,9.15029931640625,-0.029831659162044524,-0.014194493036530911,0.0015370368415489792
1783696335172262400,9.160262451171874,-0.022498832055926322,-0.004571326503530144,-0.007777794394642114
1783696335182225400,9.170225341796876,-0.030425533401966093,-0.005688274769484997,0.003726582775078714
1783696335192188400,9.1801884765625,-0.03207505417466163,-0.006217486275359988,-0.004492671776749194
1783696335202152400,9.19015234375,-0.01831131723821163,-0.0005767769746482372,-0.005244330394268036
1783696335212115500,9.200115478515626,-0.03386544472277164,0.0014519523739814758,0.004629742159880697
1783696335222078200,9.210078125,-0.03565583527088165,-0.01371503895651549,-0.005475618399493396
1783696335232041500,9.22004150390625,-0.02069207489490509,0.0019744418781250713,-0.006642762482725084
1783696335242005200,9.230005126953126,-0.025175357788801193,0.0176711196385324,-0.00827328629400581
1783696335251968300,9.23996826171875,-0.03162204971015453,-0.0122258598446846,-0.003391834395378828
1783696335261931500,9.249931640625,-0.022345687320828436,0.013780432342924177,0.001485525850020349
1783696335271895300,9.259895263671876,-0.03491173890531063,-0.00975051923971623,0.002024199303984642
1783696335281858600,9.269858642578125,-0.03507072885930538,0.0010769815817475317,-0.014831914157234132
1783696335291821600,9.279821533203124,-0.030587445965409278,-0.0005645750802010297,-0.010924129596352576
1783696335301784600,9.28978466796875,-0.03073416095972061,-0.00911119842287153,0.014442330317758023
1783696335311748600,9.29974853515625,-0.03029109336733818,-0.014596169172599911,-0.01238835693001747
1783696335321711600,9.309711669921874,-0.02700140417218208,0.011287409950792788,-0.013508958457782863
1783696335336033300,9.324033203125,-0.039864977398514745,-0.011127141355164348,-0.0014358414893969893
1783696335345997300,9.333997314453125,-0.010391630154848099,0.0002323474511504173,-0.01084806868545711
1783696335355960300,9.343960205078124,-0.03178103966414928,-0.003857990602403879,-0.00025072335805743933
1783696335365923300,9.35392333984375,-0.03537292667627334,-0.006319229616783559,-0.002600245626270771
1783696335375886300,9.36388623046875,-0.019070611172914503,0.011240940460562706,-0.0009370981870219111
1783696335385850400,9.373850341796874,-0.027452655071020123,0.018289726460911333,0.017515417620167135
1783696335395813400,9.3838134765625,-0.0350917716473341,0.002259469364583492,-0.005333433449827134
1783696335405776400,9.3937763671875,-0.03269581642150879,-0.0001860971566289663,0.00037953736949712034
1783696335415739600,9.40373974609375,-0.04122515983581543,0.0061495356056839225,0.0050942909317091105
1783696335425703400,9.413703369140626,-0.03853635914325714,-0.006475735352747142,-0.00491977461501956
1783696335435666400,9.42366650390625,-0.020285247659683227,-0.003559263384155929,-0.0035351518562063574
1783696335445629400,9.43362939453125,-0.036598084557056425,-0.00800331024620682,0.01726378094665706
1783696335455593500,9.443593505859376,-0.02343406707942486,0.00027483488600701093,-0.0009347600994631648
1783696335465556500,9.453556396484375,-0.026274843463301657,0.012605506812036036,0.009136588592454791
1783696335475519500,9.46351953125,-0.04033434847593307,0.011663476721569895,0.0009369885891675948
1783696335485482500,9.473482421875,-0.03585106558203697,-0.0065947586225345725,0.00021316782664507626
1783696335495446500,9.483446533203125,-0.01535246743261814,-0.0019723960515111686,-0.00016392185743898153
1783696335505409500,9.493409423828124,-0.03704699736833572,-0.0034853578977286814,0.0030649405285716057
1783696335515372500,9.50337255859375,-0.028224223965406418,-0.004645889577083289,-0.01222403321377933
1783696335525335600,9.51333544921875,-0.015206336960196494,0.0019247209848836063,0.00785816615447402
1783696335535300000,9.523300048828125,-0.038997546914219854,-0.004977350021153688,0.00007061755079776049
1783696335545263000,9.53326318359375,-0.03780512225925922,-0.008425663844123483,-0.006367306542210281
1783696335555226000,9.54322607421875,-0.029722353568673133,-0.0015707929806783795,0.008104213337413966
1783696335565190100,9.553190185546875,-0.04827332478165626,-0.009241327608563006,0.005197203316912055
1783696335575153000,9.56315283203125,-0.02673310862481594,-0.010506013782136142,-0.006362995693273842
1783696335585116000,9.573115966796875,-0.029420155751705167,-0.01145746928807348,0.006249196587875485
1783696335595079000,9.583078857421874,-0.04558277052342891,-0.021661687112040817,-0.0010487418679520487
1783696335605043000,9.59304296875,-0.03047229515314102,-0.005857055465131998,-0.009874401347711682
1783696335615006000,9.603005859375,-0.028968904852867124,-0.006099522451497614,-0.012183555072918533
1783696335624969000,9.612968994140624,-0.03749591017961502,0.006064889529533684,-0.005427797202393413
1783696335634932000,9.622931884765626,-0.029575054052472113,0.004351802001334727,0.0043155981767922635
1783696335644896000,9.63289599609375,-0.02045417448580265,0.009371712522581219,0.006204955587349832
1783696335655482000,9.643482177734375,-0.04290682931244373,-0.009820625333860515,-0.007948511319048703
1783696335665445000,9.653445068359375,-0.027803368204832077,0.005028714882209896,-0.00935848771482706
1783696335675408000,9.663407958984376,-0.0357364992916584,-0.012787000858783721,-0.005093194953165948
1783696335685372000,9.673371826171875,-0.04277648093104362,-0.005097177008539438,-0.013049633850343524
1783696335695335000,9.6833349609375,-0.01943593735396862,-0.002270575280487537,-0.005755421721562743
1783696335705298000,9.6932978515625,-0.013602408894896506,-0.008172200539708137,0.010058744938671588
1783696335715262000,9.703261962890625,-0.021682254976034165,-0.005172288071364164,-0.00822002173680812
1783696335725225000,9.713224853515625,-0.01884206311404705,0.006809789612703025,-0.006054769994318485
1783696335735188000,9.72318798828125,-0.03694119890630245,-0.004888904552720487,0.01741601236630231
1783696335745151000,9.73315087890625,-0.03275485313236713,0.0032493937173858284,0.009655680563114583
1783696335755115000,9.743114990234375,-0.034114451047778126,0.0077857219727709885,0.002277224216982722
1783696335765078000,9.753078125,-0.030973230412602422,0.011455788787640631,0.00011252046376466751
1783696335775040800,9.763040771484375,-0.03486556167602539,0.004407952635362744,-0.01372428170889616
1783696335785003800,9.773003662109375,-0.029626491978764533,0.004401486361958086,-0.0070368398342281575
1783696335794967800,9.7829677734375,-0.0408428825199604,-0.006227532745338976,0.0034009310172870752
1783696335804930800,9.792930908203125,-0.026781623941659925,-0.005623648568056524,-0.007084039976820349
1783696335814894000,9.80289404296875,-0.018251111483573914,-0.00717909784913063,0.012556845364719628
1783696335824857900,9.81285791015625,-0.02932195607423782,-0.011786007122695445,0.0015195377174764871
1783696335834820900,9.82282080078125,-0.03381459131836891,-0.0053669338606297965,-0.006582848989032208
1783696335844784000,9.8327841796875,-0.02902092730104923,-0.00503123563285917,0.0022454773718491197
1783696335854748000,9.842747802734374,-0.02902092730104923,0.005546820472180843,-0.006268010886199772
1783696335864711200,9.852711181640625,-0.009722352591156959,-0.00028184914868324993,0.008220204399898647
1783696335874674200,9.862674072265625,-0.019745149433612823,0.007006773489527404,-0.0013941212395206092
1783696335884637000,9.872636962890626,-0.04129296437501907,0.011811543422751128,-0.006490056139044464
1783696335894601000,9.88260107421875,-0.028729250878095625,-0.0044533261470496655,-0.002049516408331692
1783696335904564000,9.89256396484375,-0.03636427580118179,0.0035664603099226947,-0.005213095005787908
1783696335914527000,9.90252685546875,-0.038759646505117415,-0.012129377200268208,-0.00670059361718595
1783696335924490000,9.912489990234375,-0.03187222507894039,0.0003562295591458678,-0.010000073553994297
1783696335934454000,9.9224541015625,-0.032609307181835176,0.0075624711435288185,0.003017667320743203
1783696335944417000,9.9324169921875,-0.03634557110071182,-0.0031175840312615034,-0.001525492534227669
1783696335954380000,9.942380126953125,-0.021079612907767293,-0.009314173649065196,0.0037124446518719194
1783696335964344000,9.952343994140625,-0.0307955357581377,-0.005095277312397957,0.016883585990034044
1783696335974307000,9.96230712890625,-0.021964579048752784,0.003256809838861227,0.0038379707276821134
1783696335984270000,9.97227001953125,-0.016575287225842474,0.008079042363539337,0.005730360345542431
1783696335994232800,9.98223291015625,-0.03961071037650108,-0.00308488733805716,-0.00023969050738960503
1783696336004196900,9.99219677734375,-0.04335749568939209,0.0006555412992835045,-0.008453099840320647
1783696336014160000,10.002159912109375,-0.03602525310516357,0.006919825858436524,-0.003190795397944748
1783696336024123000,10.012122802734375,-0.046044542816281314,0.011121917190775274,0.0025942542769014833
1783696336034087000,10.0220869140625,-0.026443185767531394,0.004448175047896802,0.0009071414401754736
1783696336044050000,10.0320498046875,-0.020457681617140767,-0.0004842033203691244,-0.004343618694879115
1783696336054013000,10.042012939453125,-0.02209726551771164,0.007319931091926991,-0.007245842942409217
1783696336063976000,10.051975830078124,-0.022541502153873443,-0.0030098858730867504,-0.013315299049206078
1783696336073940000,10.06193994140625,-0.017895137652754783,0.010791991116665303,0.0011403291415423155
1783696336083903000,10.071903076171875,-0.04333353029191494,0.0021735811794176695,0.0010456365954130888
1783696336093866000,10.081865966796874,-0.030320903983712195,-0.00033620968442410226,-0.000172397424839437
1783696336103829800,10.091829833984375,-0.03375672365128994,0.006567432224191725,-0.007498940920643508
1783696336113793000,10.10179296875,-0.038541619840264316,-0.007184066285192966,-0.013602080101333557
1783696336123756000,10.111756103515624,-0.03106792295873165,-0.008631305951438843,0.0037725773412734267
1783696336133719000,10.121718994140625,-0.023735680374503135,0.004093699054419994,0.0051131052300333974
1783696336143683000,10.13168310546875,-0.1414163033813238,0.027424086563661694,-0.04281772625688463
1783696336153646000,10.14164599609375,-0.006948796224594116,0.12625661857444792,-0.11439151833355427
1783696336163609000,10.151609130859375,0.3800473648458719,0.1227412673972547,0.04469122851118445
1783696336173573000,10.161572998046875,-0.020226795470714567,-0.25286416947841645,0.12049399992711841
1783696336183536000,10.1715361328125,-0.46283495364785193,-0.11385193156413734,0.0038891163930296897
1783696336193499100,10.1814990234375,-0.3241244020938873,0.10292381991241127,-0.05845270042531192
1783696336203462000,10.1914619140625,0.1761164453625679,-0.06493329461626708,0.013079919390752912
1783696336213426000,10.201426025390624,0.34561201128065583,-0.060779974329099054,0.09356555139329284
1783696336223389000,10.211388916015625,0.04219955782592296,-0.020990911711007355,0.08645038562584668
1783696336233352000,10.22135205078125,-0.19602642996907232,0.11885065316688269,-0.026418416652455923
